measurement,Acc_X,Acc_Y,Acc_Z,Gyr_X,Gyr_Y,Gyr_Z,Label
0,0.06500244,-0.10333252,-0.0020141602,142.45801,-3.9541984,31.480917,10
1,0.06762695,-0.10949707,0.0078125,127.76336,-1.5038168,23.038168,10
2,0.061950684,-0.103271484,0.0154418945,108.71756,-4.5496182,20.877863,10
3,0.060668945,-0.10479736,0.004699707,99.770996,-7.671756,17.847328,10
4,0.059753418,-0.11047363,0.045288086,85.89313,-5.2061067,12.687023,10
5,0.061706543,-0.11450195,0.057617188,45.770992,-9.274809,5.1603055,10
6,0.05822754,-0.115356445,0.021606445,14.549619,-10.725191,-5.0152674,10
7,0.05529785,-0.119262695,0.023742676,-11.496183,-7.9694657,-13.885496,10
8,0.06011963,-0.11798096,0.028137207,-44.458015,0.40458015,-24.89313,10
9,0.059143066,-0.10949707,0.0095825195,-60.67939,4.2290077,-28.877863,10
10,0.06237793,-0.0993042,0.011657715,-52.068703,-1.7862595,-29.854961,10
11,0.06237793,-0.09588623,-0.0014038086,-21.503817,-11.59542,-24.717558,10
12,0.06518555,-0.09527588,0.018859863,-2.8931298,-5.854962,-20.19084,10
13,0.06500244,-0.099487305,-0.0079956055,-14,5.9389315,-11.938931,10
14,0.06976318,-0.09289551,-0.012023926,-9.358779,9.045801,-9.671756,10
15,0.06976318,-0.09753418,0.03363037,4.3969464,-6.1984735,-2.2519083,10
16,0.062438965,-0.104003906,0.022521973,-2.2900763,-10.122137,-4.633588,10
17,0.06488037,-0.10546875,-0.0079956055,-13.022901,-10.297709,-2.8396947,10
18,0.059326172,-0.101623535,-0.0040283203,-12.450381,1.2137405,-2.259542,10
19,0.0647583,-0.09539795,-0.0063476562,6.442748,-3.442748,4.6946564,10
20,0.06121826,-0.10211182,0.02154541,25.67939,-16.450382,6.59542,10
21,0.0592041,-0.117492676,0.004272461,12.526717,-11.519084,2.2137403,10
22,0.06500244,-0.1081543,-0.0057373047,-8.984733,-2.5648854,-3.5267177,10
23,0.06512451,-0.09899902,0.012023926,-7.7557254,7.2290077,-1.4122137,10
24,0.06604004,-0.09893799,0.0010986328,-2.8091602,0.129771,1.7557251,10
25,0.06085205,-0.10192871,-0.0025024414,5.4198475,-11.114504,0.10687023,10
26,0.059448242,-0.10662842,-0.01184082,6.8778625,-4.7633586,-1.8244275,10
27,0.06585693,-0.10772705,-0.016235352,-0.9389313,4.5038166,-3.9160306,10
28,0.06286621,-0.101379395,0.022399902,-17.206106,9.351145,-5.3816795,10
29,0.063964844,-0.10321045,0.010253906,-6.633588,-7.3206105,-5.8396945,10
30,0.06298828,-0.098083496,-0.0031738281,10.40458,-10.755725,4.9923663,10
31,0.05847168,-0.103271484,0.0028076172,6.854962,-0.9389313,1.9923664,10
32,0.061523438,-0.09442139,-0.012390137,-11.458015,10.091603,-4.0152674,10
33,0.0592041,-0.09277344,0.025756836,12.129771,1.4274809,2.5419848,10
34,0.06713867,-0.107177734,0.0044555664,22.328245,-16.358778,4.778626,10
35,0.06072998,-0.10699463,-0.0045776367,7.10687,-15.572519,-1.0992366,10
36,0.0647583,-0.10583496,-0.015686035,4.6946564,-1.6183206,-1.4961832,10
37,0.06512451,-0.095581055,-0.010559082,-0.5954198,0.740458,-2.1984732,10
38,0.058654785,-0.10290527,-0.008666992,15.656488,-7.778626,5.4198475,10
39,0.06048584,-0.1138916,-0.012207031,5.6793895,-11.61832,4.9847326,10
40,0.05596924,-0.10534668,0.0068969727,-18.877863,-13.061069,-5.4732823,10
41,0.06304932,-0.105163574,-0.0063476562,-6.587786,-11.145039,-0.6183206,10
42,0.0579834,-0.10827637,-0.014526367,-1.0687023,-10.38168,-0.9312977,10
43,0.05645752,-0.1104126,-0.005493164,-7.5343513,-13.7404585,-3.0229008,10
44,0.057678223,-0.11798096,0.010925293,-48.053436,-8.473283,-3.8549619,10
45,0.058288574,-0.10284424,-0.020507812,-36.40458,-6.145038,-6.038168,10
46,0.0579834,-0.10864258,-0.016296387,-41.770992,2.648855,-5.4656487,10
47,0.059936523,-0.09814453,-0.018005371,-40.839695,0.17557251,-17.175573,10
48,0.05029297,-0.097595215,-0.013671875,-45.61832,3.687023,-17.51145,10
49,0.061279297,-0.08770752,-0.015258789,-30.267176,-3.442748,-9.648855,10
50,0.059509277,-0.08703613,-0.010986328,-23.198473,-7.1755724,-5.2519083,10
51,0.06036377,-0.08856201,-0.034484863,-8.702291,-36.045803,0.8396947,10
52,0.05633545,-0.08758545,-0.026245117,11.244275,-24.564886,8.030535,10
53,0.05706787,-0.09020996,-0.020751953,37.55725,-24.595419,18.305344,10
54,0.051940918,-0.10040283,0.0040283203,50.27481,-37.08397,27.877863,10
55,0.046447754,-0.11053467,0.0107421875,30.877863,-65.816795,16.580153,10
56,0.044555664,-0.11505127,-0.030334473,-18.625954,-81.99236,-3.5877862,10
57,0.043273926,-0.11505127,-0.03466797,-71.35878,-54.931297,5.9847326,10
58,0.034729004,-0.103271484,-0.058654785,-65.26717,-67.221375,0,10
59,0.043823242,-0.08605957,-0.043151855,-14.435115,-9.847328,6.2442746,10
60,0.042419434,-0.08441162,-0.053955078,10.022901,-18.526718,28.053434,10
61,0.043273926,-0.07647705,-0.038513184,57.229008,-14.9007635,43.374046,10
62,0.044067383,-0.11352539,-0.048706055,122.28244,-24.74809,60.946564,10
63,0.032958984,-0.114990234,-0.013305664,92.0687,-15.473283,44.70229,10
64,0.037353516,-0.10101318,-0.02368164,83.94656,-25.12977,60.908398,10
65,0.021240234,-0.10888672,-0.03326416,85.12214,-9.534351,60.229008,10
66,0.022888184,-0.1303711,-0.024047852,82.1145,-14.503817,53.12214,10
67,0.010681152,-0.12286377,-0.029846191,52.49618,-4.6488547,45.755726,10
68,0.010314941,-0.11071777,-0.024597168,76.63359,-1.167939,45.84733,10
69,0.013549805,-0.13336182,-0.0068969727,104.07633,15.984733,38.885498,10
70,0.011657715,-0.12823486,0.017944336,61.51145,13.396947,39.44275,10
71,0.0002441406,-0.13061523,0.027954102,17.70229,2.3587787,34.74046,10
72,-0.009216309,-0.12615967,-0.012451172,-0.5496183,-30.633587,27.022902,10
73,-0.0041503906,-0.11437988,-0.0076904297,1.870229,-21.358778,26.595419,10
74,-0.0004882813,-0.111450195,0.0012817383,23.549618,11.389313,36.74046,10
75,-0.0068359375,-0.11663818,0.016662598,3.8625953,14.297709,31.022902,10
76,-0.0008544922,-0.113220215,0.03668213,-27.89313,-9.068703,33.870228,10
77,-0.005432129,-0.1159668,0.020996094,-29.641222,-40.72519,35.664124,10
78,-0.0052490234,-0.11602783,0.003540039,-28.091602,-53.435116,41.190838,10
79,-0.009216309,-0.118652344,-0.010620117,-36.328243,-21.954199,39.366413,10
80,-0.011169434,-0.11883545,-0.011474609,-27.51145,-13.198473,42.190838,10
81,-0.0115356445,-0.13006592,-0.010864258,-61.671757,-29.816793,37.389313,10
82,-0.013000488,-0.122924805,-0.028808594,-78.42748,-36.282444,38.984734,10
83,-0.022705078,-0.111206055,-0.039916992,-38.541985,-21.816793,42.862595,10
84,-0.022705078,-0.114746094,-0.0211792,-38.335876,-6.8778625,41.687023,10
85,-0.025939941,-0.1116333,-0.0014648438,-79.778625,-8.931297,42.030533,10
86,-0.028930664,-0.10925293,-0.011474609,-106.21374,-27.862595,41.015266,10
87,-0.030944824,-0.10235596,-0.01940918,-112.53435,-63.229008,44.84733,10
88,-0.03741455,-0.09082031,-0.022338867,-117.816795,-66.52672,50.862595,10
89,-0.040039062,-0.08911133,-0.016479492,-101.83206,-64.28244,63.267174,10
90,-0.047973633,-0.09436035,-0.028381348,-84.900764,-66.91603,66.63359,10
91,-0.053955078,-0.083618164,-0.03857422,-89.96183,-72.03817,70.900764,10
92,-0.058288574,-0.07098389,-0.036621094,-103.21374,-86.75572,73.03053,10
93,-0.064208984,-0.061279297,-0.05621338,-77.07633,-80.05344,90.23664,10
94,-0.07684326,-0.0690918,-0.04663086,-37.870228,-84.41222,103.8855,10
95,-0.08685303,-0.07293701,-0.045410156,-22.549618,-81.70992,104.91603,10
96,-0.095947266,-0.06414795,-0.050720215,-35.694656,-87.9542,109.35878,10
97,-0.10253906,-0.06390381,-0.039001465,-48.70229,-65.44275,105.12214,10
98,-0.11016846,-0.06524658,-0.032165527,-44.08397,-59.305344,113.458015,10
99,-0.11669922,-0.061828613,-0.040222168,-50.572517,-67.9542,103.21374,10
100,-0.12902832,-0.057861328,-0.044189453,-42.27481,-67.03817,100.58778,10
101,-0.13140869,-0.045715332,-0.034606934,-20.343512,-47.572517,87.580154,10
102,-0.12902832,-0.04663086,-0.04724121,-6.557252,-21.694656,75,10
103,-0.11785889,-0.042175293,-0.03967285,3.2824428,-7.5496182,56.14504,10
104,-0.12414551,-0.03515625,-0.04425049,18.992367,-4.1755724,36.15267,10
105,-0.11505127,-0.03540039,-0.035888672,36.17557,-6.4580154,24.229008,10
106,-0.11999512,-0.036865234,-0.033935547,51.12214,-1.2519084,14.145039,10
107,-0.11987305,-0.04272461,-0.032104492,59.51145,0.8167939,7.2671757,10
108,-0.12072754,-0.0413208,-0.029418945,61.160305,1.5801526,2.4351146,10
109,-0.12207031,-0.03845215,-0.0052490234,65.59542,2.8625953,-0.5114504,10
110,-0.1161499,-0.044006348,-0.02319336,74.23664,12.709924,-2,10
111,-0.108947754,-0.040222168,-0.022888184,73.83206,16.954199,-2.465649,10
112,-0.105773926,-0.041809082,-0.031555176,63.366413,9.564885,-5.5648856,10
113,-0.11627197,-0.03765869,-0.022277832,67.32061,7.6030536,-4.4503818,10
114,-0.11218262,-0.029052734,-0.024719238,80.01527,18.366413,-3.6564887,10
115,-0.10992432,-0.035095215,-0.032348633,86.89313,17.458015,-4.2137403,10
116,-0.111328125,-0.036071777,-0.03338623,83.23664,6.7251906,1.259542,10
117,-0.10974121,-0.038208008,-0.029785156,84.68702,7.2519083,6.1984735,10
118,-0.10839844,-0.049560547,-0.01977539,76.56489,17.053434,14.748092,10
119,-0.107055664,-0.049194336,-0.026000977,37.961834,11.114504,17.32061,10
120,-0.10784912,-0.044311523,-0.0048828125,21.282442,6.671756,18.709923,10
121,-0.11138916,-0.04272461,-0.011962891,17.885496,3.2671757,22.732824,10
122,-0.11291504,-0.04626465,-0.02319336,11.129771,6.2748094,25.396946,10
123,-0.107543945,-0.047668457,-0.017822266,4.4656487,6.5114503,27.603054,10
124,-0.11236572,-0.045043945,-0.024780273,-2.8244274,2.7557251,30.946566,10
125,-0.11407471,-0.039855957,-0.020996094,-0.6870229,3.1374047,29.022902,10
126,-0.11328125,-0.041015625,-0.024841309,8.19084,6.7709923,24.114504,10
127,-0.12030029,-0.035339355,-0.023742676,15.671756,8.244275,21.48855,10
128,-0.11138916,-0.035217285,-0.030578613,18.885496,6.923664,14.458015,10
129,-0.12023926,-0.037231445,-0.018371582,27.778625,8.053435,11.412213,10
130,-0.11633301,-0.034179688,-0.024658203,43.778625,11.816793,10.274809,10
131,-0.11767578,-0.035461426,-0.021728516,56.9771,13.572519,6.9465647,10
132,-0.11541748,-0.03857422,-0.015197754,69.9771,14.38168,8.022901,10
133,-0.115722656,-0.042419434,-0.019165039,77.65649,15.954199,10.755725,10
134,-0.11590576,-0.041931152,-0.018554688,77.72519,15.38168,11.977099,10
135,-0.10961914,-0.045654297,-0.013427734,76.183205,15.610687,9.145039,10
136,-0.115478516,-0.042541504,-0.020996094,67.48855,15.862596,10.038168,10
137,-0.114868164,-0.044128418,-0.019165039,55.099236,14.503817,7.8015265,10
138,-0.11206055,-0.042053223,-0.016967773,43.992367,14.717557,1.0152671,10
139,-0.11651611,-0.040405273,-0.02319336,34.045803,12.396947,-2.6030533,10
140,-0.115234375,-0.038330078,-0.02319336,27.687023,11.305344,-5.6183205,10
141,-0.109558105,-0.037841797,-0.014709473,24.526718,15.045801,-6.519084,10
142,-0.113708496,-0.036499023,-0.019592285,27.473282,14.145039,-8.030535,10
143,-0.11090088,-0.039123535,-0.023925781,30.175573,14.877863,-3.7709923,10
144,-0.10876465,-0.039794922,-0.025756836,29.992367,13.450381,-1.6030535,10
145,-0.10870361,-0.039916992,-0.01763916,28.335878,14.427481,0.97709924,10
146,-0.1081543,-0.040527344,-0.02520752,29.015266,14.053435,4.7938933,10
147,-0.11328125,-0.041931152,-0.025756836,26.717558,14.656488,3.9847329,10
148,-0.11248779,-0.043884277,-0.022338867,22.450382,11.603053,5.4351144,10
149,-0.11437988,-0.04248047,-0.016540527,18.51145,8.763359,4.6183205,10
150,-0.11254883,-0.041992188,-0.020141602,14.145039,8.053435,6.152672,10
151,-0.115112305,-0.041137695,-0.018310547,9.80916,8.0992365,2.3206108,10
152,-0.10772705,-0.046813965,-0.022094727,5.4885497,5.9465647,3.664122,10
153,-0.10797119,-0.04309082,-0.018005371,-0.20610687,0.7557252,1.1755725,10
154,-0.109436035,-0.041503906,-0.019104004,-2.4961832,-1.2519084,0.053435113,10
155,-0.111206055,-0.04284668,-0.020080566,-4.3587785,-1.5496184,-0.13740458,10
156,-0.11242676,-0.041381836,-0.01574707,-8.305344,-1.6412214,-0.99236643,10
157,-0.11029053,-0.043273926,-0.02532959,-12.366412,-5.671756,-2.9923663,10
158,-0.115478516,-0.036315918,-0.027893066,-16.213741,-5.7633586,-3.534351,10
159,-0.11425781,-0.039855957,-0.024291992,-11.038168,-4.038168,-6.1374044,10
160,-0.10900879,-0.036010742,-0.027404785,-4.7862597,-1.9465649,-5.7862597,10
161,-0.111083984,-0.03668213,-0.025634766,-0.06870229,-3.648855,-4.19084,10
162,-0.11291504,-0.041809082,-0.02520752,0.90076333,-2.206107,-3.1755726,10
163,-0.11364746,-0.037902832,-0.023254395,1.0229008,-0.78625953,-3.0305343,10
164,-0.117248535,-0.034423828,-0.0256958,1.0152671,-0.5801527,-2.519084,10
165,-0.11810303,-0.03753662,-0.022949219,-1.7938931,0.015267176,-3.9312978,10
166,-0.113342285,-0.03967285,-0.028503418,-1.6717557,2.129771,-3.778626,10
167,-0.1159668,-0.03955078,-0.024902344,-2.221374,1.0229008,-4.1984735,10
168,-0.11279297,-0.034973145,-0.020141602,-4.3511453,1.70229,-6.3893127,10
169,-0.11273193,-0.0345459,-0.02532959,-5.8015265,2.2519083,-7.5419846,10
170,-0.11602783,-0.036010742,-0.023986816,-3.038168,1.3282443,-6.7328243,10
171,-0.11029053,-0.033935547,-0.020385742,2.6183207,1.4503816,-6.0839696,10
172,-0.108947754,-0.036987305,-0.021118164,10.030535,2.4122138,-2.648855,10
173,-0.109375,-0.040649414,-0.017089844,9.519084,1.3053435,-5.29771,10
174,-0.11010742,-0.03466797,-0.018005371,8.641221,0.35114503,-5.2061067,10
175,-0.11053467,-0.038269043,-0.025817871,7.7251906,-0.20610687,-4.1679387,10
176,-0.11273193,-0.03741455,-0.018859863,10.244275,1.221374,-3.29771,10
177,-0.1116333,-0.04095459,-0.03704834,8.229008,-0.89312977,-3.1068702,10
178,-0.11590576,-0.04095459,-0.028381348,4.4351144,0.55725193,-0.18320611,10
179,-0.11553955,-0.040405273,-0.028381348,7.6488547,1.8625954,-1.6259542,10
180,-0.11767578,-0.04107666,-0.026611328,10.564885,3.740458,-2.648855,10
181,-0.11138916,-0.039611816,-0.028259277,2.3664122,1.870229,-5.3511453,10
182,-0.113098145,-0.038757324,-0.022705078,-1.3816794,0.64122134,-6.6412215,10
183,-0.1126709,-0.034851074,-0.0211792,2.3282442,0.60305345,-3.6946564,10
184,-0.111816406,-0.039733887,-0.032714844,8.389313,1.6183206,-3.3664122,10
185,-0.11248779,-0.044555664,-0.028625488,9.374045,3.9160306,-1.3206106,10
186,-0.11206055,-0.04168701,-0.022155762,9.877863,2.5419848,-2.6412213,10
187,-0.11706543,-0.047607422,-0.024414062,2.9160306,1.5343511,-2.5267177,10
188,-0.11035156,-0.043762207,-0.024169922,-3.3740458,1.3664122,-2.0076337,10
189,-0.11242676,-0.043762207,-0.026794434,-4.519084,1.2824427,-4.114504,10
190,-0.11175537,-0.04168701,-0.022521973,-6.8015265,2.2519083,-2.0229008,10
191,-0.109436035,-0.040893555,-0.024353027,-4,0.022900764,-2.7480917,10
192,-0.11102295,-0.037231445,-0.014526367,0.19847329,2.6030533,-3.8625953,10
193,-0.107055664,-0.040527344,-0.02935791,6.1297708,3.6412213,-4.70229,10
194,-0.11004639,-0.04119873,-0.026672363,6.5419846,1.648855,-5.7328243,10
195,-0.11230469,-0.040222168,-0.016784668,8.38168,-1.1908396,-5.70229,10
196,-0.11602783,-0.038635254,-0.026123047,12.267176,-0.045801528,-6.145038,10
197,-0.11669922,-0.043518066,-0.020751953,13.526717,1.6870229,-7.5038166,10
198,-0.11828613,-0.039367676,-0.017150879,11.328244,1.8396946,-6.412214,10
199,-0.115600586,-0.04156494,-0.023864746,8.076336,1.9160305,-6.8244276,10
200,-0.114990234,-0.04345703,-0.024658203,-0.053435113,0.9312977,-6.4885497,10
201,-0.11053467,-0.041503906,-0.021850586,-2.4503818,1.1832061,-7.0229006,10
202,-0.11053467,-0.037963867,-0.030883789,-1.7633588,0.32061067,-2.9007633,10
203,-0.10803223,-0.034301758,-0.024475098,-1.221374,1.6030535,-1.9007634,10
204,-0.10498047,-0.04119873,-0.01928711,1.1374046,1.519084,1.2290076,10
205,-0.10803223,-0.038391113,-0.023803711,5.59542,-0.65648854,0.79389316,10
206,-0.11236572,-0.042541504,-0.024353027,6.328244,0.7633588,2.3282442,10
207,-0.11279297,-0.039245605,-0.024475098,5.3587785,1.0992366,2.335878,10
208,-0.11151123,-0.04437256,-0.015380859,5.0992365,0.610687,4.0839696,10
209,-0.110961914,-0.044433594,-0.020019531,1.1374046,-1.8931298,3.3969467,10
210,-0.11340332,-0.044555664,-0.020507812,-4.7938933,-2.4961832,1.0763359,10
211,-0.117492676,-0.0435791,-0.008728027,-5.3587785,-3.8091602,0.6946565,10
212,-0.11956787,-0.0446167,-0.020080566,-3.8854961,-0.90076333,0.099236645,10
213,-0.11578369,-0.040100098,-0.024108887,-3.2748091,1.8091604,-2.5877862,10
214,-0.11236572,-0.039978027,-0.024780273,-0.8549618,1.4961832,-4.1221375,10
215,-0.106933594,-0.042297363,-0.02331543,3.2442749,1.4885496,-4.5648856,10
216,-0.10772705,-0.0413208,-0.01953125,7.0305343,1.9007634,-4.0839696,10
217,-0.10839844,-0.043273926,-0.02178955,7.7099237,2.961832,-6.076336,10
218,-0.11053467,-0.041870117,-0.019714355,7.3053436,-0.3740458,-4.923664,10
219,-0.11816406,-0.04248047,-0.020324707,5.5648856,-1.1832061,-5.145038,10
220,-0.11987305,-0.044311523,-0.022460938,1.3358779,-0.8549618,-5.038168,10
221,-0.11291504,-0.041015625,-0.0037231445,-6.10687,1.6641221,-3.442748,10
222,-0.12042236,-0.04437256,-0.020385742,-13.427481,-0.45801526,-5.412214,10
223,-0.1126709,-0.04034424,-0.021118164,-17.625954,0.36641222,-5.2442746,10
224,-0.11303711,-0.038269043,-0.022644043,-18.259542,2.0458016,-7.625954,10
225,-0.115112305,-0.037109375,-0.014892578,-14.129771,0.5038168,-7.7251906,10
226,-0.11303711,-0.035705566,-0.020996094,-7.2290077,-1.1603054,-8.412213,10
227,-0.11151123,-0.03338623,-0.021911621,2.9694657,1.6412214,-5.2061067,10
228,-0.116760254,-0.036010742,-0.024108887,11.916031,0.99236643,-4.854962,10
229,-0.11639404,-0.03869629,-0.01739502,16.412214,1.0229008,-2,10
230,-0.11383057,-0.04034424,-0.02319336,16.48855,2.259542,-0.9465649,10
231,-0.11029053,-0.04333496,-0.01940918,11.2595415,1.9770992,1.7633588,10
232,-0.11425781,-0.04168701,-0.015991211,1.038168,2.2519083,1.167939,10
233,-0.10803223,-0.042541504,-0.019165039,-5.0076337,1.70229,1.2900764,10
234,-0.11553955,-0.040161133,-0.023132324,-7.816794,0.9847328,0.55725193,10
235,-0.111572266,-0.03918457,-0.032958984,-3.5267177,1.4122137,0.8854962,10
236,-0.11230469,-0.0423584,-0.032104492,3.7862597,2.206107,0.54198474,10
237,-0.115600586,-0.04534912,-0.019958496,4.70229,0.5496183,0.77099234,10
238,-0.11303711,-0.039367676,-0.03173828,2.778626,0.36641222,0.48091602,10
239,-0.11279297,-0.03857422,-0.028198242,5.7251906,2.1450381,-0.5496183,10
240,-0.115234375,-0.04309082,-0.028503418,4.9465647,1.8473282,-1.7938931,10
241,-0.115478516,-0.044433594,-0.029418945,1.389313,1.5572519,-2.6412213,10
242,-0.112854004,-0.042541504,-0.021484375,0.4274809,0.60305345,-2.1068702,10
243,-0.107910156,-0.042785645,-0.014770508,-0.053435113,-0.34351146,-3.1145039,10
244,-0.113220215,-0.044067383,-0.02130127,-2.5877862,-1.7175573,-2.816794,10
245,-0.10900879,-0.039794922,-0.025146484,-3.1450381,-1.6793894,-2.1984732,10
246,-0.10803223,-0.041748047,-0.028808594,-4.4656487,-1.1145039,-3.8931298,10
247,-0.115478516,-0.043823242,-0.022583008,-5.0992365,-0.32061067,-4.6412215,10
248,-0.117126465,-0.04248047,-0.025756836,-5.8778625,-0.19847329,-5.1755724,10
249,-0.1116333,-0.037719727,-0.01739502,-2.1145039,0.17557251,-4.7099237,10
250,-0.111572266,-0.035583496,-0.02508545,2.8244274,1.7862595,-4.7862597,10
251,-0.11669922,-0.03527832,-0.021484375,3.0839694,2.335878,-4.70229,10
252,-0.111450195,-0.03967285,-0.026733398,0.71755725,2.8244274,-5.9160304,10
253,-0.11303711,-0.04248047,-0.014953613,-2.312977,1.1374046,-3.6717558,10
254,-0.11340332,-0.04095459,-0.0079956055,-4.4885497,-0.16030534,-3.1603053,10
255,-0.11218262,-0.043701172,-0.015686035,-5.1755724,-0.79389316,-2.9160306,10
256,-0.11260986,-0.039611816,-0.023803711,-6.1679387,0.46564886,-2.4198472,10
257,-0.113342285,-0.040222168,-0.025268555,-6.2748094,0.48854962,-3.1984732,10
258,-0.11315918,-0.036193848,-0.015991211,-5.664122,0.38931298,-4.0839696,10
259,-0.11175537,-0.037841797,-0.029052734,-4.854962,0.45038167,-4.5725193,10
260,-0.11376953,-0.039367676,-0.021484375,-0.8167939,1.4351145,-6.0610685,10
261,-0.113342285,-0.038024902,-0.022583008,4.335878,0.64122134,-3.8091602,10
262,-0.10797119,-0.039001465,-0.018615723,7.114504,0.4274809,-3.7557251,10
263,-0.11401367,-0.044006348,-0.024475098,5.2824426,1.70229,-3.480916,10
264,-0.11303711,-0.039245605,-0.015258789,3.2366412,1.3740458,-1.6030535,10
265,-0.11352539,-0.040222168,-0.021850586,5.0305343,1.129771,-1.9007634,10
266,-0.113220215,-0.043945312,-0.022888184,0.4351145,2.091603,-1.6564885,10
267,-0.11187744,-0.040222168,-0.023132324,-3.3587787,1.9312977,-0.73282444,10
268,-0.11254883,-0.044677734,-0.026000977,-0.9160305,2.0229008,-1.9160305,10
269,-0.11212158,-0.043029785,-0.023986816,-0.29007635,1.2061069,-0.129771,10
270,-0.11517334,-0.039978027,-0.024597168,-0.89312977,1.2900764,-1.778626,10
271,-0.1105957,-0.041137695,-0.012878418,-0.8244275,1.9541985,-2.4580152,10
272,-0.112854004,-0.044006348,-0.021850586,-0.007633588,1.6717557,-2.9541984,10
273,-0.11352539,-0.039916992,-0.024169922,-0.03816794,1.259542,-4.328244,10
274,-0.11462402,-0.04083252,-0.020690918,-0.9160305,2.2671757,-3.9694657,10
275,-0.10998535,-0.038635254,-0.01739502,-1.4198474,1.6183206,-3.7328243,10
276,-0.11279297,-0.03845215,-0.024536133,-0.16030534,1.5038168,-3.5648854,10
277,-0.109191895,-0.039489746,-0.008972168,0.48091602,1.4961832,-3.2137403,10
278,-0.11218262,-0.038635254,-0.016906738,2.3664122,3.389313,-4.4885497,10
279,-0.10949707,-0.04058838,-0.018554688,2.7175572,3.534351,-4.5038166,10
280,-0.11425781,-0.042114258,-0.022827148,0.9236641,3.9694657,-3.4122138,10
281,-0.116882324,-0.038757324,-0.023498535,-0.33587787,2.4961832,-2.9541984,10
282,-0.11206055,-0.040222168,-0.024291992,-1.1984733,1.091603,-3.4198472,10
283,-0.11206055,-0.04034424,-0.021057129,0.89312977,1.3129771,-1.2824427,10
284,-0.11340332,-0.039489746,-0.026123047,2.427481,2.572519,-2.167939,10
285,-0.11529541,-0.042236328,-0.020996094,0.89312977,2.0076337,-1.9541985,10
286,-0.11071777,-0.04156494,0.023498535,-3.572519,0.9312977,-3.1221373,10
287,-0.10961914,-0.04248047,-0.024414062,-0.9236641,1.4961832,-4.0152674,10
288,-0.11633301,-0.040222168,-0.01965332,1.2748091,0.740458,-2.9770992,10
289,-0.109069824,-0.04248047,-0.021728516,1.6412214,0.9465649,-1.648855,10
290,-0.105285645,-0.036315918,-0.02166748,-0.90839696,0.9312977,-3.3969467,10
291,-0.11663818,-0.04168701,-0.024719238,-0.870229,0.23664123,-3.167939,10
292,-0.11431885,-0.03881836,-0.021606445,-3.3053436,-0.90839696,-2.129771,10
293,-0.115600586,-0.038879395,-0.028259277,-3.038168,-0.08396947,-3.2900763,10
294,-0.112976074,-0.040039062,-0.025634766,0.19847329,0.4274809,-0.9389313,10
295,-0.112976074,-0.039611816,-0.032958984,0.73282444,0.32824427,-2.740458,10
296,-0.11279297,-0.04284668,-0.020996094,-0.35114503,0.4351145,-2.4122138,10
297,-0.11743164,-0.0413208,-0.011657715,-1.8244275,1.0152671,-3.335878,10
298,-0.10626221,-0.038024902,-0.024353027,-4.4961834,0.099236645,-3.442748,10
299,-0.112854004,-0.035583496,-0.019226074,-0.24427481,-1.0229008,-2.3435113,10
300,-0.10461426,-0.03692627,-0.03491211,3,1.9312977,-3.351145,10
301,-0.11218262,-0.03741455,-0.023925781,2.5648854,1.5114504,-2.70229,10
302,-0.109558105,-0.03930664,-0.024475098,3.8854961,1.9236641,-3.740458,10
303,-0.110961914,-0.03869629,-0.0078125,5.29771,0.8549618,-2.1374047,10
304,-0.11315918,-0.043273926,-0.009643555,1.9236641,1.2824427,-0.5954198,10
305,-0.113342285,-0.04449463,-0.03137207,-0.740458,0.8167939,-1.5114504,10
306,-0.11199951,-0.040527344,-0.029785156,-2.6946564,0.9236641,-3.9007633,10
307,-0.10992432,-0.039245605,-0.02545166,-1.4351145,1.1374046,-2.7328243,10
308,-0.11328125,-0.041931152,-0.0289917,-0.4274809,0.34351146,-2.8778627,10
309,-0.11236572,-0.04272461,-0.026916504,-0.54198474,0.015267176,-1.5725191,10
310,-0.111694336,-0.04083252,-0.029785156,-3.664122,0.7099237,-5.5343513,10
311,-0.10510254,-0.039367676,-0.020141602,-3.9389312,-0.22137405,-5.816794,10
312,-0.11029053,-0.036987305,-0.02758789,-2.610687,0.259542,-4.4503818,10
313,-0.109436035,-0.038757324,-0.023498535,-0.8549618,0.9465649,-6.145038,10
314,-0.109069824,-0.03765869,-0.0289917,3.1755726,1.038168,-4.0076337,10
315,-0.11053467,-0.03527832,-0.025268555,3.70229,1.870229,-3.6412213,10
316,-0.1104126,-0.037963867,-0.026184082,2.5801528,1.9541985,-4.5648856,10
317,-0.113098145,-0.042663574,-0.018859863,-0.8396947,1.5419847,-6.0916033,10
318,-0.113342285,-0.04498291,-0.028320312,-1.389313,1.9847329,-2.961832,10
319,-0.111450195,-0.040405273,-0.028808594,-0.3053435,2.2824428,-3.335878,10
320,-0.11199951,-0.041503906,-0.025878906,0.40458015,2.557252,-1.167939,10
321,-0.108947754,-0.038391113,-0.022644043,-2.0076337,3.40458,-2.5114503,10
322,-0.11102295,-0.03942871,-0.008483887,-5.0916033,1.5954199,-2.4580152,10
323,-0.119262695,-0.03717041,-0.02355957,-4.0076337,0.1908397,-3.5801528,10
324,-0.10888672,-0.037109375,-0.015380859,0.54198474,0.77862597,-3.8244274,10
325,-0.113708496,-0.038391113,-0.026123047,2.0992367,1.480916,-3.0992367,10
326,-0.10723877,-0.035339355,-0.028076172,6.2366414,0.8244275,-4.2824426,10
327,-0.109313965,-0.041015625,-0.0107421875,6.59542,1.4427481,-1.7480916,10
328,-0.110839844,-0.041992188,-0.013122559,2.1450381,-0.10687023,-1.8854961,10
329,-0.11303711,-0.04473877,-0.024414062,-2.480916,1.0305344,1.1603054,10
330,-0.10870361,-0.03942871,-0.023864746,-8.862596,0.740458,0.13740458,10
331,-0.11303711,-0.039978027,-0.026428223,-10.946565,-2.7328243,-0.5648855,10
332,-0.10675049,-0.040039062,-0.024047852,-15.671756,-0.519084,1.832061,10
333,-0.10803223,-0.03894043,-0.02545166,-14.61832,2.6335878,-1.8778626,10
334,-0.1116333,-0.04345703,-0.022766113,-16.183207,-0.07633588,-2.8091602,10
335,-0.11376953,-0.03942871,-0.026306152,-21.374046,1.3129771,-5.2442746,10
336,-0.112976074,-0.03857422,-0.029907227,-19.67939,6,-9.328244,10
337,-0.11236572,-0.0357666,-0.0256958,-15.229008,7.6946564,-10.511451,10
338,-0.111206055,-0.0390625,-0.024536133,-13.923664,6.0839696,-13.114504,10
339,-0.11187744,-0.03564453,-0.029785156,-7.89313,8.854961,-13.511451,10
340,-0.11022949,-0.03643799,-0.020629883,-0.045801528,10.870229,-12.022901,10
341,-0.10662842,-0.036315918,-0.026550293,3.1221373,7.854962,-10.671756,10
342,-0.10949707,-0.032165527,-0.009338379,6.4961834,6.10687,-7.6870227,10
343,-0.107910156,-0.03265381,-0.020812988,7.923664,4.9389315,-8.748092,10
344,-0.10772705,-0.038024902,-0.02368164,12.9007635,1.5267175,-3.2442749,10
345,-0.11022949,-0.037902832,-0.028747559,13.129771,-2.8778627,-0.78625953,10
346,-0.110961914,-0.039001465,-0.027648926,6.114504,-5.80916,2.335878,10
347,-0.11053467,-0.03942871,-0.026306152,2.076336,-5.6106873,3.1145039,10
348,-0.11578369,-0.040039062,-0.029724121,-3.335878,-8.374045,2.2748091,10
349,-0.11419678,-0.037475586,-0.02532959,-5.4198475,-9.969465,1.3664122,10
350,-0.1116333,-0.03363037,-0.02911377,-4.9923663,-6.5725193,1.1832061,10
351,-0.11053467,-0.03314209,0.038146973,0.39694658,-5.221374,4.587786,10
352,-0.110961914,-0.034423828,-0.031311035,12.969465,-2.7480917,3.2137403,10
353,-0.11206055,-0.038635254,-0.032409668,23.473282,0.39694658,3.335878,10
354,-0.11206055,-0.039367676,-0.026489258,29.08397,2.8778627,4.328244,10
355,-0.10437012,-0.041503906,-0.035705566,28.450382,4.29771,3.8854961,10
356,-0.11444092,-0.043395996,-0.046447754,28.862595,3.9389312,3.8625953,10
357,-0.11627197,-0.044067383,-0.027709961,27.61832,6.6870227,4.4656487,10
358,-0.11224365,-0.041015625,-0.022827148,22.068703,7.3893127,5.2671757,10
359,-0.11584473,-0.046691895,-0.03753662,19.213741,6.557252,2.908397,10
360,-0.113220215,-0.046569824,0.001953125,9.587787,5.9007635,2.167939,10
361,-0.11456299,-0.04559326,-0.03515625,3.5038168,8.19084,0.19847329,10
362,-0.11456299,-0.042541504,-0.029174805,2.4122138,6.587786,-2.6717558,10
363,-0.1104126,-0.04534912,-0.026977539,0.16030534,6.076336,-3.870229,10
364,-0.109069824,-0.041259766,-0.017150879,-1.1374046,5.3893127,-4.366412,10
365,-0.1105957,-0.04107666,-0.032470703,4.2137403,4.2671757,-5.3435116,10
366,-0.10998535,-0.042297363,-0.02355957,10.21374,2.7099237,-6.0992365,10
367,-0.11291504,-0.041259766,-0.022338867,10.572519,2.832061,-5.6183205,10
368,-0.113098145,-0.04437256,-0.025390625,5.7480917,0.8778626,-6.145038,10
369,-0.11315918,-0.040283203,-0.026977539,1.5343511,-0.06870229,-5.633588,10
370,-0.11517334,-0.04071045,-0.029968262,-3.0458016,-0.9847328,-5.7938933,10
371,-0.111450195,-0.037902832,-0.020141602,-1.3282443,-0.67175573,-5.8778625,10
372,-0.112854004,-0.03778076,-0.01586914,-4.2671757,-0.6793893,-5.1221375,10
373,-0.11175537,-0.042175293,-0.02154541,-7.3206105,-2.480916,-4.4351144,10
374,-0.10900879,-0.037231445,-0.015136719,-6.8702292,-2.259542,-4.587786,10
375,-0.11401367,-0.044189453,0.0026855469,-7.2366414,-2.4122138,-3.1755726,10
376,-0.11029053,-0.04034424,-0.004699707,-7.2442746,-1.3358779,-1.4198474,10
377,-0.11206055,-0.03869629,-0.025268555,-5.0305343,-0.89312977,-1.5038168,10
378,-0.11431885,-0.041381836,-0.019226074,-3.5114503,-1.29771,-2.0229008,10
379,-0.11175537,-0.042236328,-0.026184082,-6.5343513,-2.053435,-2.2290077,10
380,-0.11047363,-0.042541504,0.0007324219,-9.396947,-3.3740458,-3.59542,10
381,-0.11279297,-0.038269043,-0.017456055,-11.282443,-2.2748091,-2.946565,10
382,-0.111572266,-0.039733887,-0.008422852,-9.427481,-2.557252,-2.8091602,10
383,-0.11029053,-0.041625977,-0.020019531,-7.89313,-2.2290077,-5.3587785,10
384,-0.11175537,-0.03967285,-0.022399902,-8.351145,-3.1145039,-5.3129773,10
385,-0.11260986,-0.041870117,-0.008300781,-8.167939,-3.8015268,-3.70229,10
386,-0.11206055,-0.03741455,0.0012207031,-6.3816795,-4.5038166,-5.366412,10
387,-0.113586426,-0.038757324,-0.01739502,-6.0152674,-2.9389312,-4.4351144,10
388,-0.107543945,-0.03704834,-0.022216797,-4.2900763,-3.4885497,-3.8625953,10
389,-0.11431885,-0.0368042,0.0004272461,-4.2442746,-4.89313,-4.9770994,10
390,-0.11315918,-0.03753662,-0.005432129,-2.0458016,-5.6564884,-4.5267177,10
391,-0.1138916,-0.039367676,0.008544922,-1.8167939,-7.8625956,-4.10687,10
392,-0.11291504,-0.0435791,-0.018798828,-3.534351,-9.717557,-3.9312978,10
393,-0.11199951,-0.041381836,0.0076293945,-5,-7.557252,-1.8091604,10
394,-0.10852051,-0.043518066,0.0028076172,-1.648855,-10.496183,-1.4427481,10
395,-0.11114502,-0.046875,-0.0037231445,-5.519084,-13.679389,-0.4274809,10
396,-0.11376953,-0.0513916,-0.0056152344,-18.030535,-15.442748,-0.15267175,10
397,-0.10925293,-0.045959473,-0.005432129,-37.312977,-19.625954,-3.259542,10
398,-0.111328125,-0.04748535,-0.012573242,-46.67939,-23.61832,-8.19084,10
399,-0.11279297,-0.045288086,-0.002380371,-51.954197,-22.770992,-10.2213745,10
400,-0.11401367,-0.038391113,0.0036621094,-59.35878,-21.343512,-12.923664,10
401,-0.11315918,-0.04083252,-0.0056152344,-60.52672,-25.229008,-14.633588,10
402,-0.11584473,-0.03527832,0.0053100586,-56.885498,-25.48855,-16.160305,10
403,-0.1126709,-0.039001465,0.0115356445,-53.664124,-24.045801,-15.335877,10
404,-0.10974121,-0.039733887,0.0020141602,-53.34351,-23.366413,-16.045801,10
405,-0.11590576,-0.037353516,0.0048217773,-46.06107,-24.259542,-15.59542,10
406,-0.11401367,-0.040161133,-0.018615723,-40.633587,-22.412214,-14.129771,10
407,-0.11804199,-0.03869629,-0.03125,-38.076336,-19.435114,-11.564885,10
408,-0.1149292,-0.03955078,-0.003479004,-31.42748,-16.969465,-10.519084,10
409,-0.12158203,-0.03967285,0.0037841797,-25.61832,-15.244275,-9.511451,10
410,-0.115234375,-0.041137695,-0.0045166016,-24.862595,-14.709924,-9.106871,10
411,-0.11828613,-0.040100098,0.0007324219,-21.664122,-14.725191,-8.923664,10
412,-0.12054443,-0.0413208,0.010375977,-17.19084,-14.21374,-8.824428,10
413,-0.11907959,-0.03729248,0.012329102,-12.450381,-12.473283,-8.923664,10
414,-0.117370605,-0.0357666,0.014526367,-11.59542,-15.442748,-8.465649,10
415,-0.11627197,-0.04107666,0.022827148,-14.4198475,-16.419847,-7.2442746,10
416,-0.1116333,-0.041137695,0.027282715,-19.89313,-15.793893,-7.5419846,10
417,-0.10797119,-0.042053223,0.035827637,-27.404581,-14.175572,-7.1297708,10
418,-0.11431885,-0.04284668,0.043151855,-39.221375,-16.541985,-8.106871,10
419,-0.11236572,-0.040100098,0.026794434,-44.625954,-12.061069,-7.4885497,10
420,-0.113708496,-0.03564453,0.014160156,-42.38168,-6.0610685,-4.1755724,10
421,-0.11810303,-0.038391113,0.04272461,-40.48855,-3.4503818,-3.4503818,10
422,-0.11566162,-0.04046631,0.039367676,-35.717556,-1.6870229,-1.389313,10
423,-0.11932373,-0.03942871,0.006286621,-26.656488,4.3053436,1.9923664,10
424,-0.11645508,-0.034240723,-0.011657715,-15.557252,13.4198475,2.6259542,10
425,-0.11743164,-0.035583496,0.057617188,-6.9389315,17.549618,2.4732823,10
426,-0.117126465,-0.0357666,0.0063476562,-0.9847328,14.603053,0.22900763,10
427,-0.12225342,-0.04107666,0.059814453,0.007633588,15.290076,0.46564886,10
428,-0.1296997,-0.041381836,0.023925781,2.5496182,16.358778,2.6259542,10
429,-0.12792969,-0.033935547,0.070007324,10.526717,17.74809,-0.20610687,10
430,-0.122802734,-0.03765869,0.039367676,16.198473,19.633587,-0.66412216,10
431,-0.114990234,-0.038635254,0.011352539,12.183207,15.152672,-4.068702,10
432,-0.10882568,-0.036010742,0.06048584,8.274809,10.603053,-6.8244276,10
433,-0.10406494,-0.033813477,0.07672119,0.35114503,4.6106873,-10.877863,10
434,-0.107666016,-0.044311523,0.043823242,-14.847328,-1.2748091,-14.129771,10
435,-0.11016846,-0.040039062,0.022460938,-32.572517,-6.9007635,-18.977098,10
436,-0.112854004,-0.040771484,0.03515625,-43.46565,-7.5419846,-22.76336,10
437,-0.1184082,-0.03704834,0.017700195,-47.091602,-5.19084,-22.801527,10
438,-0.11456299,-0.03564453,0.04815674,-52.053436,-1.6030535,-24.198473,10
439,-0.11468506,-0.033996582,0.04473877,-54.129772,-0.6946565,-24.305344,10
440,-0.11236572,-0.03326416,0.02166748,-50.27481,3.4732823,-28.374046,10
441,-0.11602783,-0.030639648,0.0032958984,-43.59542,5.2671757,-25.450382,10
442,-0.117492676,-0.032836914,0.036010742,-34.93893,7.5496182,-24.244274,10
443,-0.111694336,-0.030944824,0.00793457,-27.770992,8.679389,-22.862595,10
444,-0.111206055,-0.027832031,0.042053223,-21.87023,5.1984735,-21.519083,10
445,-0.11071777,-0.02758789,0.047302246,-14.145039,5.29771,-17.610687,10
446,-0.10479736,-0.03363037,0.040161133,-12.114504,6.2290077,-15.305344,10
447,-0.110961914,-0.034301758,0.035949707,-14.793893,4.442748,-12.328244,10
448,-0.11102295,-0.034423828,0.04559326,-19.557251,3.8854961,-14.076336,10
449,-0.107666016,-0.03253174,0.0335083,-23.694656,3.0229008,-10.488549,10
450,-0.109069824,-0.03277588,0.06329346,-23.183207,2.6183207,-8.442748,10
451,-0.109436035,-0.034851074,0.018737793,-22.389313,2.9389312,-5.6870227,10
452,-0.11419678,-0.03265381,0.0713501,-16.312977,4.2137403,-3.4122138,10
453,-0.11248779,-0.029174805,0.03302002,-12.78626,3.6946564,-2.2900763,10
454,-0.11291504,-0.028320312,0.056274414,-4.664122,6,0.7251908,10
455,-0.111572266,-0.033691406,0.028747559,5.7099237,8.564885,3.5877862,10
456,-0.113342285,-0.03515625,0.047973633,7.6030536,6.4656487,4.3206105,10
457,-0.1126709,-0.03137207,-0.009887695,9.427481,6.9083967,5.847328,10
458,-0.10925293,-0.032592773,0.058898926,14.251908,9.7786255,9.435115,10
459,-0.10986328,-0.03173828,0.05706787,16.885496,11.236641,9.557252,10
460,-0.105163574,-0.035461426,0.047851562,8.9007635,4.6030536,12.045801,10
461,-0.109558105,-0.03186035,0.03930664,4.4961834,5.0610685,11.984733,10
462,-0.10797119,-0.0289917,0.05053711,10.442748,8.7786255,14.702291,10
463,-0.1048584,-0.037353516,0.026000977,10.671756,8.709924,16.32061,10
464,-0.11187744,-0.032348633,0.05529785,2.870229,5.0076337,15.977099,10
465,-0.107299805,-0.030700684,0.0602417,5.5038166,4.2900763,19.244274,10
466,-0.11303711,-0.03466797,0.034973145,6.8778625,6.7175574,16.541985,10
467,-0.107421875,-0.035705566,0.030578613,6.6030536,5.0534353,15.473283,10
468,-0.11584473,-0.028625488,0.009765625,6.1374044,3.961832,12.679389,10
469,-0.10925293,-0.03363037,0.046936035,2.8015268,3.3587787,9.389313,10
470,-0.10986328,-0.02746582,0.03540039,5.5038166,5.374046,7.6488547,10
471,-0.11126709,-0.020141602,0.02557373,21.473282,11.427481,7.6030536,10
472,-0.109558105,-0.030761719,-0.068603516,39.366413,15.877863,8.229008,10
473,-0.10736084,-0.04034424,0.045532227,39,15.824428,0.6870229,10
474,-0.103515625,-0.04071045,0.05218506,12.343512,9.702291,-5.664122,10
475,-0.103271484,-0.03857422,0.057739258,-9.9007635,1.9694656,-9.870229,10
476,-0.10253906,-0.028808594,0.04937744,-19.984734,-1.389313,-12.732824,10
477,-0.1005249,-0.03704834,0.06311035,-24.48855,0.045801528,-12.480916,10
478,-0.111450195,-0.029174805,0.02709961,-29.435114,-7.19084,-9.412213,10
479,-0.103393555,-0.02923584,0.047180176,-29.67939,-6.80916,-7.8320613,10
480,-0.10357666,-0.027404785,0.049316406,-19.656488,-0.5038168,-5.59542,10
481,-0.103027344,-0.032043457,-0.03173828,-11.38168,-2.5038168,-3.4198472,10
482,-0.10772705,-0.030334473,0.016845703,-12.412213,-11.702291,-2.9541984,10
483,-0.106933594,-0.023864746,0.049560547,-12.603053,-5.885496,-3.038168,10
484,-0.10247803,-0.024475098,0.040283203,-2.389313,0.740458,1.0305344,10
485,-0.09667969,-0.025756836,0.0107421875,6.6106873,-0.9236641,0.8167939,10
486,-0.095703125,-0.031066895,0.06530762,-1.740458,-4.9160304,1.2671756,10
487,-0.10119629,-0.035827637,0.034362793,-13.992367,-4.5725193,2.6183207,10
488,-0.10107422,-0.042114258,0.02545166,-21.946566,-1.4198474,6.587786,10
489,-0.10266113,-0.038757324,0.004272461,-28.694656,-0.45801526,5.3206105,10
490,-0.1015625,-0.035705566,0.06512451,-32.954197,-0.40458015,9.022901,10
491,-0.101135254,-0.0357666,0.043640137,-40.267174,-2.59542,6.587786,10
492,-0.10290527,-0.029052734,0.004272461,-42.862595,-3.335878,3.7557251,10
493,-0.10461426,-0.03363037,0.037475586,-41.870228,-3.0152671,-2.29771,10
494,-0.10443115,-0.033569336,0.078063965,-39.183205,-0.9465649,-11.022901,10
495,-0.10583496,-0.03137207,0.048706055,-34.14504,-1.6793894,-15.114504,10
496,-0.107788086,-0.026916504,0.055908203,-26.70229,-4.5419846,-22.328245,10
497,-0.11126709,-0.0357666,0.08081055,-24.969465,-5.0458016,-28.244274,10
498,-0.1204834,-0.03149414,0.06774902,-22.06107,-10.541985,-31.57252,10
499,-0.1217041,-0.03503418,0.058288574,-20.25191,-12.389313,-36.17557,10
500,-0.117004395,-0.03881836,0.018920898,-13.801527,-2.832061,-42.351147,10
501,-0.109436035,-0.032592773,0.07299805,-11.610687,-1.4503816,-50.519085,10
502,-0.10430908,-0.030578613,0.060668945,-16.549618,-4.6793895,-51.282444,10
503,-0.10736084,-0.028625488,0.06762695,-17.862595,-3.0458016,-58.21374,10
504,-0.11376953,-0.034423828,0.10357666,-21.877863,-7.0305343,-58.267174,10
505,-0.12023926,-0.032470703,0.10437012,-27.19084,-9.488549,-50.06107,10
506,-0.11999512,-0.03363037,0.053222656,-26.076336,-4.587786,-44.908398,10
507,-0.124572754,-0.034118652,0.07495117,-17.328245,2.4122138,-40.48855,10
508,-0.11578369,-0.04083252,0.061767578,-5.4961834,4.7633586,-35.267174,10
509,-0.119018555,-0.03540039,0.11425781,-5.3511453,2.038168,-35.48855,10
510,-0.105041504,-0.03338623,0.05407715,-12.625955,-1.4351145,-38.16794,10
511,-0.09643555,-0.02911377,0.093933105,-21.885496,-1.3587786,-38.52672,10
512,-0.09765625,-0.034606934,0.10668945,-32.572517,-10.251908,-39.946564,10
513,-0.10321045,-0.034423828,0.06774902,-38.984734,-21.633587,-35.16794,10
514,-0.11315918,-0.038513184,0.091552734,-43.82443,-19.900763,-28.93893,10
515,-0.11047363,-0.035461426,0.08343506,-48.587788,-12.015267,-16.885496,10
516,-0.11401367,-0.036376953,0.08215332,-46.671757,-11.2213745,-7.961832,10
517,-0.11175537,-0.033996582,0.0848999,-27.206106,-11.045801,-0.90839696,10
518,-0.10687256,-0.037902832,0.037902832,-21.557251,-9.0992365,8.7404585,10
519,-0.09979248,-0.032287598,0.046325684,-17.587786,-5.557252,12.328244,10
520,-0.09954834,-0.035095215,0.083740234,-10.0992365,-8.480916,15.396947,10
521,-0.09906006,-0.033447266,0.06750488,-0.32824427,-11.572519,12.488549,10
522,-0.10369873,-0.028930664,0.072021484,6.8778625,-11.511451,15.748092,10
523,-0.10559082,-0.033935547,0.10473633,5.923664,-11.015267,15.78626,10
524,-0.10455322,-0.03930664,0.114868164,6.0610685,-13.893129,18.404581,10
525,-0.105895996,-0.037353516,0.0715332,11.145039,-12.969465,22.786259,10
526,-0.107055664,-0.03765869,0.08874512,13.251908,-7.6106873,28.74809,10
527,-0.10620117,-0.044921875,0.04626465,11.534351,-9.534351,32.335876,10
528,-0.10797119,-0.03881836,0.10412598,9.38168,-11.328244,31.045801,10
529,-0.10772705,-0.038330078,0.07672119,7.5038166,-10.450381,32.40458,10
530,-0.109313965,-0.042114258,0.08709717,6.7251906,-10.458015,30.267176,10
531,-0.10809326,-0.040405273,0.091308594,5.1679387,-10.076336,26.564886,10
532,-0.1104126,-0.040649414,0.06097412,5.9160304,-8.328244,23.76336,10
533,-0.10772705,-0.037353516,0.06530762,9.954199,-7.3129773,20.954199,10
534,-0.11114502,-0.043945312,0.060913086,12.122137,-9.305344,18.755726,10
535,-0.11450195,-0.03857422,0.066467285,17.67939,-6.4885497,17.396946,10
536,-0.117248535,-0.036315918,0.08087158,22.541985,-2.3587787,16.671755,10
537,-0.11053467,-0.03289795,-0.045715332,21.67939,-1.1526718,19.984734,10
538,-0.12005615,-0.03778076,0.032409668,26.282442,0.64122134,16.992367,10
539,-0.11315918,-0.03643799,0.07092285,30.923664,5.0076337,18.496183,10
540,-0.12347412,-0.034179688,0.07513428,39.10687,5.0152674,19.32061,10
541,-0.13476562,-0.042785645,0.028259277,45.564884,1.5725191,24.290077,10
542,-0.13305664,-0.038757324,0.09307861,49.748093,10.78626,21.42748,10
543,-0.13140869,-0.02935791,0.06512451,69.740456,16.221375,22.839695,10
544,-0.11291504,-0.03375244,0.068237305,77.496185,16.91603,19.419847,10
545,-0.09875488,-0.037902832,0.093444824,84.175575,25.480917,10.343512,10
546,-0.086364746,-0.028686523,-0.012207031,82,28.969465,4.9465647,10
547,-0.08959961,-0.034057617,0.11175537,72.64886,15.793893,2.908397,10
548,-0.103637695,-0.0413208,0.10760498,46.40458,-0.9236641,1.29771,10
549,-0.11627197,-0.04675293,0.09466553,18.984734,0.6183206,-4.10687,10
550,-0.11071777,-0.040100098,0.036499023,-0.71755725,16.923664,-13.870229,10
551,-0.11529541,-0.039611816,0.08648682,-13.977099,23.93893,-22.93893,10
552,-0.11383057,-0.037597656,0.08758545,-26.045801,9.679389,-32.93893,10
553,-0.12640381,-0.03552246,0.08270264,-47.709923,4.480916,-39.160305,10
554,-0.11816406,-0.035827637,0.050720215,-52.190838,11.732824,-42.15267,10
555,-0.1116333,-0.029968262,0.0579834,-45.687023,8.671756,-44.732826,10
556,-0.10650635,-0.024536133,0.09210205,-42.114502,-0.10687023,-50.32061,10
557,-0.10784912,-0.028320312,0.0037231445,-35.458015,-0.740458,-46.21374,10
558,-0.10040283,-0.03186035,0.11071777,-31.32061,2.7709923,-43.374046,10
559,-0.09967041,-0.027954102,0.07940674,-27.053434,-4.1297708,-39.954197,10
560,-0.09509277,-0.030456543,0.12530518,-30.404581,-9.931297,-29.786259,10
561,-0.1026001,-0.03704834,0.08111572,-37.67939,-12.076336,-23.694656,10
562,-0.10266113,-0.035705566,0.099731445,-42.15267,-10.992367,-19.725191,10
563,-0.094177246,-0.035217285,0.07458496,-49.931297,-17.48855,-21.145039,10
564,-0.089782715,-0.03338623,0.0769043,-61.732826,-24.709923,-19.862595,10
565,-0.10235596,-0.032348633,0.032287598,-69.83969,-31.862595,-16.366413,10
566,-0.11633301,-0.033996582,0.11004639,-74.96947,-39.312977,-12.297709,10
567,-0.1281128,-0.032958984,0.09008789,-72.12977,-33.778625,-7.1221375,10
568,-0.14886475,-0.03643799,0.051452637,-61.74046,-34.366413,1.5038168,10
569,-0.13409424,-0.034423828,0.0871582,-52.47328,-14.389313,-6.1221375,10
570,-0.12615967,-0.029174805,0.03540039,-36.23664,11.068703,-15.763359,10
571,-0.10192871,-0.020080566,0.08532715,-11.549619,10.022901,-24.435114,10
572,-0.10229492,-0.022155762,0.11047363,-6.374046,-15.954199,-29.404581,10
573,-0.10644531,-0.02960205,0.10241699,-8,-22.67939,-27.824427,10
574,-0.10211182,-0.030761719,0.105163574,-3.1374047,-6.259542,-28.923664,10
575,-0.11029053,-0.028198242,0.07476807,5.2442746,-2.7480917,-27.183207,10
576,-0.1104126,-0.032714844,0.1005249,11.7786255,-25.198473,-24.564886,10
577,-0.1159668,-0.038269043,0.115600586,9.251908,-13.572519,-21.267176,10
578,-0.12121582,-0.041137695,0.10443115,-3.6946564,-7.6793895,-12.725191,10
579,-0.12237549,-0.042053223,0.06628418,-21.473282,-16.076336,-4.4503818,10
580,-0.12805176,-0.04107666,0.08984375,-28.57252,-14.320611,-5.19084,10
581,-0.12164307,-0.037475586,0.1081543,-29.839695,4.366412,-10.076336,10
582,-0.10479736,-0.036132812,0.10040283,-33.374046,7.4274807,-15.38168,10
583,-0.09588623,-0.026306152,0.08215332,-42.480915,-10.572519,-19.91603,10
584,-0.0982666,-0.027404785,0.0087890625,-42.89313,-20.89313,-19.832062,10
585,-0.10467529,-0.021606445,0.12298584,-31.580153,-12.137404,-10.671756,10
586,-0.107299805,-0.02947998,0.017456055,-16.51145,-7.114504,-6.633588,10
587,-0.111328125,-0.033996582,0.09094238,-8.641221,-7.9389315,0.86259544,10
588,-0.11206055,-0.031433105,0.082336426,4.4274807,0.77862597,4.923664,10
589,-0.103393555,-0.031188965,0.08416748,14.396947,12.893129,9.427481,10
590,-0.10321045,-0.034057617,0.092041016,15.076336,12.007633,16.458015,10
591,-0.11602783,-0.035949707,0.08294678,15.19084,6.3893127,23.183207,10
592,-0.12615967,-0.03540039,0.09057617,21.526718,16.656488,26.259542,10
593,-0.1217041,-0.024353027,-0.030151367,34.801525,33.32061,26.770992,10
594,-0.13549805,-0.027954102,0.10266113,56.580154,20.740458,30.12977,10
595,-0.15301514,-0.040893555,0.11602783,57.44275,0.19847329,37.068703,10
596,-0.15509033,-0.043701172,0.06329346,69.12214,15.343512,40.06107,10
597,-0.13653564,-0.03753662,0.010070801,91.41222,34.84733,39.755726,10
598,-0.105285645,-0.027038574,0.053833008,107.34351,46.931297,24.580153,10
599,-0.08557129,-0.022766113,0.0014038086,120.47328,42.748093,19.76336,10
600,-0.074035645,-0.018371582,0.04095459,112.740456,19.977098,16.351145,10
601,-0.080444336,-0.025146484,0.080078125,81.80916,9.694656,14.832061,10
602,-0.10070801,-0.035095215,-0.017028809,54.954197,-6.259542,21.068703,10
603,-0.11846924,-0.03253174,0.10925293,44.778625,-14.152672,8.2595415,10
604,-0.13226318,-0.023864746,0.0036621094,52.335876,0.54198474,7.5725193,10
605,-0.13171387,-0.03363037,0.07086182,51.282444,11.251908,13.396947,10
606,-0.12731934,-0.039855957,0.040649414,36.282444,8.816793,13.236641,10
607,-0.109680176,-0.034240723,0.0579834,21.114504,7.068702,9.274809,10
608,-0.0993042,-0.017700195,-0.028625488,11.694656,0.8167939,5.6946564,10
609,-0.09777832,-0.027404785,-0.011230469,10.167939,-7.0152674,6.0916033,10
610,-0.09320068,-0.02709961,0.061157227,11.198473,-10.2213745,9.2595415,10
611,-0.10131836,-0.02355957,-0.034973145,7.0916033,-10.687023,18.587786,10
612,-0.109802246,-0.022216797,0.12225342,21.541985,-7.9465647,29.244274,10
613,-0.105407715,-0.031555176,0.059448242,26.389313,-8.114504,33.068703,10
614,-0.105407715,-0.031677246,0.11230469,12.129771,-6.7557254,28.931297,10
615,-0.12762451,-0.034484863,0.014465332,-0.2519084,-10.236641,25.91603,10
616,-0.12701416,-0.0345459,0.123291016,-10.480916,-13.916031,16.923664,10
617,-0.12445068,-0.0178833,0.08947754,0.8854962,-11.290076,7.0916033,10
618,-0.15740967,-0.028015137,0.083618164,14.160305,-18.732824,10.656488,10
619,-0.14916992,-0.037475586,0.019897461,16.862595,-12.480916,6.5038166,10
620,-0.12670898,-0.025939941,0.036499023,9.328244,31.114504,2.4580152,10
621,-0.10040283,-0.0030517578,-0.005004883,36.29771,49.992367,-5.1603055,10
622,-0.09857178,-0.0059814453,0.040161133,64.96183,29.229008,-13.541985,10
623,-0.107666016,-0.012939453,0.035339355,68.854965,-1.3358779,-6.412214,10
624,-0.1081543,-0.021118164,-0.0115356445,53.923664,14.106871,-15.022901,10
625,-0.1038208,-0.010803223,0.101989746,65.94656,47.312977,-12.458015,10
626,-0.1159668,-0.019836426,0.07208252,96.20611,28.290077,-11.610687,10
627,-0.12445068,-0.037902832,0.083618164,97.580154,2.0458016,-9.274809,10
628,-0.1385498,-0.044799805,0.09008789,57.427483,18.396946,-3.70229,10
629,-0.1348877,-0.038146973,0.018249512,16.557251,41.541985,-7.6564884,10
630,-0.11828613,-0.02746582,0.028686523,27.29771,41.35878,-10.053435,10
631,-0.11224365,-0.030822754,0.008544922,36.603054,20.587786,-11.801527,10
632,-0.10797119,-0.03668213,0.0014038086,18.541985,13.992367,-11.320611,10
633,-0.105651855,-0.033569336,0.014587402,0.5954198,27.114504,-8.702291,10
634,-0.09637451,-0.02911377,0.03753662,3.4351146,16.580153,-8.938931,10
635,-0.10290527,-0.027526855,0.0513916,16.305344,1.1145039,-6.2290077,10
636,-0.10784912,-0.029663086,0.04815674,22.091602,-2.3740458,-0.14503817,10
637,-0.10852051,-0.0413208,0.020996094,17.267176,4.3893127,9.503817,10
638,-0.109802246,-0.04168701,0.023498535,6.9389315,6.10687,12.267176,10
639,-0.10949707,-0.036010742,0.009216309,3.8931298,1.70229,14.290076,10
640,-0.115234375,-0.034729004,0.01361084,5.10687,-0.79389316,20.32061,10
641,-0.12548828,-0.038146973,0.08605957,-0.78625953,5.29771,22.557251,10
642,-0.11981201,-0.032836914,-0.0005493164,-7.1221375,10.557252,26.099237,10
643,-0.11468506,-0.031555176,0.08685303,-2.4961832,10.732824,23.625954,10
644,-0.12310791,-0.03363037,-0.0017700195,2.40458,-4.1679387,30.946566,10
645,-0.12634277,-0.043640137,0.021606445,7.4732823,-6.7099237,33.748093,10
646,-0.11791992,-0.036254883,-0.030517578,6.4885497,1.5419847,30.137405,10
647,-0.10333252,-0.024780273,-0.011962891,31.10687,22.832062,28.38168,10
648,-0.10394287,-0.029968262,-0.0040283203,41.44275,3.3969467,30.862595,10
649,-0.110961914,-0.03173828,-0.0032958984,34.290077,-18.450382,28.603054,10
650,-0.115234375,-0.02935791,-0.020507812,37.694656,-9.564885,30.557251,10
651,-0.11437988,-0.03375244,0.02935791,43.374046,3.0687022,29.709923,10
652,-0.111816406,-0.036987305,0.0119018555,40.93893,-4.8778625,28.038168,10
653,-0.11846924,-0.030456543,0.023132324,42.412212,-12.648855,24.465649,10
654,-0.11419678,-0.037841797,0.02331543,30.366413,-10.053435,21.580153,10
655,-0.11462402,-0.038757324,-0.013244629,10.916031,-13.038168,18.496183,10
656,-0.12176514,-0.035583496,0.008605957,-10.458015,-19.923664,11.694656,10
657,-0.11242676,-0.03692627,0.031982422,-28.145039,-16.648855,2.6183207,10
658,-0.11993408,-0.02368164,0.019592285,-42.9771,-14.450381,-9.793893,10
659,-0.11352539,-0.022705078,0.016296387,-49.519085,-21.648855,-18.442749,10
660,-0.121398926,-0.018005371,-0.013977051,-51.93893,-26.664122,-21.206106,10
661,-0.12188721,-0.018188477,0.028198242,-59.244274,-24.503817,-24.931297,10
662,-0.11505127,-0.013000488,-0.01940918,-55.396946,-19.564886,-28.099237,10
663,-0.1182251,-0.0154418945,-0.010253906,-45.862595,-19.740458,-29.389313,10
664,-0.10864258,-0.0234375,-0.002380371,-45.79389,-24.61832,-30.709923,10
665,-0.11230469,-0.02355957,0.008911133,-51.778625,-22.198473,-30.213741,10
666,-0.11541748,-0.025024414,0.015686035,-60.839695,-15.458015,-31.847328,10
667,-0.1126709,-0.028198242,-0.0057373047,-68.89313,-13.839695,-27.282442,10
668,-0.11791992,-0.029785156,0.008605957,-80.183205,-17.23664,-24.877863,10
669,-0.1217041,-0.023803711,-0.007873535,-87.64122,-17.267176,-22.442749,10
670,-0.12347412,-0.035339355,-0.009399414,-90.618324,-2.1526718,-19.625954,10
671,-0.11853027,-0.030273438,0.019470215,-97.84733,-3.1603053,-19.114504,10
672,-0.11682129,-0.02923584,0.033935547,-97.40458,-8.961832,-18.76336,10
673,-0.115112305,-0.032165527,0.029418945,-101.9542,-7.4885497,-18.580153,10
674,-0.11431885,-0.029968262,0.0013427734,-98.80916,1.1603054,-18.832062,10
675,-0.109069824,-0.026550293,0.016540527,-89.770996,-6.2442746,-18.76336,10
676,-0.107788086,-0.030456543,-0.01751709,-87.51145,-11.793893,-18.137405,10
677,-0.11566162,-0.028564453,-0.015625,-89.770996,-17.282442,-14.839695,10
678,-0.12835693,-0.03564453,-0.009887695,-90.9542,-17.06107,-16.595419,10
679,-0.13824463,-0.02758789,0.044128418,-84.01527,-13.755725,-16.404581,10
680,-0.14263916,-0.03564453,0.0015869141,-85.96183,-11.725191,-19.87023,10
681,-0.13720703,-0.038146973,0.045288086,-95.9542,-10.793893,-25.374046,10
682,-0.12207031,-0.03387451,0.012145996,-109.42748,-14.526717,-31.358778,10
683,-0.11730957,-0.033325195,0.009399414,-119.70229,-15,-30.19084,10
684,-0.11279297,-0.032592773,0.02368164,-118.60305,-18.48855,-33.007633,10
685,-0.11254883,-0.034973145,0.010803223,-124.23664,-14,-31.358778,10
686,-0.11437988,-0.028442383,0.03479004,-133.35878,-15.160305,-30.343512,10
687,-0.11102295,-0.026306152,0.024108887,-127.65649,-17.259542,-30.396946,10
688,-0.11767578,-0.03479004,0.022583008,-118.37405,-16.022902,-29.08397,10
689,-0.11260986,-0.038146973,0.015563965,-127.67939,-17.526718,-28.76336,10
690,-0.11859131,-0.034973145,0.027526855,-139.09924,-22.152672,-31.08397,10
691,-0.115478516,-0.028076172,0.005126953,-138.70229,-18.206106,-36.816795,10
692,-0.119262695,-0.026123047,0.03100586,-129.89313,-11.587787,-42.40458,10
693,-0.12042236,-0.026611328,0.009338379,-120.816795,-14.709924,-41.770992,10
694,-0.12225342,-0.028686523,-0.005065918,-115.21374,-16.984734,-39.748093,10
695,-0.12408447,-0.032592773,0.017700195,-100.061066,-12.984733,-37.78626,10
696,-0.12243652,-0.036315918,0.008422852,-83.24428,-9.725191,-34.06107,10
697,-0.12408447,-0.03466797,0.024597168,-74.229004,-12.770992,-35.412212,10
698,-0.122680664,-0.042236328,-0.0038452148,-67.175575,-19.160305,-39.221375,10
699,-0.11584473,-0.032165527,0.042907715,-74.62595,-10.839695,-43.198475,10
700,-0.11065674,-0.036987305,0.0045166016,-72.68702,-12.839695,-43.030533,10
701,-0.10839844,-0.03253174,-0.0006713867,-65.54962,-23.404581,-40.244274,10
702,-0.11364746,-0.034484863,0.006958008,-60.49618,-19.648855,-38.099236,10
703,-0.117004395,-0.037719727,-0.012268066,-53.229008,-13.564885,-30.992367,10
704,-0.10949707,-0.04083252,-0.0071411133,-52.801525,-8.946565,-23.839695,10
705,-0.10803223,-0.038635254,0.0040283203,-57.267174,-8.473283,-23.396946,10
706,-0.109802246,-0.04119873,-0.0067749023,-67.183205,-11.274809,-24.656488,10
707,-0.12207031,-0.039245605,0.008728027,-75.862595,-12.7404585,-20.908398,10
708,-0.14117432,-0.041015625,0.013000488,-76.40458,-12.206107,-16.80916,10
709,-0.1383667,-0.044799805,0.0095825195,-71.0229,-3.3664122,-13.183207,10
710,-0.11633301,-0.044433594,0.0048217773,-73.770996,13.832061,-22.007633,10
711,-0.109191895,-0.02960205,-0.024841309,-71.94656,10.7404585,-29.900763,10
712,-0.11004639,-0.032470703,0.020568848,-63.27481,-0.8015267,-32.38168,10
713,-0.11187744,-0.040039062,-0.015625,-70.59542,-3.3664122,-36.72519,10
714,-0.12188721,-0.043029785,0.008422852,-90.56489,-1.1068702,-35.20611,10
715,-0.12011719,-0.042907715,-0.02368164,-102.80916,-4.3816795,-42.51145,10
716,-0.10626221,-0.02557373,-0.0045166016,-92.740456,0.22137405,-46.290077,10
717,-0.113098145,-0.026184082,-0.03515625,-74.76336,2.8931298,-43.458015,10
718,-0.110839844,-0.030700684,-0.013671875,-79.08397,-3.6030533,-43.549618,10
719,-0.109680176,-0.028808594,-0.020324707,-81.31298,-10.236641,-35.717556,10
720,-0.109436035,-0.03643799,-0.020996094,-76.79389,-9.519084,-28.091602,10
721,-0.11254883,-0.035217285,-0.037109375,-75.770996,-10.61832,-26.595419,10
722,-0.11279297,-0.0345459,-0.02911377,-80.8855,-16.70229,-27.801527,10
723,-0.111694336,-0.036865234,0.0001220703,-89.419846,-16.786259,-28.305344,10
724,-0.10986328,-0.0335083,-0.036193848,-94.03817,-21.343512,-27.70229,10
725,-0.10595703,-0.03643799,-0.028808594,-97.76336,-25.160305,-30.152672,10
726,-0.10644531,-0.030578613,0.00390625,-106.10687,-34.46565,-33.549618,10
727,-0.10900879,-0.023498535,0.009338379,-103.73283,-37.78626,-34.20611,10
728,-0.1083374,-0.026000977,0.0006713867,-97.79389,-32.870228,-31.770992,10
729,-0.11273193,-0.025146484,-0.019348145,-91.19847,-30.954199,-29.206106,10
730,-0.113464355,-0.02758789,-0.018188477,-87.05344,-33.839695,-30.152672,10
731,-0.11187744,-0.020141602,0.0076904297,-80.12977,-32.15267,-28.198473,10
732,-0.1159668,-0.019897461,-0.006225586,-75.52672,-30.648855,-27.832062,10
733,-0.11480713,-0.024536133,-0.00592041,-73.24428,-30.832062,-30.717558,10
734,-0.12060547,-0.028686523,-0.01977539,-75.34351,-39.21374,-32.946564,10
735,-0.11584473,-0.024658203,-0.02545166,-88.1145,-43.46565,-37.85496,10
736,-0.13201904,-0.03338623,-0.014038086,-96.70992,-48.20611,-40.312977,10
737,-0.13916016,-0.036254883,-0.010498047,-113.92367,-56.961834,-43.20611,10
738,-0.124938965,-0.030578613,-0.015197754,-119.64122,-42.015266,-44.633587,10
739,-0.10870361,-0.023071289,-0.015380859,-110.84733,-20.954199,-49.190838,10
740,-0.11010742,-0.026000977,-0.009521484,-113.52672,-28.946566,-46.709923,10
741,-0.10723877,-0.018066406,-0.0211792,-118.900764,-46.89313,-40.23664,10
742,-0.12030029,-0.027282715,-0.0064086914,-112.48092,-34.931297,-35.053436,10
743,-0.12310791,-0.023254395,-0.007385254,-105.9542,-20.358778,-26.816793,10
744,-0.12408447,-0.022766113,-0.0045166016,-89.816795,-20.274809,-20.48855,10
745,-0.12451172,-0.02154541,-0.0059814453,-70.824425,-18.396946,-12.862596,10
746,-0.120788574,-0.01763916,-0.011230469,-49.137405,-12.603053,-6.4656487,10
747,-0.12524414,-0.027832031,-0.013305664,-37.839695,-14.4198475,-0.8778626,10
748,-0.119628906,-0.0256958,-0.018493652,-39.541985,-20.977098,1.1450381,10
749,-0.11785889,-0.028076172,-0.018981934,-29.74809,-17.068703,2.778626,10
750,-0.113098145,-0.028259277,-0.021728516,-22.244274,-13.030535,3.5877862,10
751,-0.10864258,-0.033081055,-0.005126953,-28.931297,-17.778625,3.832061,10
752,-0.11505127,-0.029174805,-0.0034179688,-35.687023,-22.664122,1.351145,10
753,-0.11834717,-0.027648926,-0.020263672,-37.946564,-18.984734,1.4274809,10
754,-0.11273193,-0.029663086,0.0003051758,-38.610687,-16.175573,1.351145,10
755,-0.117492676,-0.030822754,-0.016784668,-46.816795,-11.412213,-6.8244276,10
756,-0.11187744,-0.025817871,-0.014038086,-42.50382,-1.8015267,-8.412213,10
757,-0.110961914,-0.01159668,0.021850586,-27.335878,9.725191,-13.732824,10
758,-0.12945557,-0.012878418,0.014953613,-16.458015,-4.740458,-9.21374,10
759,-0.15698242,-0.020690918,-0.018554688,-11.068703,-16.068703,-5.3129773,10
760,-0.14752197,-0.029418945,-0.011657715,1.740458,4.9541984,-6.9770994,10
761,-0.13421631,-0.02355957,-0.015319824,35.59542,38.267174,-14.648855,10
762,-0.107543945,-0.025939941,-0.008911133,43.045803,27.93893,-15.106871,10
763,-0.101501465,-0.036010742,-0.003967285,15.38168,-10.671756,-22.923664,10
764,-0.11456299,-0.04107666,-0.02520752,-21.030535,-19.015266,-26.664122,10
765,-0.12084961,-0.03363037,-0.0041503906,-28.419847,-3.0992367,-31.358778,10
766,-0.12609863,-0.038635254,-0.03491211,-4.3435116,9.870229,-47.50382,10
767,-0.12908936,-0.043762207,0.0010986328,18.160305,10.664123,-58.251907,10
768,-0.12762451,-0.06964111,-0.02557373,20.541985,18.801527,-67.419846,10
769,-0.13470459,-0.07159424,-0.018066406,-9.503817,19.29771,-100.770996,10
770,-0.13067627,-0.0569458,-0.027282715,-29.725191,16.23664,-109.1145,10
771,-0.13006592,-0.06774902,0.0076293945,-22.541985,28.465649,-122.381676,10
772,-0.12243652,-0.086364746,-0.025268555,-64.92367,34.412212,-135.29771,10
773,-0.11785889,-0.07519531,-0.018554688,-131.29771,32.160305,-142.91603,10
774,-0.109313965,-0.061950684,-0.058410645,-131.67175,42.29771,-146.14503,10
775,-0.10430908,-0.055786133,-0.05255127,-84.458015,66.76336,-142.60306,10
776,-0.089660645,-0.068359375,-0.05999756,-64.259544,77.91603,-134.70229,10
777,-0.08105469,-0.07110596,-0.038391113,-52.282444,77.99236,-131.23665,10
778,-0.08166504,-0.07470703,-0.06274414,-14.664123,70.259544,-128.19084,10
779,-0.07141113,-0.08306885,-0.060791016,23.76336,67.12214,-128.87022,10
780,-0.06866455,-0.09106445,-0.03387451,27.229008,62,-131.3435,10
781,-0.061767578,-0.09692383,-0.018188477,28.57252,57.450382,-132.70229,10
782,-0.054260254,-0.10083008,-0.047729492,29.89313,31.045801,-149.08397,10
783,-0.040771484,-0.10412598,-0.04949951,-2.3969467,27.038168,-158.83206,10
784,-0.02960205,-0.10888672,-0.054504395,-21.053434,22.89313,-161.43512,10
785,-0.028198242,-0.1003418,-0.046936035,-1.389313,18.305344,-167.16794,10
786,-0.013977051,-0.10229492,-0.06109619,2.389313,13.030535,-172.56488,10
787,-0.010192871,-0.101623535,-0.046142578,-4.2824426,7.633588,-172.22137,10
788,-0.0036010742,-0.094055176,-0.07232666,-3.8091602,10.763359,-168.44275,10
789,0.01171875,-0.09118652,-0.07409668,8.450381,17.778625,-151.59541,10
790,0.014099121,-0.098083496,-0.057128906,21.633587,15.885496,-149.87787,10
791,0.035339355,-0.07348633,-0.06903076,23.10687,14.343512,-145.58015,10
792,0.040222168,-0.074279785,-0.06817627,48.709923,9.755725,-127.65649,10
793,0.039489746,-0.072143555,-0.03955078,56.984734,12.053435,-117.24428,10
794,0.043701172,-0.0769043,-0.04901123,51.87786,4.152672,-114.05344,10
795,0.05419922,-0.08215332,-0.05053711,54.0229,-3.8244274,-106.43511,10
796,0.053466797,-0.10308838,-0.02166748,47.931297,-15.076336,-102.76336,10
797,0.07409668,-0.09667969,-0.03930664,22.480917,-22.89313,-110.33588,10
798,0.0690918,-0.07519531,-0.04534912,-16.541985,-24.450382,-106.03817,10
799,0.06738281,-0.06414795,-0.043884277,-12.40458,-41.351147,-93.73283,10
800,0.07293701,-0.048461914,-0.08129883,-37.91603,-38.412212,-103.23664,10
801,0.075805664,-0.037475586,-0.07928467,9.137404,-20.32061,-55.93893,10
802,0.084350586,-0.037902832,-0.056274414,76.34351,-17.709923,-23.633587,10
803,0.07598877,-0.051086426,-0.024169922,140.87787,-9.7786255,3.5648854,10
804,0.06781006,-0.09692383,-0.028320312,124.618324,-36.83206,18.42748,10
805,0.07080078,-0.09240723,-0.03265381,51.412212,-39.38168,12.534351,10
806,0.072265625,-0.068115234,-0.05102539,6.5343513,-19.786259,14.076336,10
807,0.05657959,-0.058166504,-0.046325684,21.473282,-18.67939,28.358778,10
808,0.050720215,-0.099731445,-0.043640137,56.961834,-9.435115,36.809162,10
809,0.054382324,-0.1161499,-0.039611816,32.816795,3.167939,26.76336,10
810,0.06506348,-0.10827637,-0.036376953,-23.305344,19.458015,10.022901,10
811,0.06549072,-0.09051514,-0.040893555,-41.389313,20.450382,6.9083967,10
812,0.07244873,-0.091308594,-0.020690918,-32.587788,0.2977099,6.5419846,10
813,0.074279785,-0.08258057,-0.0390625,-34.068703,-12.832061,12.282443,10
814,0.08087158,-0.07885742,0.009765625,-32.396946,-11.122137,19.267176,10
815,0.07122803,-0.07385254,-0.034240723,-20.984734,-21.465649,26.595419,10
816,0.07330322,-0.07928467,-0.045654297,2.534351,-60.625954,36.76336,10
817,0.054260254,-0.09918213,-0.03314209,5.183206,-94.52672,9.984733,10
818,0.081848145,-0.08117676,-0.06188965,-21.755726,-74.57252,35.46565,10
819,0.062316895,-0.070495605,-0.07788086,-6.0076337,-66.16031,16.480917,10
820,0.101135254,-0.08325195,-0.087646484,-80.48855,-150.87787,-250.1374,10
821,0.093811035,-0.08111572,-0.110839844,-96.98473,-88.37405,-147.71756,10
822,-0.009155273,-0.08337402,-0.04748535,-33.290077,-45.290077,-49.038166,10
823,0.18762207,0.0076293945,-0.16790771,39.251907,39.045803,47.816795,10
824,0.22998047,0.09979248,-0.22930908,183.3435,179.8855,250.12978,10
825,-0.07977295,-0.20166016,-0.025817871,93.20611,-116.07633,250.12978,10
826,0.028076172,-0.1315918,-0.0692749,40.007633,48.541985,-146.89313,10
827,0.07128906,-0.07879639,-0.03186035,-88.98473,-45.419846,15.374045,10
828,0.031066895,-0.08502197,-0.09625244,-52.61832,51.0229,18.610687,10
829,0.06390381,-0.068481445,-0.043640137,22.442749,14.564885,-32.312977,10
830,0.057128906,-0.083984375,-0.07196045,27.175573,-53.969467,27.595419,10
831,0.047729492,-0.09484863,-0.06427002,0.16793893,-45.129772,-8.625955,10
832,0.04852295,-0.08557129,-0.061157227,-10.694656,-42.251907,3.9312978,10
833,0.03918457,-0.0892334,-0.06036377,-5.7709923,-18.519083,0.8167939,10
834,0.04498291,-0.0793457,-0.057922363,-0.5114504,-11.450381,7.816794,10
835,0.038391113,-0.07861328,-0.07476807,6.8320613,-29.160305,9.557252,10
836,0.03942871,-0.09899902,-0.075805664,30.664122,-39.87786,19.404581,10
837,0.036193848,-0.1116333,-0.057678223,32.839695,-41.099236,13.78626,10
838,0.026794434,-0.11206055,-0.059692383,8.40458,-27.076336,6.480916,10
839,0.03314209,-0.104003906,-0.06628418,2.7328243,-22.213741,3.923664,10
840,0.03265381,-0.09429932,-0.070739746,17.404581,-23.854961,1.6717557,10
841,0.026184082,-0.10253906,-0.0602417,14.938931,-35.290077,-1.648855,10
842,0.036071777,-0.0947876,-0.064575195,5.1221375,-46.160305,-2.7328243,10
843,-0.0029296875,-0.116882324,-0.0635376,6.3129773,-39.099236,-45.870228,10
844,-0.036193848,-0.089660645,-0.0736084,-41.732826,-0.6259542,-167.47328,10
845,0.083984375,-0.07788086,-0.057678223,111.74809,73.580154,-153.33588,10
846,0.034301758,-0.10601807,-0.058044434,124.31298,139.06107,-119.496185,10
847,0.026123047,-0.11907959,-0.017211914,-49.160305,116.45038,104.19084,10
848,0.03277588,-0.10839844,-0.049987793,-74.419846,-28.969465,-46.931297,10
849,0.040649414,-0.057373047,-0.070373535,-24.412214,-126.52672,-38.74046,10
850,0.048461914,-0.07861328,-0.10992432,52.969467,-78.36641,87.10687,10
851,0.03161621,-0.110839844,-0.10284424,21.549618,26.244274,101.099236,10
852,0.039794922,-0.10784912,-0.085510254,54.862595,63.709923,52.778625,10
853,0.051513672,-0.09716797,-0.041931152,97.48855,54.17557,62.015266,10
854,0.049682617,-0.09460449,-0.0647583,146.3435,50.16794,65.45038,10
855,0.04748535,-0.10101318,-0.032104492,112.24428,65.900764,132.54962,10
856,-0.005126953,-0.16204834,-0.034973145,-7.038168,1.6183206,82.00764,10
857,0.036499023,-0.09716797,-0.034362793,-68.52672,39,-0.7251908,10
858,0.03540039,-0.07287598,-0.03857422,-58.53435,-14.106871,42.862595,10
859,0.019836426,-0.07952881,-0.055664062,8.5801525,20.969465,68.9542,10
860,0.0053710938,-0.11065674,-0.03186035,66.87786,32.85496,52.923664,10
861,0.005432129,-0.13293457,-0.035583496,61.51145,59.198475,64.64122,10
862,0.0072631836,-0.12243652,-0.026550293,2.2519083,79.70992,48.10687,10
863,0.0063476562,-0.12097168,-0.008605957,-62.20611,47.55725,47.694656,10
864,0.018127441,-0.10876465,-0.013427734,-87.57252,2.0076337,46.46565,10
865,0.01586914,-0.10076904,-0.055419922,-82.12214,-12.282443,60.045803,10
866,0.008117676,-0.107055664,-0.052734375,-67.099236,-11.770992,69.64886,10
867,0.0012207031,-0.10296631,-0.04284668,-85.62595,0.03816794,70.9542,10
868,-0.0079956055,-0.08929443,-0.050598145,-100.27481,-23.709923,73.12977,10
869,-0.013916016,-0.090026855,-0.05316162,-83.72519,-47.885498,89.89313,10
870,-0.025024414,-0.09295654,-0.06347656,-42.099236,-66,96.27481,10
871,-0.04034424,-0.107666016,-0.05432129,-31.412214,-57.778625,99.091606,10
872,-0.041625977,-0.10253906,-0.008850098,-57.908398,-64.51908,89.824425,10
873,-0.05029297,-0.090270996,-0.05340576,-61.587788,-55.366413,86.31298,10
874,-0.05480957,-0.09033203,-0.06555176,-61.419846,-68.54962,85.0229,10
875,-0.063964844,-0.082092285,-0.072265625,-49.20611,-93.69466,80.496185,10
876,-0.080200195,-0.08099365,-0.06286621,-27.305344,-86.824425,76.68702,10
877,-0.087524414,-0.08862305,-0.08166504,-30.412214,-89.54962,71.70229,10
878,-0.101989746,-0.07940674,-0.074401855,-35.183205,-66.259544,62.9771,10
879,-0.097717285,-0.07977295,-0.061035156,-45.67939,-55.374046,53.251907,10
880,-0.097229004,-0.076538086,-0.07196045,-45.12214,-40.183205,42.885498,10
881,-0.085632324,-0.050720215,-0.08319092,-13.19084,-29.496183,42.64122,10
882,-0.07904053,-0.036315918,-0.10839844,74.91603,19.641222,59.045803,10
883,-0.08099365,-0.080566406,-0.09820557,149.06107,55.351147,61.709923,10
884,-0.07312012,-0.11505127,-0.07409668,109.41222,48.908398,48.007633,10
885,-0.07745361,-0.11273193,-0.051696777,7.8320613,30.145039,32.984734,10
886,-0.0748291,-0.084228516,-0.04272461,-30.374046,13.015267,30.351145,10
887,-0.07421875,-0.08862305,-0.03100586,-7.1374044,13.557252,24.824427,10
888,-0.072021484,-0.095458984,-0.04309082,-6.6183205,7.1603055,18.717558,10
889,-0.07928467,-0.07720947,-0.044799805,-35.038166,-16.534351,18.053434,10
890,-0.0770874,-0.06939697,-0.07043457,-9.175572,-26.183207,22.022902,10
891,-0.076171875,-0.08154297,-0.07080078,21.625954,-12.480916,15.977099,10
892,-0.072509766,-0.08862305,-0.042907715,15.694656,-5.6412215,6.6564884,10
893,-0.08258057,-0.08569336,-0.06286621,-0.36641222,-11.61832,-10.938931,10
894,-0.07086182,-0.07318115,-0.05505371,-10.152672,-2.1603053,-21.42748,10
895,-0.07208252,-0.06762695,-0.07537842,-10.114504,14.045801,-22.541985,10
896,-0.0769043,-0.061035156,-0.046020508,-3.923664,4.2748094,-24.160305,10
897,-0.089904785,-0.057495117,-0.050476074,0.84732825,-5.1374044,-20.412214,10
898,-0.09490967,-0.042419434,-0.052612305,2.534351,-5.664122,-18.282442,10
899,-0.09680176,-0.04449463,-0.041931152,5.854962,-5.5801525,-8.572519,10
900,-0.09106445,-0.049621582,-0.050354004,16.648855,-10.267176,-1.4732825,10
901,-0.09802246,-0.0647583,-0.0569458,19.648855,-7.59542,4.8702292,10
902,-0.08905029,-0.070373535,-0.06774902,-1.2137405,-0.49618322,6.1221375,10
903,-0.08862305,-0.055541992,-0.08709717,-19.259542,0.6946565,3.5267177,10
904,-0.083496094,-0.04547119,-0.10357666,21.732824,6.6870227,9.358779,10
905,-0.08972168,-0.05505371,-0.08154297,67.45038,27.404581,19.305344,10
906,-0.09118652,-0.07446289,-0.04095459,42.305344,29.114504,18.786259,10
907,-0.08355713,-0.07946777,-0.05303955,-5.3053436,17.08397,15.603053,10
908,-0.09283447,-0.06945801,-0.038513184,-27.694656,-8.78626,17.580153,10
909,-0.085998535,-0.074279785,-0.040771484,-36.839695,-16.305344,12.4198475,10
910,-0.08288574,-0.064941406,-0.05731201,-19.145039,-10.091603,6.8625956,10
911,-0.08166504,-0.06323242,-0.053710938,2.740458,-5.2137403,3.7633588,10
912,-0.088012695,-0.06781006,-0.062927246,5.2519083,-12.2595415,3.8473282,10
913,-0.08959961,-0.07354736,-0.082336426,-4.3969464,-10.458015,-1.8778626,10
914,-0.09667969,-0.0791626,-0.08343506,-10.198473,4.5038166,-0.3053435,10
915,-0.09423828,-0.07208252,-0.07092285,-32.076336,13.519084,-4.8625956,10
916,-0.08807373,-0.06896973,-0.07098389,-46.091602,17.946566,-8.458015,10
917,-0.084350586,-0.058288574,-0.065979004,-40.85496,14.122137,-12.885496,10
918,-0.09234619,-0.05444336,-0.06072998,-39.961834,15.839695,-11.625955,10
919,-0.08880615,-0.055358887,-0.0413208,-38.49618,11.068703,-5.076336,10
920,-0.085876465,-0.04852295,-0.062561035,-25.740458,5.6030536,-1.7480916,10
921,-0.081604004,-0.04437256,-0.054138184,-17.671755,4.40458,5.3511453,10
922,-0.08355713,-0.040893555,-0.057617188,2.1908398,7.3587785,7.145038,10
923,-0.07574463,-0.0491333,-0.039794922,15.610687,12.519084,6.931298,10
924,-0.07635498,-0.0446167,-0.05114746,14.274809,-0.114503816,10.366412,10
925,-0.070495605,-0.04949951,-0.042114258,0.3129771,-13.893129,9.152672,10
926,-0.08062744,-0.049621582,-0.062194824,3.3740458,-26.725191,9.801527,10
927,-0.10205078,-0.049865723,-0.087890625,29.152672,-47.61832,9.076336,10
928,-0.09503174,-0.06689453,-0.0904541,46.030533,-17.732824,8.755725,10
929,-0.1005249,-0.072631836,-0.06463623,43.671757,3.3587787,4.9465647,10
930,-0.08111572,-0.07098389,-0.03100586,17.175573,16.404581,1.8473282,10
931,-0.085876465,-0.071899414,-0.04071045,-32.83206,-24.305344,-3.6183207,10
932,-0.087646484,-0.049743652,-0.068725586,-45.045803,-41.992367,-1.221374,10
933,-0.101623535,-0.049072266,-0.080322266,0.6870229,-23.900763,-0.8091603,10
934,-0.10229492,-0.060668945,-0.08135986,17.458015,3.648855,-1.9312977,10
935,-0.097595215,-0.07128906,-0.06970215,-0.091603056,18.175573,-12.725191,10
936,-0.090270996,-0.06347656,-0.05871582,-27.053434,23.068703,-16.977098,10
937,-0.086242676,-0.046875,-0.055847168,-26.229008,22.755726,-15.587787,10
938,-0.08532715,-0.045898438,-0.04663086,1.3129771,17.526718,-1.4580153,10
939,-0.094055176,-0.045715332,-0.043884277,18.175573,7.076336,5.3587785,10
940,-0.0927124,-0.050048828,-0.032348633,22.23664,-4.885496,12.305344,10
941,-0.09094238,-0.057739258,-0.048706055,28.374046,-0.7480916,10.526717,10
942,-0.09490967,-0.06744385,-0.058654785,28.12977,3.7328243,8.946565,10
943,-0.09326172,-0.067993164,-0.06829834,2.572519,1.5725191,0.7557252,10
944,-0.08691406,-0.06573486,-0.06774902,-4.89313,5.1297708,0.97709924,10
945,-0.08728027,-0.054992676,-0.0625,-8.557252,4.7099237,-3.7709923,10
946,-0.089416504,-0.054138184,-0.059143066,-6.9007635,2.923664,-0.22900763,10
947,-0.095581055,-0.054992676,-0.051452637,-2.2900763,-1.221374,-2.389313,10
948,-0.091430664,-0.057800293,-0.051879883,2.4122138,-1.2137405,-2.053435,10
949,-0.08917236,-0.0569458,-0.050842285,5.0076337,2.7633588,-4.5496182,10
950,-0.094055176,-0.0579834,-0.0569458,1.3053435,4,-5.4885497,10
951,-0.09710693,-0.055358887,-0.05822754,1.2366412,3.480916,-3.5648854,10
952,-0.091674805,-0.06011963,-0.05706787,-1.5419847,-0.90076333,-0.9847328,10
953,-0.093322754,-0.06121826,-0.049560547,-3.5877862,2.3053436,1.0763359,10
954,-0.09033203,-0.054504395,-0.05596924,-0.9160305,-0.6335878,-0.8549618,10
955,-0.08532715,-0.056518555,-0.027282715,1.6717557,-2.1526718,2.167939,10
956,-0.09008789,-0.061340332,-0.049438477,2.7099237,-1.8625954,-0.5648855,10
957,-0.093322754,-0.066223145,-0.04473877,-1.5648855,0.8167939,-3.6717558,10
958,-0.08581543,-0.06311035,-0.05218506,-2.480916,-2.9770992,-2.7862597,10
959,-0.09234619,-0.061767578,-0.057128906,-9.847328,-4.29771,-0.9160305,10
960,-0.08892822,-0.05883789,-0.052978516,-13.183207,-3.076336,-1.2442749,10
961,-0.0904541,-0.0602417,-0.0513916,-13.694656,-2.389313,-2.3282442,10
962,-0.08807373,-0.0592041,-0.06713867,-15.152672,-4.366412,-2.480916,10
963,-0.09820557,-0.0569458,-0.062927246,-11.763359,-3.6183207,-1.832061,10
964,-0.0881958,-0.06121826,-0.051574707,-7.480916,-0.5954198,-3.6793892,10
965,-0.09075928,-0.056396484,-0.07098389,-3.1526718,2.0687022,-1.0076336,10
966,-0.09277344,-0.05645752,-0.056274414,2.167939,2.8931298,-2.8396947,10
967,-0.08795166,-0.060302734,-0.066345215,1.8931298,3.4961832,-3.0152671,10
968,-0.09326172,-0.057006836,-0.06085205,2.1908398,4.1603055,-3.465649,10
969,-0.090148926,-0.05822754,-0.06036377,0.870229,2.870229,-2.40458,10
970,-0.089782715,-0.062194824,-0.035888672,-3.2442749,-0.58778626,-1.5801526,10
971,-0.093811035,-0.061157227,-0.059570312,-2.038168,-0.06870229,-1.3129771,10
972,-0.08996582,-0.05682373,-0.061767578,-5.259542,-1.7862595,-1.5343511,10
973,-0.08874512,-0.059570312,-0.046569824,-4.2900763,-4.1755724,-0.89312977,10
974,-0.092041016,-0.05407715,-0.053588867,-4.8320613,-2.5877862,-1.5725191,10
975,-0.0914917,-0.058166504,-0.0647583,-4.1374044,-1.2824427,-0.45801526,10
976,-0.0927124,-0.05883789,-0.062927246,-6.4503818,-1.3587786,-1.0458015,10
977,-0.093444824,-0.05834961,-0.060668945,-4.4656487,-0.32061067,-2.9694657,10
978,-0.09197998,-0.054748535,-0.06298828,-3.5801528,0.5954198,-0.45038167,10
979,-0.09283447,-0.058776855,-0.066589355,1.7480916,1.7175573,-0.7099237,10
980,-0.0904541,-0.05432129,-0.07305908,0.46564886,3.389313,-2.557252,10
981,-0.09320068,-0.053588867,-0.038757324,-1.8625954,2.4122138,-2.8854961,10
982,-0.09741211,-0.057250977,-0.06097412,0.67175573,1.29771,-2.076336,10
983,-0.089660645,-0.054382324,-0.052734375,0.20610687,2.9312978,-2.0152671,10
984,-0.09033203,-0.05340576,-0.059692383,0.870229,4.076336,-2.3740458,10
985,-0.090148926,-0.054992676,-0.050048828,-0.022900764,2.946565,-0.6793893,10
986,-0.09020996,-0.062438965,-0.026611328,-3.1374047,1.6183206,-2.389313,10
987,-0.091796875,-0.053100586,-0.0657959,-2.7099237,1.3740458,-0.7251908,10
988,-0.091918945,-0.051208496,-0.053649902,-0.122137405,1.2748091,-0.091603056,10
989,-0.0925293,-0.05633545,-0.06188965,-0.2519084,0.83206105,-1.778626,10
990,-0.087890625,-0.057739258,-0.05999756,-1.5648855,0.08396947,-0.6870229,10
991,-0.09466553,-0.056274414,-0.05255127,-1.0229008,1.870229,-1.5038168,10
992,-0.09460449,-0.056518555,-0.061767578,-3.221374,1.4503816,-2.740458,10
993,-0.09503174,-0.052856445,-0.047973633,-4.3206105,0.22137405,-1.6641221,10
994,-0.09283447,-0.05822754,-0.054504395,-1.2519084,0.015267176,-0.8778626,10
995,-0.091308594,-0.052856445,-0.036071777,-0.3129771,1.7480916,-1.6717557,10
996,-0.08856201,-0.057495117,-0.038146973,3.6030533,2.9312978,-0.71755725,10
997,-0.091796875,-0.053649902,-0.054016113,2.091603,2.091603,-0.08396947,10
998,-0.090270996,-0.051940918,-0.0446167,-0.061068702,2.091603,-1.1068702,10
999,-0.086242676,-0.059326172,-0.05328369,1.5343511,3.053435,-0.519084,10
1000,-0.08758545,-0.059020996,-0.050964355,2.3969467,1.3435115,-0.03816794,10
1001,-0.08886719,-0.05847168,-0.05871582,0.22900763,1.1145039,-3.0229008,10
1002,-0.09429932,-0.061523438,-0.02709961,0.07633588,2.0152671,-1.7633588,10
1003,-0.088256836,-0.05419922,-0.059020996,-0.099236645,2.4503818,-2.5877862,10
1004,-0.09112549,-0.056884766,-0.05218506,-1.6030535,2.206107,-3.6259542,10
1005,-0.09051514,-0.055603027,-0.04864502,-3.740458,1.5038168,-2.648855,10
1006,-0.087768555,-0.05621338,-0.049072266,-3.389313,-1.29771,-4.29771,10
1007,-0.08880615,-0.052856445,-0.062316895,-5.4351144,-0.7251908,-2.0229008,10
1008,-0.09008789,-0.05645752,-0.050231934,-4.519084,-0.54198474,-1.908397,10
1009,-0.09710693,-0.057678223,-0.05999756,-3.427481,1.3206106,-1.5496184,10
1010,-0.09069824,-0.05718994,-0.059509277,-1.4122137,1.6030535,-1.5725191,10
1011,-0.09057617,-0.055603027,-0.0579834,-0.97709924,1.778626,-2.7862597,10
1012,-0.0848999,-0.05206299,-0.056640625,1.8167939,0.6870229,-0.52671754,10
1013,-0.092285156,-0.059448242,-0.053955078,2.648855,1.7251909,-0.519084,10
1014,-0.08856201,-0.0524292,-0.058898926,1.2442749,1.9847329,-0.64122134,10
1015,-0.09313965,-0.052001953,-0.060180664,-1.9847329,2.167939,-1.0076336,10
1016,-0.08514404,-0.04901123,-0.053588867,-1.0305344,2.946565,-3.870229,10
1017,-0.08807373,-0.054626465,-0.055908203,3.1068702,1.6717557,-0.9541985,10
1018,-0.09069824,-0.05822754,-0.0546875,2.3816793,2.0076337,-1.6717557,10
1019,-0.08642578,-0.055664062,-0.059326172,1.6259542,2.6259542,-0.78625953,10
1020,-0.0881958,-0.055786133,-0.048583984,2.6259542,-0.6183206,-1.1832061,10
1021,-0.08782959,-0.052001953,-0.05847168,2.0992367,-0.3129771,-1.4732825,10
1022,-0.08325195,-0.0513916,-0.059814453,0.58778626,0.77862597,-1.9007634,10
1023,-0.0881958,-0.051940918,-0.060546875,0.78625953,1.1221374,0.8549618,10
1024,-0.08770752,-0.05444336,-0.06390381,2.1374047,2.1755726,-0.9389313,10
1025,-0.08276367,-0.05596924,-0.060180664,-1.5648855,0.061068702,-2.4503818,10
1026,-0.091674805,-0.05456543,-0.061157227,-1.3282443,2.40458,-2.2442749,10
1027,-0.08306885,-0.05291748,-0.04699707,-1.610687,0.71755725,-0.4427481,10
1028,-0.082336426,-0.050720215,-0.052856445,-1.0152671,-0.3053435,-1.259542,10
1029,-0.089660645,-0.055847168,-0.055419922,-0.18320611,1.0534351,-1.4656489,10
1030,-0.086120605,-0.053710938,-0.057800293,-0.099236645,3.2519083,-1.740458,10
1031,-0.08782959,-0.048339844,-0.055603027,4.145038,1.870229,-1.8015267,10
1032,-0.09106445,-0.05029297,-0.05847168,2.8396947,3.1984732,-0.21374045,10
1033,-0.08148193,-0.057800293,-0.059936523,4.8244276,2.3053436,0.2519084,10
1034,-0.08392334,-0.055419922,-0.059020996,3.961832,2.2137403,1.6870229,10
1035,-0.08508301,-0.054504395,-0.05883789,2.5114503,2.664122,0.08396947,10
1036,-0.083618164,-0.056152344,-0.036193848,1,1.870229,0.55725193,10
1037,-0.08782959,-0.051208496,-0.066833496,1.8625954,2.183206,1.0076336,10
1038,-0.08093262,-0.057800293,-0.060058594,1.9923664,3.1755726,0,10
1039,-0.087768555,-0.053466797,-0.02154541,-1.1755725,-0.6183206,0.18320611,10
1040,-0.08215332,-0.057373047,-0.058166504,-6.7862597,0.9389313,-0.091603056,10
1041,-0.08605957,-0.048828125,-0.034606934,-0.45038167,2.3587787,-0.7099237,10
1042,-0.080566406,-0.058288574,-0.0524292,2.4885497,1.7099236,0.65648854,10
1043,-0.09259033,-0.05456543,-0.04473877,-2.4198472,1.2442749,-2.053435,10
1044,-0.08642578,-0.051818848,-0.05444336,-3.206107,0.64122134,-1.6870229,10
1045,-0.08154297,-0.056640625,-0.0546875,-2.8778627,0.06870229,-2.6183207,10
1046,-0.08911133,-0.055541992,-0.042114258,-2.9770992,-0.35114503,-1.8015267,10
1047,-0.086120605,-0.055664062,-0.04638672,-3.5267177,0.3816794,-2.0076337,10
1048,-0.08770752,-0.053344727,-0.05291748,-3.351145,0.20610687,-0.5496183,10
1049,-0.08496094,-0.057006836,-0.041809082,-0.96183205,1.8625954,-2.0610688,10
1050,-0.083984375,-0.051879883,-0.053100586,-0.47328246,2.70229,0.48091602,10
1051,-0.08660889,-0.052490234,-0.0637207,-0.57251906,0.6870229,-0.40458015,10
1052,-0.08605957,-0.053833008,-0.055847168,-2.6335878,2.091603,0.099236645,10
1053,-0.087524414,-0.05206299,-0.058410645,-0.23664123,0.53435117,-1.5267175,10
1054,-0.09033203,-0.054992676,-0.04437256,-1.5496184,0.86259544,-1.389313,10
1055,-0.08477783,-0.055541992,-0.043762207,-2.793893,0.36641222,-3.3053436,10
1056,-0.09106445,-0.04864502,-0.041992188,-3.3664122,-0.84732825,-1.4656489,10
1057,-0.08917236,-0.05621338,-0.06011963,-2.4122138,-0.10687023,-2.2137403,10
1058,-0.08538818,-0.05480957,-0.06915283,-2.610687,0.16793893,-0.22900763,10
1059,-0.0859375,-0.056274414,-0.0637207,0.122137405,0.4274809,-1.2290076,10
1060,-0.09313965,-0.05279541,-0.061828613,-0.65648854,1.2442749,-1.4045801,10
1061,-0.08917236,-0.05633545,-0.062072754,-0.7557252,1.7557251,-0.19847329,10
1062,-0.09118652,-0.053894043,-0.018249512,-2.816794,2.2671757,-0.9847328,10
1063,-0.08416748,-0.050231934,-0.062194824,-4.183206,2.8244274,-1.29771,10
1064,-0.092285156,-0.053710938,-0.045043945,-1.259542,0.48091602,-1.4045801,10
1065,-0.0826416,-0.05303955,-0.038330078,-0.519084,-0.13740458,-1.6641221,10
1066,-0.09033203,-0.049621582,-0.05517578,-2.9694657,-0.030534351,-0.99236643,10
1067,-0.07873535,-0.052001953,-0.049926758,-0.9465649,-0.099236645,0.49618322,10
1068,-0.08441162,-0.054870605,-0.062561035,1.870229,1,-2.4732823,10
1069,-0.08569336,-0.05718994,-0.048034668,1.519084,1.3282443,-2.7633588,10
1070,-0.0826416,-0.05407715,-0.0501709,2.053435,2.465649,-1.5877863,10
1071,-0.0970459,-0.055541992,-0.05908203,0.4274809,2.572519,-1.5267175,10
1072,-0.09039307,-0.055358887,-0.057128906,-1.0458015,2.6335878,-2.389313,10
1073,-0.08605957,-0.05480957,-0.04901123,0.16030534,1.6564885,0.3816794,10
1074,-0.09033203,-0.053710938,-0.044006348,-1.0458015,0.73282444,-1.4351145,10
1075,-0.08526611,-0.056640625,-0.05114746,-2.8396947,1.5877863,-3.0152671,10
1076,-0.08532715,-0.05621338,-0.05029297,-2.335878,0.8778626,-3.534351,10
1077,-0.08618164,-0.05670166,-0.06237793,-0.40458015,1.3053435,-3.2366412,10
1078,-0.08898926,-0.056762695,-0.062072754,-0.3129771,0.9389313,0.14503817,10
1079,-0.0914917,-0.045837402,-0.019958496,0.5038168,0.9694657,-2.1221373,10
1080,-0.084472656,-0.057434082,-0.046203613,2.4122138,3.076336,-0.091603056,10
1081,-0.07989502,-0.048339844,-0.06500244,0.6335878,3.167939,-0.519084,10
1082,-0.087402344,-0.057617188,-0.05303955,0.22900763,2.5114503,-1.5419847,10
1083,-0.08618164,-0.053222656,-0.04699707,-0.5114504,2.5038168,-0.77099234,10
1084,-0.085510254,-0.052978516,-0.054870605,0.36641222,1.091603,-1.0610687,10
1085,-0.081726074,-0.05102539,-0.060302734,-0.36641222,0.6946565,-2.1374047,10
1086,-0.09039307,-0.056762695,-0.057739258,0.18320611,1.0076336,-2.5496182,10
1087,-0.09423828,-0.057617188,-0.057434082,0.46564886,1.9770992,-2.3816793,10
1088,-0.08996582,-0.05529785,-0.054016113,-1.778626,1.5343511,-0.99236643,10
1089,-0.084228516,-0.057739258,-0.055480957,-0.7099237,0.39694658,-1.7175573,10
1090,-0.08898926,-0.051879883,-0.05041504,-1.351145,0.022900764,-0.23664123,10
1091,-0.089416504,-0.057495117,-0.055908203,-2.1755726,0.648855,-2.8854961,10
1092,-0.09039307,-0.049194336,-0.05609131,-2.3206108,-0.48854962,-1.740458,10
1093,-0.08721924,-0.055419922,-0.053649902,-3.29771,1.7557251,-1.778626,10
1094,-0.08441162,-0.056152344,-0.06048584,-1.9770992,1.6183206,-4.10687,10
1095,-0.083862305,-0.051086426,-0.059448242,-1.8167939,2.4580152,-2.9541984,10
1096,-0.08068848,-0.05065918,-0.030639648,-0.83206105,0.41221374,-1.9236641,10
1097,-0.0881958,-0.059509277,-0.04901123,-1.3282443,0.9160305,-3.9312978,10
1098,-0.0859375,-0.05340576,-0.04663086,-0.7633588,-0.6183206,-1.3664122,10
1099,-0.08508301,-0.05279541,-0.056274414,-1.7557251,2.6564887,-2.4122138,10
1100,-0.085754395,-0.052001953,-0.05682373,-1.4732825,1.7175573,-1.0839695,10
1101,-0.085998535,-0.053894043,-0.049865723,-4.29771,1.9007634,-1.0610687,10
1102,-0.087768555,-0.056274414,-0.04711914,-2.6793892,0.19847329,-3.534351,10
1103,-0.07940674,-0.05078125,-0.05645752,-3.0839694,-0.18320611,-1.1603054,10
1104,-0.09436035,-0.05328369,-0.057495117,-2.1221373,-0.16793893,0.27480915,10
1105,-0.09289551,-0.057373047,-0.06225586,-2.1450381,-0.16030534,0.41984734,10
1106,-0.08782959,-0.05126953,-0.052734375,-1.8473282,3.3969467,0.33587787,10
1107,-0.08679199,-0.052246094,-0.05670166,-0.8167939,-0.007633588,-1.5954199,10
1108,-0.092041016,-0.05102539,-0.05041504,0.06870229,0.73282444,0.007633588,10
1109,-0.09246826,-0.05682373,-0.057617188,-2.1908398,1.1832061,-1.9465649,10
1110,-0.09136963,-0.04937744,-0.05883789,-2.7557251,-0.053435113,-1.832061,10
1111,-0.08642578,-0.05529785,-0.053588867,-5,1.3816794,-3.4351146,10
1112,-0.08892822,-0.056152344,-0.056152344,-2.0610688,0.70229006,-5.1984735,10
1113,-0.088378906,-0.04901123,-0.055419922,-3.0076337,0.015267176,-1.1450381,10
1114,-0.08728027,-0.048461914,-0.05895996,-2.519084,2.7633588,-1.908397,10
1115,-0.08862305,-0.054260254,-0.049316406,0.648855,1.9389313,-2.1374047,10
1116,-0.0836792,-0.057739258,-0.049865723,0.79389316,0.36641222,-4.6106873,10
1117,-0.09588623,-0.059631348,-0.057800293,2.40458,1.0305344,-2.7251909,10
1118,-0.0925293,-0.0625,-0.06097412,2.4961832,2.259542,-4.038168,10
1119,-0.08758545,-0.054870605,-0.055786133,-0.22137405,2.664122,-1.9465649,10
1120,-0.09240723,-0.057556152,-0.058776855,-1.1526718,0.96183205,-3.610687,10
1121,-0.09350586,-0.050231934,-0.047729492,-2.8854961,1.0229008,-2.3435113,10
1122,-0.0892334,-0.057800293,-0.062194824,-2.4503818,1.5419847,-1.908397,10
1123,-0.08477783,-0.05291748,-0.044433594,-0.71755725,-0.06870229,-2.0839694,10
1124,-0.087890625,-0.0546875,-0.06048584,-1.6870229,1.1603054,-3.2748091,10
1125,-0.09082031,-0.052612305,-0.06225586,-1,1.5267175,-1.4427481,10
1126,-0.08520508,-0.057617188,-0.053894043,1.3053435,2.2900763,-1.3664122,10
1127,-0.08959961,-0.053894043,-0.049865723,1.7480916,3.0687022,-4.59542,10
1128,-0.089660645,-0.05517578,-0.058410645,0.8015267,4.0610685,-2.5419848,10
1129,-0.086364746,-0.057128906,-0.060302734,2.3435113,1.7328244,-1.8167939,10
1130,-0.09008789,-0.0625,-0.054382324,4.2900763,1.0763359,-2.7480917,10
1131,-0.09051514,-0.053466797,-0.059265137,0.77099234,0.34351146,-1.3282443,10
1132,-0.09887695,-0.05609131,-0.052246094,-5.1297708,-0.23664123,-1.3129771,10
1133,-0.09320068,-0.050048828,-0.052490234,3.0839694,0.519084,4.2519083,10
1134,-0.09295654,-0.059326172,-0.06890869,9.80916,4.7251906,2.6030533,10
1135,-0.089660645,-0.062805176,-0.06188965,8.832061,6.374046,4.7633586,10
1136,-0.09197998,-0.057678223,-0.051086426,0.46564886,4.8015265,-0.73282444,10
1137,-0.09136963,-0.05529785,-0.037231445,-5.9389315,-0.1908397,-1.4580153,10
1138,-0.09197998,-0.055603027,-0.047973633,-3.9770992,-0.77862597,-1.4885496,10
1139,-0.09100342,-0.058532715,-0.04736328,-5.3816795,0.53435117,-2.076336,10
1140,-0.08856201,-0.057434082,-0.05718994,-8.977099,-1.1832061,-2.534351,10
1141,-0.09454346,-0.058532715,-0.057373047,-9.541985,-2,0.35114503,10
1142,-0.092163086,-0.05340576,-0.056640625,-6.7862597,0.2519084,-0.7480916,10
1143,-0.09112549,-0.05340576,-0.04815674,-2.1374047,3.557252,-0.40458015,10
1144,-0.09918213,-0.052978516,-0.059143066,3.038168,2.0992367,-0.4274809,10
1145,-0.0904541,-0.057678223,-0.061950684,5.068702,1.1374046,0.8396947,10
1146,-0.09716797,-0.06011963,-0.062316895,2.816794,0.16030534,-0.47328246,10
1147,-0.09277344,-0.05834961,-0.06964111,0.6946565,2.3282442,-3.3816793,10
1148,-0.09039307,-0.062438965,-0.07678223,-2.1221373,2.0152671,-1.0458015,10
1149,-0.0914917,-0.058288574,-0.060668945,-5.9389315,1.3282443,-1.038168,10
1150,-0.08770752,-0.05731201,-0.058898926,-4.6793895,1.4427481,-1.908397,10
1151,-0.09051514,-0.058898926,-0.06695557,-4.671756,0.8091603,-0.17557251,10
1152,-0.08807373,-0.054016113,-0.06414795,-4.0152674,0.06870229,-1.2900764,10
1153,-0.09118652,-0.053710938,-0.0637207,-0.9236641,0.58778626,-1.0687023,10
1154,-0.09698486,-0.06011963,-0.06463623,0.9541985,1.091603,-1.648855,10
1155,-0.094177246,-0.05883789,-0.05670166,0.49618322,1.0534351,-1.8091604,10
1156,-0.099975586,-0.05657959,-0.057800293,-0.045801528,2.4503818,-3.1526718,10
1157,-0.091796875,-0.05883789,-0.061950684,0.8244275,1.9847329,-1.3206106,10
1158,-0.09362793,-0.056762695,-0.061523438,-2.7175572,1.2519084,-2.1755726,10
1159,-0.09509277,-0.060791016,-0.056396484,-5.0839696,-0.17557251,-3.5496182,10
1160,-0.09509277,-0.056274414,-0.056640625,-4.0610685,-0.061068702,-1.8549619,10
1161,-0.09265137,-0.054382324,-0.055847168,-4.038168,-0.49618322,-1.9770992,10
1162,-0.09906006,-0.060058594,-0.0546875,-5.10687,0.38931298,-3.29771,10
1163,-0.09283447,-0.061279297,-0.064453125,-2.9389312,1.0839695,-1.7709924,10
1164,-0.09277344,-0.05883789,-0.04949951,-2.870229,1.2290076,-1.4885496,10
1165,-0.08654785,-0.054992676,-0.049804688,-0.8244275,2.5267177,-0.022900764,10
1166,-0.09246826,-0.059387207,-0.04852295,0.8244275,1.2061069,0.519084,10
1167,-0.097595215,-0.053649902,-0.059326172,0.030534351,1.0458015,-2.5114503,10
1168,-0.09613037,-0.057434082,-0.054504395,0.2977099,1.8778626,-3.2748091,10
1169,-0.09136963,-0.057556152,-0.05609131,2.557252,1.4427481,0.28244275,10
1170,-0.09790039,-0.05859375,-0.05407715,0.58778626,1.6641221,-1.091603,10
1171,-0.09118652,-0.055480957,-0.044799805,-0.5801527,3.221374,-0.79389316,10
1172,-0.08996582,-0.055603027,-0.06677246,-0.8854962,2.351145,-2.4198472,10
1173,-0.09069824,-0.058410645,-0.0602417,-0.3129771,0.3816794,-1.8473282,10
1174,-0.09637451,-0.058410645,-0.052612305,-2.0992367,1.5496184,-4.4198475,10
1175,-0.09667969,-0.058776855,-0.061523438,-3.183206,1.4732825,-1.70229,10
1176,-0.093322754,-0.05908203,-0.04815674,-0.007633588,1.4122137,-4.29771,10
1177,-0.09197998,-0.054138184,-0.061584473,-2.076336,0.34351146,-1.5114504,10
1178,-0.08416748,-0.05316162,-0.061584473,-1.7709924,-0.77099234,-2.908397,10
1179,-0.09295654,-0.04699707,-0.057250977,-0.86259544,-0.5496183,-1.3282443,10
1180,-0.09411621,-0.05883789,-0.0546875,-0.22137405,-0.16793893,-1.6717557,10
1181,-0.09423828,-0.059509277,-0.05987549,0.8549618,2.0305343,-1.0305344,10
1182,-0.09246826,-0.057861328,-0.056030273,1.3587786,2.5496182,-2.793893,10
1183,-0.09350586,-0.05444336,-0.06072998,-2.1221373,3.351145,-0.79389316,10
1184,-0.095947266,-0.051940918,-0.04937744,-1.0992366,2.1145039,-1.6641221,10
1185,-0.09674072,-0.058166504,-0.043701172,-1.0687023,0.5114504,-2.2519083,10
1186,-0.09240723,-0.059753418,-0.05895996,-2.778626,0.648855,-1.5572519,10
1187,-0.09039307,-0.055480957,-0.06524658,-2.7251909,0.39694658,-0.519084,10
1188,-0.094055176,-0.059448242,-0.054260254,-1.610687,-0.52671754,-0.64122134,10
1189,-0.095581055,-0.057006836,-0.057434082,-0.9389313,0.84732825,-1.870229,10
1190,-0.09063721,-0.05895996,-0.057922363,0.38931298,-0.65648854,-1.7175573,10
1191,-0.09484863,-0.055480957,-0.061584473,0.39694658,1.4961832,-3.0992367,10
1192,-0.08984375,-0.06414795,-0.056152344,-1.4580153,0.7251908,-3.70229,10
1193,-0.09100342,-0.056396484,-0.048583984,2.3206108,2.8244274,-1.8625954,10
1194,-0.09008789,-0.056030273,-0.05810547,-0.114503816,2.076336,-3.053435,10
1195,-0.085632324,-0.05609131,-0.05456543,2.183206,1.3816794,-2.335878,10
1196,-0.095214844,-0.06048584,-0.045654297,-0.47328246,1.2748091,-2.816794,10
1197,-0.09136963,-0.056030273,-0.059326172,0.06870229,1.3129771,-1.3740458,10
1198,-0.09503174,-0.058288574,-0.04840088,-1.648855,1.4274809,-4.0076337,10
1199,-0.09338379,-0.05255127,-0.05529785,-1.9312977,0.65648854,-4.221374,10
1200,-0.095458984,-0.05493164,-0.05609131,-4.4961834,0.1908397,-1.6412214,10
1201,-0.08569336,-0.05517578,-0.051574707,-3.5114503,0.4274809,-2.4351146,10
1202,-0.09039307,-0.055725098,-0.055480957,-1.6183206,2.4198472,-1.7175573,10
1203,-0.08453369,-0.055358887,-0.058776855,0.3740458,2.1221373,-0.73282444,10
1204,-0.09790039,-0.052124023,-0.056884766,4.816794,1.0458015,-1.3129771,10
1205,-0.095214844,-0.055236816,-0.056518555,4.068702,1.7633588,-0.71755725,10
1206,-0.09100342,-0.058166504,-0.061645508,0.16793893,1.6183206,-1.8549619,10
1207,-0.09100342,-0.051879883,-0.0602417,1.5572519,3.351145,-1.2748091,10
1208,-0.09716797,-0.052734375,-0.05078125,2.870229,3.7557251,-0.5954198,10
1209,-0.09338379,-0.061584473,-0.06439209,1.7709924,3.8473282,-3.8091602,10
1210,-0.0925293,-0.059753418,-0.057617188,-0.3053435,1.3740458,-3.351145,10
1211,-0.09234619,-0.058654785,-0.0637207,-3.1068702,0.41984734,-2.3587787,10
1212,-0.096069336,-0.060913086,-0.06555176,-4.9770994,0.67175573,-1.6030535,10
1213,-0.09362793,-0.054138184,-0.06951904,-6,0.870229,-0.5648855,10
1214,-0.09259033,-0.060058594,-0.06213379,-6.0916033,0.71755725,-0.22137405,10
1215,-0.08911133,-0.057617188,-0.057678223,-2.8625953,-0.17557251,0.13740458,10
1216,-0.09442139,-0.057373047,-0.0569458,-3,-1.1374046,-0.38931298,10
1217,-0.090026855,-0.059448242,-0.05407715,-1.5038168,-1.3282443,-1.091603,10
1218,-0.09466553,-0.061401367,-0.057373047,-2.0458016,0.64122134,-0.77862597,10
1219,-0.0892334,-0.056884766,-0.04949951,-3.5114503,0.20610687,-2.3587787,10
1220,-0.089660645,-0.057556152,-0.06542969,-2.610687,0.86259544,-2.4961832,10
1221,-0.09222412,-0.0579834,-0.05883789,-1.70229,0.14503817,-0.8778626,10
1222,-0.093322754,-0.055480957,-0.065979004,-0.9389313,-2.0992367,-2.9389312,10
1223,-0.09197998,-0.061462402,-0.059631348,-1.3358779,1.1603054,-1,10
1224,-0.08282471,-0.057373047,-0.062316895,-0.33587787,2.3969467,-1.6030535,10
1225,-0.10632324,-0.051086426,-0.053955078,-0.70229006,2.9847329,-2.221374,10
1226,-0.095214844,-0.055847168,-0.050109863,-1.1908396,1.0305344,-0.7557252,10
1227,-0.09539795,-0.06585693,-0.059020996,-1.9770992,1.0458015,-4.4961834,10
1228,-0.09112549,-0.055480957,-0.06329346,-3.8396947,2.2748091,-1.8778626,10
1229,-0.093933105,-0.05731201,-0.042053223,-0.19847329,-0.18320611,-1.0534351,10
1230,-0.097351074,-0.057495117,-0.053527832,0.24427481,0.06870229,-1.3358779,10
1231,-0.0904541,-0.05999756,-0.05206299,-1.8931298,2.59542,-4.0610685,10
1232,-0.089782715,-0.056396484,-0.060180664,-0.49618322,2.7099237,-4.183206,10
1233,-0.09301758,-0.05883789,-0.05895996,0.3816794,1.1221374,-3.9160306,10
1234,-0.09185791,-0.055480957,-0.056396484,0.7633588,1.2290076,-2.1145039,10
1235,-0.09375,-0.062438965,-0.055725098,2.2519083,2.4732823,-2.167939,10
1236,-0.09387207,-0.06011963,-0.06274414,2.038168,4.3053436,-2.534351,10
1237,-0.08886719,-0.059692383,-0.0625,0.6259542,5.8702292,-1.7480916,10
1238,-0.09448242,-0.052734375,-0.050964355,1.7328244,4.3893127,-2.0229008,10
1239,-0.099975586,-0.053466797,-0.055786133,-0.4351145,3.2290077,-1.2137405,10
1240,-0.08886719,-0.056518555,-0.0524292,0.9541985,0.6183206,-0.8091603,10
1241,-0.09667969,-0.053894043,-0.064575195,1.3435115,1.3282443,-1.7175573,10
1242,-0.09210205,-0.05303955,-0.06793213,-0.8091603,3.1603053,-3.4580152,10
1243,-0.09698486,-0.05645752,-0.057678223,0.10687023,1.389313,0.129771,10
1244,-0.092163086,-0.057006836,-0.054138184,-0.3816794,1.4198474,-0.4427481,10
1245,-0.09259033,-0.061950684,-0.057861328,-1.3206106,1.3740458,-0.5114504,10
1246,-0.089416504,-0.05987549,-0.059326172,-2.3664122,0.1908397,-0.83206105,10
1247,-0.093933105,-0.05419922,-0.058044434,-1.870229,1.2519084,-1.8091604,10
1248,-0.09094238,-0.057128906,-0.064819336,-3.2824428,1.6564885,-1.3206106,10
1249,-0.088256836,-0.05480957,-0.054138184,-2.8854961,0.41221374,-2.3206108,10
1250,-0.09277344,-0.05316162,-0.059692383,-2.0992367,0.38931298,-2.1603053,10
1251,-0.09490967,-0.06213379,-0.050598145,-0.4274809,0.18320611,-0.78625953,10
1252,-0.09576416,-0.05316162,-0.06567383,-0.41221374,0.38931298,0.015267176,10
1253,-0.08935547,-0.052368164,-0.04864502,-1.3740458,1.1450381,-2.8396947,10
1254,-0.094177246,-0.054748535,-0.062805176,-2.3053436,1.7175573,-2.7099237,10
1255,-0.091918945,-0.057250977,-0.061767578,-2.1603053,-0.45801526,-0.78625953,10
1256,-0.089660645,-0.06524658,-0.057800293,-3.740458,1.0763359,-0.70229006,10
1257,-0.09454346,-0.05218506,-0.055541992,-3.1068702,1.7175573,-2.0992367,10
1258,-0.089416504,-0.06304932,-0.05609131,-2.908397,0.86259544,-1.9694656,10
1259,-0.09075928,-0.0546875,-0.062194824,-2.816794,2.3206108,-0.9160305,10
1260,-0.09185791,-0.056030273,-0.048583984,-1.1526718,1.0534351,-0.007633588,10
1261,-0.0914917,-0.0579834,-0.044067383,0.77099234,0.7099237,0.07633588,10
1262,-0.08898926,-0.06213379,-0.06341553,0.4351145,1.0839695,-0.9465649,10
1263,-0.08959961,-0.0602417,-0.06384277,1.1832061,1.5038168,-1.0687023,10
1264,-0.09069824,-0.06109619,-0.04675293,2.038168,1.648855,-0.5954198,10
1265,-0.0904541,-0.060668945,-0.059631348,1.610687,0.2519084,-0.73282444,10
1266,-0.09234619,-0.055786133,-0.06317139,2.5496182,2.167939,-1.0152671,10
1267,-0.09069824,-0.06652832,-0.059692383,2.2748091,4.9389315,-3.6183207,10
1268,-0.095458984,-0.05505371,-0.05706787,-1.2519084,1.2442749,-2.465649,10
1269,-0.085754395,-0.05419922,-0.057617188,-4.0916033,1.2061069,-3.312977,10
1270,-0.09503174,-0.05657959,-0.070617676,-0.114503816,0.46564886,-2.221374,10
1271,-0.08660889,-0.058654785,-0.06500244,-0.519084,-0.3053435,-3.1526718,10
1272,-0.09338379,-0.060058594,-0.061950684,-2.8625953,0.9465649,-0.84732825,10
1273,-0.088012695,-0.055480957,-0.06982422,-5.4732823,1.6870229,-1.8091604,10
1274,-0.09588623,-0.05633545,-0.053894043,-5.6564884,0.8396947,-2.0305343,10
1275,-0.089538574,-0.05456543,-0.060913086,-4.9007635,-0.16793893,-1.2824427,10
1276,-0.09112549,-0.052490234,-0.061279297,-3.687023,-0.77862597,-1.091603,10
1277,-0.09631348,-0.055541992,-0.066101074,-1.6717557,0.22137405,-1.6793894,10
1278,-0.095581055,-0.056030273,-0.041259766,1.2290076,1.7633588,-0.46564886,10
1279,-0.10003662,-0.05444336,-0.061767578,1.2824427,2.0992367,-0.45038167,10
1280,-0.09832764,-0.05267334,-0.06695557,0.96183205,1.9236641,-1.1145039,10
1281,-0.09710693,-0.059692383,-0.063964844,0.48091602,1.4351145,-0.3740458,10
1282,-0.08795166,-0.057678223,-0.06274414,-4.145038,1.221374,-2.351145,10
1283,-0.09857178,-0.058044434,-0.06384277,-5.221374,1.0305344,-2.3969467,10
1284,-0.09338379,-0.053649902,-0.05316162,-5.961832,0.1908397,-2.1068702,10
1285,-0.08880615,-0.055480957,-0.0592041,-4.0305343,1.1450381,-2.3206108,10
1286,-0.097717285,-0.059570312,-0.04852295,-2.312977,-1.8625954,-1.1984733,10
1287,-0.09460449,-0.05493164,-0.059753418,-1.8625954,-0.129771,-0.65648854,10
1288,-0.09375,-0.060546875,-0.059448242,-2.3053436,0.015267176,-0.5114504,10
1289,-0.09020996,-0.05883789,-0.06072998,-2.7633588,0.03816794,-0.49618322,10
1290,-0.095214844,-0.058532715,-0.057617188,-2.3816793,-2.2442749,-0.9847328,10
1291,-0.09362793,-0.050109863,-0.059020996,-2.1984732,-0.7251908,-0.08396947,10
1292,-0.0949707,-0.05834961,-0.06359863,-0.29007635,1.8625954,-2.1145039,10
1293,-0.08642578,-0.058166504,-0.07080078,1.3816794,2.832061,-2.2366412,10
1294,-0.09033203,-0.058898926,-0.059387207,1.4198474,3.259542,-1.1068702,10
1295,-0.08770752,-0.054748535,-0.064819336,1.2290076,3.335878,-1.961832,10
1296,-0.09234619,-0.054382324,-0.05505371,2.7480917,1.2824427,-1.9694656,10
1297,-0.09399414,-0.064819336,-0.04711914,1.870229,1.7251909,-2.1603053,10
1298,-0.08972168,-0.05456543,-0.06347656,0.90839696,2.2366412,-3.40458,10
1299,-0.09222412,-0.05883789,-0.056518555,-0.091603056,3.9160306,-2.3587787,10
1300,-0.09527588,-0.059143066,-0.046447754,-1.0839695,1.3664122,-2.9770992,10
1301,-0.093811035,-0.0625,-0.050354004,-1.5267175,-0.07633588,-0.519084,10
1302,-0.095581055,-0.057617188,-0.048950195,-2.206107,0.091603056,-1.167939,10
1303,-0.09460449,-0.05859375,-0.0657959,-3.3053436,1.3816794,-1.0992366,10
1304,-0.09057617,-0.059509277,-0.06738281,-3.8244274,0.39694658,-2.4580152,10
1305,-0.09057617,-0.058288574,-0.05206299,-5.10687,-0.2519084,-3.3969467,10
1306,-0.090026855,-0.05419922,-0.05657959,-4.412214,-0.22137405,-1.519084,10
1307,-0.092041016,-0.053649902,-0.04284668,-3.1526718,-1.0610687,-1.3358779,10
1308,-0.09643555,-0.057128906,-0.0546875,-3.053435,0.740458,-1.8015267,10
1309,-0.09564209,-0.05859375,-0.05432129,-2.740458,-0.2519084,-2.7251909,10
1310,-0.097229004,-0.05444336,-0.061035156,-0.6259542,-0.053435113,-0.48854962,10
1311,-0.093688965,-0.055541992,-0.064575195,2.4351146,1.4732825,-0.38931298,10
1312,-0.09692383,-0.057861328,-0.05908203,1.9541985,2.9923663,-1.8396946,10
1313,-0.09362793,-0.057861328,-0.057800293,1.3435115,2.9770992,-0.9465649,10
1314,-0.089904785,-0.058288574,-0.059936523,-0.22137405,2.6183207,-1.4427481,10
1315,-0.08416748,-0.055664062,-0.057678223,-0.45038167,3.687023,-1.0610687,10
1316,-0.0869751,-0.055786133,-0.060058594,1.5801526,1.7633588,-0.3129771,10
1317,-0.0881958,-0.06011963,-0.060913086,-0.061068702,1.6030535,-0.83206105,10
1318,-0.089904785,-0.05670166,-0.05883789,0.3740458,1.8091604,-1.8244275,10
1319,-0.097717285,-0.057128906,-0.041992188,1.3740458,2.206107,-1.8778626,10
1320,-0.08874512,-0.059326172,-0.055908203,-0.3816794,1.870229,-0.3816794,10
1321,-0.090026855,-0.05596924,-0.047058105,-1.221374,2.2442749,-0.18320611,10
1322,-0.09075928,-0.05407715,-0.06311035,-0.41984734,1.259542,-2.29771,10
1323,-0.09326172,-0.06201172,-0.054992676,0.35114503,-0.6183206,-1.4198474,10
1324,-0.099243164,-0.061279297,-0.06121826,-3.3053436,1.1068702,-3.557252,10
1325,-0.088134766,-0.057800293,-0.064697266,-3.3435113,1.2442749,-1.351145,10
1326,-0.09088135,-0.05480957,-0.060058594,-3.053435,2.1755726,-3.8396947,10
1327,-0.08935547,-0.06011963,-0.060424805,-0.39694658,1.7175573,-0.15267175,10
1328,-0.08984375,-0.05908203,-0.057678223,-0.5038168,-0.122137405,-1.870229,10
1329,-0.091918945,-0.06329346,-0.06085205,-3.8473282,0.015267176,-2.351145,10
1330,-0.09838867,-0.05987549,-0.055847168,-3.9770992,0.13740458,-2.3206108,10
1331,-0.091430664,-0.054016113,-0.0670166,-5.259542,-1.1374046,-1.4198474,10
1332,-0.08880615,-0.059814453,-0.05999756,-3.3053436,-0.9847328,-0.78625953,10
1333,-0.09082031,-0.056518555,-0.06518555,-5.328244,0.045801528,0.47328246,10
1334,-0.097229004,-0.061279297,-0.059448242,-5.1755724,-1.0458015,-1.6030535,10
1335,-0.09643555,-0.055664062,-0.058654785,-5,-0.47328246,-1.4961832,10
1336,-0.093811035,-0.052612305,-0.060424805,-2.687023,1.3587786,-1.1755725,10
1337,-0.09118652,-0.055358887,-0.055419922,-0.870229,-0.4274809,-1,10
1338,-0.093933105,-0.052978516,-0.06097412,-0.5114504,0.32824427,-1.1832061,10
1339,-0.09259033,-0.057250977,-0.06109619,-1,-0.16793893,-1.129771,10
1340,-0.09741211,-0.052978516,-0.06573486,-0.007633588,1.2671756,0.8091603,10
1341,-0.09197998,-0.05633545,-0.062438965,0.6259542,3.8625953,-1.0305344,10
1342,-0.09442139,-0.05291748,-0.061767578,-3.610687,4.59542,-2.59542,10
1343,-0.08544922,-0.059753418,-0.06274414,-1.9541985,2.0458016,-1.259542,10
1344,-0.08929443,-0.059814453,-0.055419922,0.9236641,1.0076336,-1.5877863,10
1345,-0.09484863,-0.060058594,-0.059814453,1.8931298,1.2366412,-0.740458,10
1346,-0.09472656,-0.0579834,-0.05480957,-1.1450381,1.5267175,-2.9770992,10
1347,-0.093444824,-0.06274414,-0.055847168,-0.5801527,1.4351145,-2.4732823,10
1348,-0.0914917,-0.061401367,-0.054992676,-1.2824427,1.8625954,-1.8778626,10
1349,-0.08850098,-0.057739258,-0.06274414,-3.5114503,-1.4732825,-2.1984732,10
1350,-0.090026855,-0.05847168,-0.06524658,-4.1603055,-0.07633588,-0.7557252,10
1351,-0.09136963,-0.054382324,-0.07446289,-3.2519083,-0.3053435,-2.8854961,10
1352,-0.09814453,-0.059814453,-0.057617188,-2.351145,1.6335878,-1.3282443,10
1353,-0.093688965,-0.059631348,-0.0546875,-1.7328244,3.4885497,-1.0839695,10
1354,-0.08843994,-0.055419922,-0.0625,0.54198474,3.7099237,-2.5877862,10
1355,-0.09259033,-0.05895996,-0.055480957,2.6412213,1.4045801,-3.4351146,10
1356,-0.09753418,-0.054626465,-0.054504395,-0.52671754,1.4351145,-4.374046,10
1357,-0.08459473,-0.052001953,-0.047668457,0.22137405,0.9465649,-1.519084,10
1358,-0.091674805,-0.06512451,-0.05493164,1,0.99236643,0.007633588,10
1359,-0.09613037,-0.059814453,-0.06512451,0.40458015,-1.5648855,-2.1755726,10
1360,-0.09173584,-0.055114746,-0.071899414,-0.79389316,1.8473282,-1.5419847,10
1361,-0.090026855,-0.05822754,-0.06542969,-0.5496183,2.1984732,-0.33587787,10
1362,-0.09075928,-0.053222656,-0.060058594,-3.8015268,1.8015267,-3.4885497,10
1363,-0.09246826,-0.059143066,-0.06604004,-3.7251909,0.648855,-2.2366412,10
1364,-0.08984375,-0.057006836,-0.06555176,-0.52671754,1.1908396,-2.2442749,10
1365,-0.09277344,-0.059448242,-0.054870605,-1.091603,0.22900763,-2.740458,10
1366,-0.089660645,-0.054016113,-0.059753418,-1.2671756,2.427481,-1.8625954,10
1367,-0.09710693,-0.05871582,-0.060546875,-3.129771,0.15267175,-1.7099236,10
1368,-0.09161377,-0.060668945,-0.054260254,-2.0152671,0.46564886,-1.038168,10
1369,-0.09051514,-0.05706787,-0.059387207,-1.480916,-1.5725191,-1.0610687,10
1370,-0.09124756,-0.05822754,-0.05871582,-1.9541985,0.17557251,-0.34351146,10
1371,-0.09503174,-0.05328369,-0.054138184,-1.870229,1.2442749,-1.7709924,10
1372,-0.096069336,-0.057128906,-0.055908203,-0.122137405,1.7862595,-0.67175573,10
1373,-0.09881592,-0.055603027,-0.06591797,1.3969465,2.0076337,-1.1145039,10
1374,-0.0982666,-0.059020996,-0.05078125,1.5572519,2.7175572,-2.312977,10
1375,-0.08862305,-0.06298828,-0.058898926,-1.0305344,1.8931298,-1.2748091,10
1376,-0.09326172,-0.057922363,-0.057861328,-1.4198474,0.8854962,-2.0992367,10
1377,-0.09265137,-0.061401367,-0.054626465,-4.5038166,0.5496183,-1.0763359,10
1378,-0.093933105,-0.05432129,-0.053527832,-4.6870227,0.015267176,-3,10
1379,-0.09106445,-0.055847168,-0.059509277,-3.480916,-0.5114504,-1.519084,10
1380,-0.08892822,-0.06011963,-0.049987793,-0.9465649,-0.14503817,-0.091603056,10
1381,-0.092041016,-0.05444336,-0.059692383,-0.19847329,0.41984734,-1.3664122,10
1382,-0.09710693,-0.05279541,-0.0657959,0.9694657,2.5419848,-0.053435113,10
1383,-0.09124756,-0.05291748,-0.052734375,1.6793894,1.7175573,-2.7709923,10
1384,-0.09881592,-0.06121826,-0.06286621,0.60305345,1.7633588,-2.8015268,10
1385,-0.09503174,-0.0592041,-0.059143066,-0.24427481,1.3969465,-2.7251909,10
1386,-0.09362793,-0.05718994,-0.06591797,0.6793893,1.4580153,-0.29007635,10
1387,-0.092285156,-0.05480957,-0.06213379,0.15267175,3.1755726,-3.7557251,10
1388,-0.091552734,-0.057128906,-0.057128906,1.7709924,1.7175573,-1.0610687,10
1389,-0.09136963,-0.060180664,-0.061462402,1.2137405,1.4198474,-0.8167939,10
1390,-0.092163086,-0.0602417,-0.06903076,0.32061067,0.8015267,-1.9236641,10
1391,-0.09875488,-0.061279297,-0.055603027,0.38931298,2.5648854,-1,10
1392,-0.09411621,-0.058898926,-0.061401367,0.48854962,3.832061,-1.778626,10
1393,-0.09423828,-0.05810547,-0.06201172,-1.6641221,1.6030535,-3.6183207,10
1394,-0.09246826,-0.061279297,-0.05053711,0.20610687,0.740458,-0.8167939,10
1395,-0.08856201,-0.051818848,-0.0435791,0.96183205,0.4427481,-3.0229008,10
1396,-0.09051514,-0.05657959,-0.07196045,-4.4198475,0.015267176,-1.5419847,10
1397,-0.09765625,-0.05883789,-0.05834961,6.1374044,-0.7557252,0.64122134,10
1398,-0.09832764,-0.06213379,-0.061157227,14.877863,6.152672,3.2519083,10
1399,-0.093566895,-0.061035156,-0.05718994,5.114504,8.022901,0.57251906,10
1400,-0.086364746,-0.059265137,-0.064208984,-2.534351,2.534351,-0.9389313,10
1401,-0.09265137,-0.05682373,-0.05218506,0.32061067,0.8015267,-1.0763359,10
1402,-0.09161377,-0.06793213,-0.039855957,-0.36641222,1.4732825,-3.1145039,10
1403,-0.096069336,-0.059448242,-0.054016113,-6.4198475,1.5343511,-2.8625953,10
1404,-0.096191406,-0.053344727,-0.061401367,-8.458015,0.14503817,-3.59542,10
1405,-0.087402344,-0.054016113,-0.059265137,-10.656488,-2.6717558,-2.6030533,10
1406,-0.088378906,-0.054870605,-0.06237793,-7.068702,-1.5801526,-0.97709924,10
1407,-0.09411621,-0.053649902,-0.0569458,-4.59542,-1.0763359,1.3435115,10
1408,-0.09906006,-0.05871582,-0.044067383,-2.1221373,-0.52671754,-0.97709924,10
1409,-0.09234619,-0.053833008,-0.06536865,-1.0992366,-0.89312977,-1.1526718,10
1410,-0.094177246,-0.049926758,-0.062805176,-2.2671757,1.4122137,-0.7099237,10
1411,-0.09716797,-0.0546875,-0.06512451,-1.6641221,-0.47328246,-0.6335878,10
1412,-0.09124756,-0.054016113,-0.05847168,-1.7099236,0.22900763,-1.0839695,10
1413,-0.09490967,-0.06097412,-0.06524658,0.5648855,1.6946565,-1.1068702,10
1414,-0.09716797,-0.061828613,-0.06390381,-2.5877862,1.6641221,-3.129771,10
1415,-0.09490967,-0.059814453,-0.063964844,-2.5038168,2.0687022,-2.076336,10
1416,-0.092163086,-0.056152344,-0.056152344,-0.8549618,1.221374,-2.3282442,10
1417,-0.09527588,-0.0569458,-0.0625,0.17557251,-0.129771,-3.648855,10
1418,-0.09454346,-0.059448242,-0.05834961,-0.259542,1.870229,-1.8854961,10
1419,-0.09442139,-0.06274414,-0.066223145,1.7099236,2.5496182,-1.6564885,10
1420,-0.09667969,-0.059692383,-0.05407715,-0.90076333,1.389313,-2.0458016,10
1421,-0.09423828,-0.05822754,-0.055786133,-3.9847329,2.9923663,-3.0305343,10
1422,-0.0871582,-0.05078125,-0.05999756,-1.5496184,1.6870229,-3.7557251,10
1423,-0.09442139,-0.060302734,-0.05883789,-1.7175573,-0.20610687,-2.0229008,10
1424,-0.08685303,-0.055114746,-0.057617188,-4.480916,-1.7480916,-2.3587787,10
1425,-0.09289551,-0.053222656,-0.0592041,-3.4198472,-0.17557251,-0.97709924,10
1426,-0.09185791,-0.06072998,-0.055664062,-2.076336,1.5572519,-0.22900763,10
1427,-0.09710693,-0.062561035,-0.05517578,-2.572519,0.061068702,-3.6793892,10
1428,-0.09539795,-0.057861328,-0.052856445,-2.8778627,-0.18320611,-2.1984732,10
1429,-0.091796875,-0.058288574,-0.049072266,-2.816794,-0.10687023,-2.5038168,10
1430,-0.09741211,-0.055541992,-0.06896973,-3.335878,0.40458015,-3.664122,10
1431,-0.09454346,-0.054260254,-0.049072266,-2.778626,2.2137403,-3.816794,10
1432,-0.09552002,-0.055664062,-0.054016113,-0.259542,0.29007635,-1.8244275,10
1433,-0.092163086,-0.056518555,-0.06121826,0.22137405,0.73282444,-1.9236641,10
1434,-0.09844971,-0.05444336,-0.054138184,0.39694658,2.183206,-1.2671756,10
1435,-0.099121094,-0.059509277,-0.058288574,-0.77862597,2.129771,-1.648855,10
1436,-0.09875488,-0.06402588,-0.057922363,-1.29771,2.8549619,-1.0687023,10
1437,-0.09173584,-0.0524292,-0.060546875,-1,1.6793894,-2.1145039,10
1438,-0.09411621,-0.05987549,-0.06427002,-0.1908397,0.49618322,-0.114503816,10
1439,-0.0960083,-0.055114746,-0.057495117,-2.29771,1.5038168,-1.0458015,10
1440,-0.097717285,-0.06011963,-0.053222656,-4.6870227,1.9770992,-1.3664122,10
1441,-0.09100342,-0.053955078,-0.0569458,-2.4198472,1.7633588,-1.70229,10
1442,-0.09729004,-0.053100586,-0.052490234,-2.0687022,1.0229008,-2.3206108,10
1443,-0.095947266,-0.056274414,-0.06329346,-2.1526718,0.9389313,-2.259542,10
1444,-0.09033203,-0.057250977,-0.053344727,-3.0610688,0.4274809,-0.5954198,10
1445,-0.09893799,-0.055664062,-0.061035156,-4.5038166,0.7099237,-2.259542,10
1446,-0.09484863,-0.055236816,-0.06109619,-2.4198472,0.8015267,-1.0152671,10
1447,-0.09692383,-0.05114746,-0.049316406,-3.1145039,1.2748091,0.3129771,10
1448,-0.08905029,-0.054138184,-0.05609131,-1.5954199,0.091603056,-0.99236643,10
1449,-0.09173584,-0.055541992,-0.060791016,0.061068702,1.961832,-1.5725191,10
1450,-0.0947876,-0.060424805,-0.06036377,-0.97709924,1.2290076,-2.1450381,10
1451,-0.087524414,-0.061340332,-0.060302734,-2.9312978,0.4274809,-0.97709924,10
1452,-0.09387207,-0.056152344,-0.059326172,-2.389313,0.41221374,-1.4732825,10
1453,-0.093933105,-0.053527832,-0.06378174,-2.4122138,1.091603,-1.2366412,10
1454,-0.09320068,-0.05871582,-0.057495117,-1.5267175,1.0076336,-2.259542,10
1455,-0.09448242,-0.057617188,-0.061401367,-1.8625954,2.29771,-3.946565,10
1456,-0.09259033,-0.057373047,-0.05407715,-1.648855,0.83206105,-1.3587786,10
1457,-0.09539795,-0.055786133,-0.057800293,-0.3053435,0.65648854,-2.335878,10
1458,-0.09118652,-0.05645752,-0.066711426,0.4274809,1.9847329,-2.3435113,10
1459,-0.09680176,-0.060424805,-0.057128906,-1.8244275,2.076336,-0.045801528,10
1460,-0.09210205,-0.057678223,-0.06707764,-1.610687,1.5725191,-1.351145,10
1461,-0.09576416,-0.054382324,-0.06542969,-2.6564887,0.870229,-2.1908398,10
1462,-0.09631348,-0.054138184,-0.06085205,-4.19084,-0.23664123,-2.4351146,10
1463,-0.09515381,-0.05609131,-0.064941406,-1.4656489,0.16793893,-1.3740458,10
1464,-0.092285156,-0.057373047,-0.058654785,-2.4198472,-0.7633588,-1.5114504,10
1465,-0.0914917,-0.053649902,-0.06201172,-3.6717558,1.2442749,-0.9236641,10
1466,-0.091674805,-0.059936523,-0.07165527,-0.9847328,1.5038168,-1.4656489,10
1467,-0.09277344,-0.057373047,-0.06188965,1.8854961,1.1526718,-2.2824428,10
1468,-0.094055176,-0.05822754,-0.05633545,1.0839695,2.2748091,-0.41984734,10
1469,-0.09429932,-0.05255127,-0.06451416,-0.7557252,3.1450381,-0.9465649,10
1470,-0.098083496,-0.05810547,-0.0592041,-1.351145,2.0458016,-2.076336,10
1471,-0.09753418,-0.052124023,-0.055358887,-2.4885497,2,-3.3206108,10
1472,-0.0927124,-0.05731201,-0.057556152,-3.465649,1.4122137,-1.4351145,10
1473,-0.0925293,-0.055419922,-0.0579834,-4.5419846,-0.3053435,-1.1755725,10
1474,-0.092285156,-0.059143066,-0.052734375,-4.8778625,0.20610687,-3.0610688,10
1475,-0.096191406,-0.0546875,-0.04522705,-2.9694657,0.3816794,-3.7480917,10
1476,-0.093933105,-0.06085205,-0.05883789,-1,-1.7633588,-1.8396946,10
1477,-0.091308594,-0.056030273,-0.05645752,0.32061067,1.5572519,-2.40458,10
1478,-0.09832764,-0.05407715,-0.05999756,0.6259542,0.64122134,-0.67175573,10
1479,-0.08734131,-0.048828125,-0.06286621,0.66412216,2.335878,-3.038168,10
1480,-0.09436035,-0.06585693,-0.062927246,-0.3740458,3.1145039,-1.5725191,10
1481,-0.096191406,-0.053710938,-0.056274414,-3.5877862,0.45038167,-3.687023,10
1482,-0.0927124,-0.058288574,-0.057250977,-2.2137403,1.4656489,-2.8015268,10
1483,-0.08905029,-0.05633545,-0.06121826,-3.5114503,-1.5496184,-2.1984732,10
1484,-0.09680176,-0.062072754,-0.061706543,-4.2824426,0.648855,-3.0687022,10
1485,-0.095947266,-0.054260254,-0.06323242,-3.4961832,-1.3358779,-1.6412214,10
1486,-0.09301758,-0.054016113,-0.062194824,-6.0229006,0.10687023,-2.793893,10
1487,-0.09515381,-0.055725098,-0.055725098,-4.9007635,1.0534351,-4.9465647,10
1488,-0.10101318,-0.057617188,-0.06237793,-6.068702,-0.053435113,-2.946565,10
1489,-0.097595215,-0.055908203,-0.062561035,-3.427481,-0.8549618,-1.4427481,10
1490,-0.09460449,-0.053771973,-0.053344727,-2.8091602,0.54198474,-2.0839694,10
1491,-0.09082031,-0.058776855,-0.058532715,-2.335878,-0.40458015,-3.465649,10
1492,-0.10235596,-0.057495117,-0.053955078,0.22137405,1.2366412,-0.8854962,10
1493,-0.09338379,-0.05407715,-0.061584473,0.03816794,-0.46564886,-2.1068702,10
1494,-0.09307861,-0.056640625,-0.055114746,-1.9770992,0.15267175,-1.5038168,10
1495,-0.09503174,-0.05718994,-0.06384277,-1.9847329,2.8091602,-0.9694657,10
1496,-0.09338379,-0.054504395,-0.059753418,-3.038168,0.77099234,-3.038168,10
1497,-0.099365234,-0.05645752,-0.06201172,-1.3129771,0.33587787,-0.66412216,10
1498,-0.09686279,-0.04937744,-0.055358887,-1.9160305,0.5954198,-0.9847328,10
1499,-0.08929443,-0.05267334,-0.06323242,0.78625953,0.35114503,0.47328246,10
1500,-0.09350586,-0.05871582,-0.05895996,0.24427481,1.259542,-1.8091604,10
1501,-0.090270996,-0.053833008,-0.05529785,0.10687023,0.64122134,-3.8015268,10
1502,-0.095214844,-0.061035156,-0.062316895,-2.7709923,-0.6870229,-4.3511453,10
1503,-0.087890625,-0.056152344,-0.059570312,-6.5114503,-1.1221374,-4.7480917,10
1504,-0.09295654,-0.057678223,-0.06317139,-8.78626,0.9389313,-3.9007633,10
1505,-0.095214844,-0.0513916,-0.06060791,-5.7175574,0.9236641,-3.4503818,10
1506,-0.09741211,-0.054992676,-0.066711426,-1.3206106,1.5877863,-3.4885497,10
1507,-0.08996582,-0.057495117,-0.05987549,-0.07633588,2.29771,-1.5114504,10
1508,-0.10028076,-0.05218506,-0.055236816,4.519084,3.0610688,-0.099236645,10
1509,-0.092163086,-0.05493164,-0.058654785,9.167939,4.0305343,-2.335878,10
1510,-0.09918213,-0.05505371,-0.05822754,9.564885,4.0839696,0.40458015,10
1511,-0.09442139,-0.055603027,-0.050231934,10.022901,5.4580154,0.6259542,10
1512,-0.09100342,-0.057495117,-0.049804688,3.3282442,2.961832,-0.7633588,10
1513,-0.0927124,-0.056274414,-0.061767578,-2.0687022,2.610687,-2.3969467,10
1514,-0.093811035,-0.05670166,-0.055908203,-2.9541984,-1.2671756,-1.6259542,10
1515,-0.09051514,-0.05255127,-0.06616211,-3.2671757,0.16030534,-0.3740458,10
1516,-0.09161377,-0.057434082,-0.064331055,-3.7328243,2.1755726,-2.648855,10
1517,-0.09753418,-0.057006836,-0.062683105,-1.0305344,3.3206108,-1.740458,10
1518,-0.095825195,-0.056152344,-0.061401367,3.923664,4.9541984,-1.2290076,10
1519,-0.089660645,-0.057128906,-0.061035156,1.8091604,1.4732825,-0.77862597,10
1520,-0.08898926,-0.059326172,-0.060424805,1.9236641,0.45038167,-0.41984734,10
1521,-0.09484863,-0.059143066,-0.06414795,-1.0687023,-0.48854962,-0.24427481,10
1522,-0.099975586,-0.061462402,-0.058288574,-3.221374,2.8244274,0.061068702,10
1523,-0.093444824,-0.060302734,-0.054992676,-4.6946564,0.870229,-1.9770992,10
1524,-0.09246826,-0.055786133,-0.06774902,-6.8702292,-0.36641222,0.870229,10
1525,-0.09844971,-0.05255127,-0.06011963,-7.9465647,-2.778626,1.3587786,10
1526,-0.095703125,-0.05407715,-0.05999756,-8.183207,-1.6717557,-1.1374046,10
1527,-0.0914917,-0.0569458,-0.06225586,-6.366412,-1.4351145,-0.8091603,10
1528,-0.09448242,-0.05493164,-0.050354004,-6.0229006,-0.8549618,-1.3816794,10
1529,-0.09063721,-0.056518555,-0.06604004,-2.427481,-1.5419847,-0.67175573,10
1530,-0.09020996,-0.053466797,-0.053833008,-1.8778626,-0.015267176,-1.9312977,10
1531,-0.08782959,-0.056152344,-0.061157227,-1.7633588,0.9389313,-1.8854961,10
1532,-0.095214844,-0.05505371,-0.05706787,0.648855,2.3740458,-2.0839694,10
1533,-0.09667969,-0.058532715,-0.057006836,0.4274809,1.4961832,-2.0229008,10
1534,-0.09954834,-0.056762695,-0.053649902,2.7251909,3.427481,0.48854962,10
1535,-0.09277344,-0.06335449,-0.06237793,2.5648854,2.9923663,-1.091603,10
1536,-0.095458984,-0.057861328,-0.059143066,2.427481,1.2366412,-0.22900763,10
1537,-0.087890625,-0.05517578,-0.057434082,2.2671757,3.038168,-1.0152671,10
1538,-0.099243164,-0.056884766,-0.059143066,1.3358779,3.7328243,-3.1374047,10
1539,-0.091674805,-0.06109619,-0.060546875,2.5114503,3.5419848,-3.129771,10
1540,-0.09082031,-0.0546875,-0.066467285,0.114503816,1.1526718,-0.3740458,10
1541,-0.0871582,-0.059936523,-0.05731201,0.36641222,0.26717559,-2.519084,10
1542,-0.09820557,-0.057250977,-0.07092285,-2.2671757,1.1374046,-1.5419847,10
1543,-0.0960083,-0.05908203,-0.05859375,-3.9312978,0.83206105,-3.2748091,10
1544,-0.08703613,-0.049438477,-0.05883789,-3.3816793,0.22137405,-1.6946565,10
1545,-0.0859375,-0.052490234,-0.053771973,-4.587786,1.8549619,-1.7480916,10
1546,-0.08868408,-0.057617188,-0.058288574,-5.3893127,0.7480916,-2.1450381,10
1547,-0.093322754,-0.055419922,-0.064819336,-5.3435116,-0.9160305,-2.1221373,10
1548,-0.09631348,-0.050048828,-0.05230713,-6.0534353,-2.221374,-2.1755726,10
1549,-0.09667969,-0.050964355,-0.061706543,-5.5725193,-2.5496182,-2.351145,10
1550,-0.08947754,-0.049804688,-0.059387207,-5.076336,-2.816794,-2.946565,10
1551,-0.08911133,-0.052856445,-0.053771973,-2.0152671,-2.076336,-1.0610687,10
1552,-0.094177246,-0.05444336,-0.05456543,1.648855,-0.24427481,-3.2519083,10
1553,-0.09637451,-0.053955078,-0.06616211,4.4656487,1.0610687,0.55725193,10
1554,-0.097351074,-0.055603027,-0.062316895,3.2290077,3.816794,-0.8015267,10
1555,-0.1015625,-0.05419922,-0.054504395,4.374046,3.7862597,-1.870229,10
1556,-0.08972168,-0.05609131,-0.06451416,1.5877863,2.2900763,-0.08396947,10
1557,-0.08874512,-0.05706787,-0.061706543,0.53435117,2.351145,-2.038168,10
1558,-0.089782715,-0.05328369,-0.050720215,-0.8091603,-0.122137405,-0.26717559,10
1559,-0.09765625,-0.05621338,-0.062927246,-3.5648854,-0.22137405,-1.740458,10
1560,-0.09967041,-0.057373047,-0.055358887,-4.5419846,0.3740458,-1.7175573,10
1561,-0.086364746,-0.057678223,-0.05493164,-5.80916,0.27480915,-2.4885497,10
1562,-0.09820557,-0.059570312,-0.06573486,-3.6564887,-1.3282443,-2.6335878,10
1563,-0.0914917,-0.06109619,-0.06463623,-2.6030533,-1,-1.1526718,10
1564,-0.0925293,-0.060302734,-0.05670166,-1.9007634,-0.78625953,-2.221374,10
1565,-0.092041016,-0.05255127,-0.06903076,-2.351145,1.3740458,-2.923664,10
1566,-0.10083008,-0.05670166,-0.05255127,2.053435,1.6641221,-0.86259544,10
1567,-0.09350586,-0.054626465,-0.058776855,1.129771,2.6793892,-2.557252,10
1568,-0.10015869,-0.05670166,-0.058532715,2.8015268,2.183206,-2.534351,10
1569,-0.095336914,-0.06323242,-0.0635376,1.0534351,1.0992366,-2.206107,10
1570,-0.09490967,-0.05206299,-0.06262207,-0.7633588,1.8931298,-0.9694657,10
1571,-0.09942627,-0.057678223,-0.06359863,-1.6641221,1.9236641,-1.7633588,10
1572,-0.099121094,-0.054260254,-0.06311035,0.259542,-0.64122134,-0.3740458,10
1573,-0.10235596,-0.05633545,-0.06378174,-1.1984733,0.7251908,1.3435115,10
1574,-0.09118652,-0.05444336,-0.0625,-1.6793894,2.2442749,-1.4351145,10
1575,-0.10736084,-0.059448242,-0.06945801,0.6259542,0.53435117,0.3740458,10
1576,-0.099975586,-0.061645508,-0.061340332,0.41221374,0.77862597,-1.0534351,10
1577,-0.097717285,-0.05847168,-0.061950684,-0.48854962,0.66412216,-1.3358779,10
1578,-0.095581055,-0.06072998,-0.06085205,-0.38931298,0.35114503,-1.8931298,10
1579,-0.103271484,-0.057678223,-0.072265625,-1.8244275,1.2900764,-1.29771,10
1580,-0.10101318,-0.05859375,-0.06604004,-0.89312977,1.8625954,-0.5801527,10
1581,-0.096191406,-0.05682373,-0.06677246,-0.7633588,0.4427481,-2.351145,10
1582,-0.107421875,-0.057495117,-0.06530762,-1.70229,0.7557252,-2.6717558,10
1583,-0.10748291,-0.05859375,-0.061706543,-1.4885496,-0.129771,-2.816794,10
1584,-0.09503174,-0.05847168,-0.07092285,-3.2290077,0.52671754,-2.167939,10
1585,-0.09539795,-0.06286621,-0.0637207,-3.0458016,-0.08396947,-2.9160306,10
1586,-0.10058594,-0.054992676,-0.053466797,-2.572519,0.27480915,-1.5343511,10
