measurement,Acc_X,Acc_Y,Acc_Z,Gyr_X,Gyr_Y,Gyr_Z,Mag_X,Mag_Y,Mag_Z
0.0,0.11529541,-0.03765869,0.04699707,29.76336,-10.343512,-12.572519,257.0,-30327.0,0.0
1.0,0.11413574,-0.03314209,0.04901123,59.40458,-8.0992365,-12.893129,257.0,-30327.0,0.0
2.0,0.111694336,-0.024475098,0.0501709,61.229008,-12.328244,-9.557252,257.0,-30070.0,0.0
3.0,0.110839844,-0.022888184,0.05718994,49.030533,-15.328244,-6.664122,257.0,-30070.0,0.0
4.0,0.11401367,-0.022644043,0.053894043,44.923664,-16.603054,-2.206107,257.0,-30070.0,0.0
5.0,0.11413574,-0.02142334,0.054260254,39.450382,-17.274809,-1.9465649,257.0,-30070.0,0.0
6.0,0.11437988,-0.019592285,0.05267334,25.946566,-19.67939,0.091603056,257.0,-30070.0,0.0
7.0,0.115722656,-0.017578125,0.051452637,8.709924,-9.2595415,-4.2137403,257.0,-30070.0,0.0
8.0,0.11254883,-0.0178833,0.054260254,-9.297709,-8.450381,-4.816794,257.0,-30070.0,0.0
9.0,0.111572266,-0.024963379,0.04876709,-10.679389,-8.725191,-5.3893127,257.0,-30070.0,0.0
10.0,0.11029053,-0.024230957,0.04937744,-7.5114503,-5.7557254,-7.8625956,257.0,-30070.0,0.0
11.0,0.111694336,-0.022766113,0.05218506,-0.007633588,-5.923664,-10.068703,257.0,-30070.0,0.0
12.0,0.11328125,-0.024047852,0.053466797,10.290076,-8.366412,-11.549619,257.0,-30070.0,0.0
13.0,0.112976074,-0.021057129,0.05670166,14.549619,-2.7633588,-12.427481,257.0,-30070.0,0.0
14.0,0.11291504,-0.016906738,0.059753418,11.38168,-2.870229,-12.770992,257.0,-30070.0,0.0
15.0,0.11633301,-0.014892578,0.06298828,0.5801527,-1.3740458,-14.473283,257.0,-30070.0,0.0
16.0,0.11602783,-0.01751709,0.062072754,-6.2366414,6.19084,-16.068703,257.0,-30070.0,0.0
17.0,0.12371826,-0.013061523,0.045715332,-17.038168,10.519084,-12.229008,257.0,-30070.0,0.0
18.0,0.121032715,-0.017211914,0.05987549,-18.633587,11.748092,-17.282442,257.0,-30070.0,0.0
19.0,0.11987305,-0.016662598,0.06384277,-14.992367,15.9007635,-13.511451,257.0,-30070.0,0.0
20.0,0.117370605,-0.0146484375,0.06036377,-16.717558,17.091602,-15.519084,257.0,-30070.0,0.0
21.0,0.11657715,-0.016357422,0.05999756,-18.007633,15.702291,-18.977098,257.0,-30070.0,0.0
22.0,0.11657715,-0.0154418945,0.06085205,-12.229008,19.93893,-18.496183,257.0,-30070.0,0.0
23.0,0.117248535,-0.014221191,0.058532715,-12.977099,20.839695,-21.274809,257.0,-30070.0,0.0
24.0,0.119506836,-0.013427734,0.057922363,-18.786259,21.832062,-25.213741,257.0,-30070.0,0.0
25.0,0.11871338,-0.010620117,0.059387207,-29.709923,25.229008,-20.404581,257.0,-30070.0,0.0
26.0,0.12695312,-0.0095825195,0.049865723,-46.40458,24.633587,-23.496183,257.0,-30070.0,0.0
27.0,0.13702393,-0.013061523,0.04815674,-61.20611,24.76336,-26.67939,257.0,-30070.0,0.0
28.0,0.12567139,-0.012329102,0.04949951,-77.99236,27.51145,-16.534351,257.0,-30070.0,0.0
29.0,0.12695312,-0.012634277,0.0491333,-100.66412,23.183207,-15.114504,257.0,-30070.0,0.0
30.0,0.11444092,-0.015319824,0.045166016,-108.94656,26.122137,-5.9465647,257.0,-30070.0,0.0
31.0,0.10748291,-0.017211914,0.038208008,-109.62595,28.709923,-1.9389313,257.0,-30070.0,0.0
32.0,0.101257324,-0.0154418945,0.030761719,-102.76336,32.21374,3.29771,257.0,-30070.0,0.0
33.0,0.095336914,-0.011230469,0.027893066,-86.27481,33.541985,1.351145,257.0,-30070.0,0.0
34.0,0.09436035,9.765625E-4,0.020263672,-74.091606,29.152672,-3.2748091,257.0,-30070.0,0.0
35.0,0.10028076,-0.0014648438,0.016601562,-61.78626,12.656488,-18.603054,257.0,-30070.0,0.0
36.0,0.10253906,-0.0018310547,0.027770996,-58.312977,-4.1984735,-39.900764,257.0,-30070.0,0.0
37.0,0.11090088,0.0045776367,0.023132324,-68.74809,-22.122137,-54.770992,257.0,-30070.0,0.0
38.0,0.1194458,0.0049438477,0.019226074,-80.07633,-35.519085,-54.419846,257.0,-30070.0,0.0
39.0,0.1282959,0.003112793,0.017578125,-87.0,-46.076336,-54.49618,257.0,-29813.0,0.0
40.0,0.13079834,0.0010375977,0.019226074,-81.503815,-57.099236,-54.78626,257.0,-29813.0,0.0
41.0,0.1282959,-1.2207031E-4,0.028015137,-75.259544,-62.091602,-54.374046,257.0,-29813.0,0.0
42.0,0.122924805,-7.9345703E-4,0.03741455,-93.740456,-65.00764,-54.51145,257.0,-29813.0,0.0
43.0,0.11755371,-0.0029907227,0.041931152,-127.9771,-72.01527,-54.46565,257.0,-29813.0,0.0
44.0,0.11663818,-0.014038086,0.037963867,-137.76335,-79.21374,-54.76336,257.0,-29813.0,0.0
45.0,0.11730957,-0.024536133,0.038513184,-119.381676,-68.69466,-54.572517,257.0,-29813.0,0.0
46.0,0.11791992,-0.026062012,0.043762207,-106.40458,-64.71756,-54.40458,257.0,-29813.0,0.0
47.0,0.12414551,-0.027404785,0.058288574,-101.419846,-69.0458,-53.801525,257.0,-29813.0,0.0
48.0,0.13287354,-0.024475098,0.06311035,-103.40458,-64.87023,-54.40458,257.0,-29813.0,0.0
49.0,0.14141846,-0.019958496,0.05895996,-110.824425,-60.709923,-54.282444,257.0,-29813.0,0.0
50.0,0.13128662,-0.01776123,0.055114746,-124.0,-35.946564,-40.068703,257.0,-29813.0,0.0
51.0,0.13433838,-0.024719238,0.053955078,-115.59542,-40.801525,-37.27481,257.0,-29813.0,0.0
52.0,0.13671875,-0.030822754,0.05328369,-104.63359,-19.259542,-27.694656,257.0,-29813.0,0.0
53.0,0.12908936,-0.036071777,0.05407715,-84.08397,-2.0687022,-20.526718,257.0,-29813.0,0.0
54.0,0.1227417,-0.039123535,0.05407715,-65.8855,9.641221,-16.70229,257.0,-29813.0,0.0
55.0,0.12609863,-0.041381836,0.054748535,-50.870228,15.206107,-19.89313,257.0,-29813.0,0.0
56.0,0.124938965,-0.045532227,0.053588867,-35.732826,26.93893,-15.503817,257.0,-29813.0,0.0
57.0,0.11987305,-0.04827881,0.051330566,-20.480917,29.610687,-11.282443,257.0,-29813.0,0.0
58.0,0.1305542,-0.04534912,0.039611816,-8.793893,38.67939,-3.0076337,257.0,-29813.0,0.0
59.0,0.13641357,-0.04449463,0.039367676,-2.0839694,49.93893,13.206107,257.0,-29813.0,0.0
60.0,0.14794922,-0.04711914,0.03326416,-1.4961832,58.59542,32.183205,257.0,-29813.0,0.0
61.0,0.16015625,-0.045166016,0.020629883,-2.5877862,66.496185,60.862595,257.0,-29813.0,0.0
62.0,0.17504883,-0.042541504,0.014953613,0.7099237,69.35878,94.24428,257.0,-29813.0,0.0
63.0,0.18579102,-0.036621094,0.011169434,5.2900763,70.57252,132.16794,257.0,-29813.0,0.0
64.0,0.18353271,-0.0289917,0.011230469,4.5725193,68.862595,172.64122,257.0,-29813.0,0.0
65.0,0.17303467,-0.026306152,0.015991211,12.488549,61.564884,202.40459,257.0,-29813.0,0.0
66.0,0.16595459,-0.027709961,0.021728516,23.740458,50.290077,222.21375,257.0,-29813.0,0.0
67.0,0.15209961,-0.020507812,0.026306152,31.343512,44.251907,233.50381,257.0,-29813.0,0.0
68.0,0.14001465,-0.021850586,0.022888184,27.687023,41.65649,232.03816,257.0,-29813.0,0.0
69.0,0.1272583,-0.023071289,0.026428223,26.633587,36.91603,222.62596,257.0,-29813.0,0.0
70.0,0.1194458,-0.024658203,0.030212402,47.12214,40.40458,204.67175,257.0,-29813.0,0.0
71.0,0.1081543,-0.018371582,0.02734375,61.0229,44.72519,181.8626,257.0,-29813.0,0.0
72.0,0.09429932,-0.01776123,0.026000977,62.32061,48.51145,156.94656,257.0,-29813.0,0.0
73.0,0.08325195,-0.0146484375,0.03137207,57.053436,45.992367,126.96183,257.0,-29813.0,0.0
74.0,0.0769043,-0.013916016,0.03186035,43.778625,38.946564,93.70992,257.0,-29813.0,0.0
75.0,0.07763672,-0.015136719,0.033447266,29.625954,26.76336,54.244274,257.0,-29813.0,0.0
76.0,0.08105469,-0.01953125,0.033569336,17.534351,12.083969,14.374045,257.0,-29556.0,0.0
77.0,0.08526611,-0.022949219,0.03656006,6.70229,-5.114504,-32.67939,257.0,-29556.0,0.0
78.0,0.08404541,-0.018127441,0.034362793,-16.755726,-20.862595,-62.34351,257.0,-29556.0,0.0
79.0,0.1027832,-0.017944336,0.028808594,-34.900764,-41.267174,-110.96183,257.0,-29556.0,0.0
80.0,0.10687256,-0.019348145,0.024597168,-53.419846,-60.366413,-147.73282,257.0,-29556.0,0.0
81.0,0.112976074,-0.025878906,0.034484863,-61.53435,-77.96947,-190.87787,257.0,-29556.0,0.0
82.0,0.11645508,-0.031311035,0.02734375,-53.82443,-87.419846,-224.29771,257.0,-29556.0,0.0
83.0,0.12158203,-0.039978027,0.051940918,-22.312977,-103.64886,-250.1374,257.0,-29556.0,0.0
84.0,0.14245605,-0.04925537,0.055908203,22.25191,-114.73283,-250.1374,257.0,-29556.0,0.0
85.0,0.16638184,-0.04699707,0.039978027,69.72519,-116.47328,-250.1374,257.0,-29556.0,0.0
86.0,0.17718506,-0.019470215,0.005554199,65.45038,-84.73283,-233.69466,257.0,-29556.0,0.0
87.0,0.16479492,4.272461E-4,0.012756348,15.916031,-52.51145,-169.19847,257.0,-29556.0,0.0
88.0,0.16296387,0.006225586,0.0335083,-53.076336,-49.900764,-99.44275,257.0,-29556.0,0.0
89.0,0.16064453,-0.0072021484,0.042297363,-104.03817,-43.954197,-54.244274,257.0,-29556.0,0.0
90.0,0.14733887,-0.026489258,0.044555664,-135.41222,-42.32061,-15.427481,257.0,-29556.0,0.0
91.0,0.13635254,-0.047302246,0.06188965,-135.54962,-48.52672,-3.946565,257.0,-29556.0,0.0
92.0,0.12030029,-0.055603027,0.04168701,-92.740456,-39.27481,-11.984733,257.0,-29556.0,0.0
93.0,0.109313965,-0.047546387,0.04034424,-35.732826,-32.732826,-22.076336,257.0,-29556.0,0.0
94.0,0.10235596,-0.038757324,0.04296875,9.885496,-27.08397,-24.610687,257.0,-29556.0,0.0
95.0,0.10449219,-0.029846191,0.050476074,20.007633,-22.305344,-29.625954,257.0,-29556.0,0.0
96.0,0.10620117,-0.02545166,0.0524292,8.847328,-16.641222,-43.10687,257.0,-29556.0,0.0
97.0,0.109313965,-0.024719238,0.056640625,-20.068703,-11.564885,-54.9771,257.0,-29556.0,0.0
98.0,0.11566162,-0.03173828,0.05517578,-39.564884,-7.0,-54.809162,257.0,-29556.0,0.0
99.0,0.121032715,-0.037597656,0.055236816,-45.053436,-4.59542,-64.55725,257.0,-29556.0,0.0
100.0,0.13122559,-0.0446167,0.04937744,-40.839695,-0.49618322,-74.65649,257.0,-29556.0,0.0
101.0,0.13439941,-0.053833008,0.056274414,-20.694656,0.8091603,-73.16031,257.0,-29556.0,0.0
102.0,0.1529541,-0.060791016,0.059692383,6.145038,-0.77099234,-64.70992,257.0,-29556.0,0.0
103.0,0.16027832,-0.05895996,0.053894043,31.167938,18.778625,-54.427483,257.0,-29556.0,0.0
104.0,0.1404419,-0.056030273,0.047851562,40.49618,39.67939,0.48854962,257.0,-29556.0,0.0
105.0,0.12597656,-0.04663086,0.04168701,47.38168,59.007633,54.587788,257.0,-29556.0,0.0
106.0,0.14086914,-0.037475586,0.032043457,62.030533,53.06107,99.15267,257.0,-29556.0,0.0
107.0,0.18286133,-0.028381348,0.01763916,72.31298,80.145035,138.89313,257.0,-29556.0,0.0
108.0,0.1928711,-0.024230957,0.011962891,74.061066,109.175575,178.9771,257.0,-29556.0,0.0
109.0,0.20227051,-0.019470215,0.016357422,61.427483,123.221375,199.52672,257.0,-29556.0,0.0
110.0,0.20227051,-0.018310547,0.023620605,34.46565,121.9771,217.61069,257.0,-29556.0,0.0
111.0,0.19152832,-0.015014648,0.026245117,-5.2824426,107.221375,227.57253,257.0,-29556.0,0.0
112.0,0.17663574,-0.018066406,0.024963379,-32.748093,88.08397,230.9542,257.0,-29556.0,0.0
113.0,0.16107178,-0.020202637,0.020324707,-44.34351,62.89313,227.76335,257.0,-29299.0,0.0
114.0,0.14471436,-0.022766113,0.01953125,-33.160305,48.12214,220.83206,257.0,-29299.0,0.0
115.0,0.11968994,-0.02557373,0.024597168,-2.3282442,39.519085,210.28244,257.0,-29299.0,0.0
116.0,0.0982666,-0.027282715,0.033325195,32.625954,35.580154,196.23665,257.0,-29299.0,0.0
117.0,0.08917236,-0.026794434,0.0357666,61.519085,34.633587,176.56488,257.0,-29299.0,0.0
118.0,0.082336426,-0.018615723,0.035949707,75.854965,33.84733,154.35115,257.0,-29299.0,0.0
119.0,0.06793213,-0.017211914,0.04284668,82.79389,32.87786,132.32062,257.0,-29299.0,0.0
120.0,0.055664062,-0.01586914,0.04852295,75.76336,30.641222,103.16031,257.0,-29299.0,0.0
121.0,0.0546875,-0.010620117,0.048706055,59.85496,23.435114,67.61069,257.0,-29299.0,0.0
122.0,0.053222656,-0.005859375,0.04663086,22.816793,14.80916,35.244274,257.0,-29299.0,0.0
123.0,0.052124023,-0.0037841797,0.046020508,-24.198473,4.19084,-2.0992367,257.0,-29299.0,0.0
124.0,0.05065918,-0.0119018555,0.048034668,-57.29771,-9.633588,-45.46565,257.0,-29299.0,0.0
125.0,0.07128906,-0.021240234,0.04248047,-71.45038,-32.160305,-90.51145,257.0,-29299.0,0.0
126.0,0.09069824,-0.02178955,0.034729004,-79.64886,-41.67939,-139.40459,257.0,-29299.0,0.0
127.0,0.10949707,-0.023498535,0.029968262,-84.96183,-57.52672,-192.24428,257.0,-29299.0,0.0
128.0,0.12243652,-0.02734375,0.03265381,-87.01527,-67.43511,-235.82443,257.0,-29299.0,0.0
129.0,0.13476562,-0.03540039,0.036071777,-77.32825,-76.71756,-250.1374,257.0,-29299.0,0.0
130.0,0.1519165,-0.046813965,0.04638672,-41.068703,-85.0687,-250.1374,257.0,-29299.0,0.0
131.0,0.18200684,-0.053588867,0.03515625,11.206107,-91.89313,-250.1374,257.0,-29299.0,0.0
132.0,0.19506836,-0.044555664,0.00970459,55.778625,-85.78626,-250.1374,257.0,-29299.0,0.0
133.0,0.18377686,-0.025756836,0.0033569336,55.946564,-59.53435,-243.35878,257.0,-29299.0,0.0
134.0,0.16955566,-0.008972168,0.019470215,14.0992365,-55.78626,-166.83206,257.0,-29299.0,0.0
135.0,0.17803955,0.012451172,0.03338623,-45.89313,-57.709923,-89.23664,257.0,-29299.0,0.0
136.0,0.18170166,-0.0017700195,0.032958984,-107.23664,-53.633587,-46.35878,257.0,-29299.0,0.0
137.0,0.17388916,-0.024047852,0.026428223,-150.7481,-51.70229,-21.19084,257.0,-29299.0,0.0
138.0,0.1519165,-0.047607422,0.02355957,-151.81679,-45.946564,-29.404581,257.0,-29299.0,0.0
139.0,0.12921143,-0.062438965,0.026000977,-104.541985,-37.114502,-54.664124,257.0,-29299.0,0.0
140.0,0.10784912,-0.055541992,0.03363037,-41.923664,-28.89313,-70.33588,257.0,-29299.0,0.0
141.0,0.09667969,-0.04486084,0.037353516,5.1755724,-24.57252,-84.41222,257.0,-29299.0,0.0
142.0,0.09851074,-0.03845215,0.046813965,19.51145,-27.06107,-93.45038,257.0,-29299.0,0.0
143.0,0.11071777,-0.031982422,0.046325684,10.2213745,-26.671755,-94.938934,257.0,-29299.0,0.0
144.0,0.12347412,-0.030578613,0.048339844,-14.7786255,-22.992367,-92.63359,257.0,-29299.0,0.0
145.0,0.13482666,-0.03363037,0.049926758,-40.52672,-15.274809,-86.16794,257.0,-29299.0,0.0
146.0,0.14776611,-0.04638672,0.04901123,-52.541985,-9.961832,-82.862595,257.0,-29299.0,0.0
147.0,0.1619873,-0.053833008,0.024597168,-40.93893,2.0458016,-69.98473,257.0,-29299.0,0.0
148.0,0.14117432,-0.060058594,0.047424316,-10.801527,8.992367,-54.541985,257.0,-29299.0,0.0
149.0,0.14337158,-0.05706787,0.04925537,18.580153,8.572519,-21.603054,257.0,-29299.0,0.0
150.0,0.1359253,-0.052612305,0.053833008,45.770992,20.549618,24.839695,257.0,-29042.0,0.0
151.0,0.1329956,-0.048950195,0.046142578,67.91603,28.282442,65.94656,257.0,-29042.0,0.0
152.0,0.12213135,-0.03753662,0.039001465,73.03817,53.44275,107.54962,257.0,-29042.0,0.0
153.0,0.13421631,-0.034973145,0.030151367,73.770996,62.625954,132.42747,257.0,-29042.0,0.0
154.0,0.16113281,-0.026855469,0.020812988,78.0458,86.99236,148.87022,257.0,-29042.0,0.0
155.0,0.18243408,-0.024902344,0.016662598,81.1145,103.73283,165.96184,257.0,-29042.0,0.0
156.0,0.21160889,-0.019348145,0.011474609,57.351147,119.29008,178.53435,257.0,-29042.0,0.0
157.0,0.21099854,-0.014404297,0.011230469,21.908398,129.9084,193.18321,257.0,-29042.0,0.0
158.0,0.19689941,-0.0072021484,0.013305664,-38.007633,105.24428,212.9771,257.0,-29042.0,0.0
159.0,0.19036865,-0.007751465,0.0119018555,-92.12214,76.099236,229.07634,257.0,-29042.0,0.0
160.0,0.17193604,-0.016540527,0.00982666,-111.229004,44.389313,240.48856,257.0,-29042.0,0.0
161.0,0.14892578,-0.028076172,0.009155273,-96.0687,19.068703,237.03816,257.0,-29042.0,0.0
162.0,0.12878418,-0.034240723,0.01171875,-47.49618,-3.7557251,224.0687,257.0,-29042.0,0.0
163.0,0.10821533,-0.036865234,0.02368164,18.89313,-11.557252,211.06107,257.0,-29042.0,0.0
164.0,0.095336914,-0.03466797,0.028564453,82.496185,-12.488549,192.54962,257.0,-29042.0,0.0
165.0,0.10333252,-0.015686035,0.027038574,122.854965,-5.847328,174.33588,257.0,-29042.0,0.0
166.0,0.08325195,0.003967285,0.026428223,128.55725,-2.3969467,152.05344,257.0,-29042.0,0.0
167.0,0.064819336,0.011962891,0.040893555,110.27481,-1.5114504,120.541985,257.0,-29042.0,0.0
168.0,0.061645508,0.0026855469,0.045837402,71.63359,-8.832061,73.51908,257.0,-29042.0,0.0
169.0,0.07080078,-0.0134887695,0.04650879,40.85496,-12.198473,8.80916,257.0,-29042.0,0.0
170.0,0.078308105,-0.014892578,0.049743652,10.641221,-12.503817,-54.748093,257.0,-29042.0,0.0
171.0,0.08404541,-0.010864258,0.043701172,-11.374045,-22.152672,-88.58778,257.0,-29042.0,0.0
172.0,0.10668945,-0.0072021484,0.032836914,-38.519085,-28.259542,-134.74046,257.0,-29042.0,0.0
173.0,0.121032715,-0.014526367,0.024597168,-59.59542,-41.21374,-170.57253,257.0,-29042.0,0.0
174.0,0.12939453,-0.021362305,0.032165527,-68.32825,-48.328243,-206.77863,257.0,-29042.0,0.0
175.0,0.123535156,-0.030883789,0.041809082,-71.419846,-59.519085,-233.38931,257.0,-29042.0,0.0
176.0,0.13775635,-0.038635254,0.046447754,-59.427483,-75.900764,-250.1374,257.0,-29042.0,0.0
177.0,0.16009521,-0.04449463,0.045898438,-29.38168,-83.580154,-250.1374,257.0,-29042.0,0.0
178.0,0.1798706,-0.04626465,0.02545166,6.4351144,-77.24428,-250.1374,257.0,-29042.0,0.0
179.0,0.17504883,-0.031433105,0.005004883,22.404581,-57.091602,-243.35115,257.0,-29042.0,0.0
180.0,0.1619873,-0.020446777,0.015808105,11.793893,-37.35878,-184.25954,257.0,-29042.0,0.0
181.0,0.16540527,-3.0517578E-4,0.029418945,-23.595419,-40.15267,-119.10687,257.0,-29042.0,0.0
182.0,0.16601562,-0.006958008,0.0335083,-70.64886,-40.068703,-53.85496,257.0,-29042.0,0.0
183.0,0.15594482,-0.022766113,0.031982422,-119.9542,-38.89313,-48.267174,257.0,-29042.0,0.0
184.0,0.14508057,-0.035827637,0.035888672,-130.99237,-33.748093,-40.06107,257.0,-29042.0,0.0
185.0,0.12689209,-0.046936035,0.032226562,-130.1145,-20.496183,-54.35878,257.0,-29042.0,0.0
186.0,0.11682129,-0.03845215,0.03778076,-118.12977,-17.053434,-54.633587,257.0,-29042.0,0.0
187.0,0.109558105,-0.041015625,0.037902832,-111.580154,-9.351145,-54.366413,257.0,-28785.0,0.0
188.0,0.109313965,-0.044006348,0.040222168,-87.89313,-10.61832,-75.25191,257.0,-28785.0,0.0
189.0,0.13165283,-0.047058105,0.042907715,-48.778625,-11.160305,-85.458015,257.0,-28785.0,0.0
190.0,0.13116455,-0.058166504,0.052368164,5.068702,-6.40458,-89.52672,257.0,-28785.0,0.0
191.0,0.12841797,-0.05255127,0.063964844,37.44275,-7.587786,-96.099236,257.0,-28785.0,0.0
192.0,0.13690186,-0.046875,0.061767578,48.50382,-8.129771,-93.53435,257.0,-28785.0,0.0
193.0,0.13604736,-0.04547119,0.061279297,44.52672,-0.6259542,-81.35878,257.0,-28785.0,0.0
194.0,0.14544678,-0.03540039,0.054992676,33.755726,8.946565,-54.27481,257.0,-28785.0,0.0
195.0,0.1381836,-0.030822754,0.05517578,4.80916,32.29771,-19.206106,257.0,-28785.0,0.0
196.0,0.13128662,-0.036193848,0.048095703,-16.465649,43.15267,22.496183,257.0,-28785.0,0.0
197.0,0.11853027,-0.037475586,0.043701172,-27.793894,57.38168,66.80153,257.0,-28785.0,0.0
198.0,0.11138916,-0.038085938,0.034729004,-37.076336,64.78626,103.740456,257.0,-28785.0,0.0
199.0,0.1295166,-0.0335083,0.01940918,-39.190838,64.74809,127.51145,257.0,-28785.0,0.0
200.0,0.13598633,-0.03527832,0.01361084,-30.687023,69.53435,154.53435,257.0,-28785.0,0.0
201.0,0.15203857,-0.040161133,0.008544922,-13.519084,62.84733,169.8626,257.0,-28785.0,0.0
202.0,0.18255615,-0.034057617,5.493164E-4,-7.328244,65.68702,184.96947,257.0,-28785.0,0.0
203.0,0.19384766,-0.024780273,0.0032958984,-14.0992365,46.541985,200.19847,257.0,-28785.0,0.0
204.0,0.18499756,-0.022277832,0.008483887,-31.931297,23.389313,209.50381,257.0,-28785.0,0.0
205.0,0.17590332,-0.023071289,0.009399414,-43.08397,-7.1755724,217.29007,257.0,-28785.0,0.0
206.0,0.15856934,-0.028015137,0.0076904297,-40.48855,-36.839695,212.771,257.0,-28785.0,0.0
207.0,0.14691162,-0.032287598,0.013427734,-4.740458,-53.9771,203.48856,257.0,-28785.0,0.0
208.0,0.12677002,-0.032104492,0.019042969,39.687023,-60.992367,191.39694,257.0,-28785.0,0.0
209.0,0.107910156,-0.03894043,0.035095215,98.57252,-63.305344,180.03053,257.0,-28785.0,0.0
210.0,0.10876465,-0.03314209,0.029968262,144.0916,-54.900764,164.03053,257.0,-28785.0,0.0
211.0,0.10797119,-0.024353027,0.03955078,162.06107,-41.435116,146.19084,257.0,-28785.0,0.0
212.0,0.10675049,-0.013977051,0.022705078,166.54199,-24.984734,127.12977,257.0,-28785.0,0.0
213.0,0.08728027,-0.0040283203,0.05114746,148.26718,-10.656488,101.32825,257.0,-28785.0,0.0
214.0,0.076538086,0.0072021484,0.05480957,97.96947,-0.5114504,72.26717,257.0,-28785.0,0.0
215.0,0.077819824,0.010559082,0.05883789,28.351145,-1.9312977,34.82443,257.0,-28785.0,0.0
216.0,0.082458496,-0.0016479492,0.062683105,-19.755726,-9.022901,-3.7251909,257.0,-28785.0,0.0
217.0,0.08227539,-0.012207031,0.057250977,-45.839695,-12.59542,-54.0,257.0,-28785.0,0.0
218.0,0.10443115,-0.015075684,0.044311523,-65.53435,-16.480917,-97.38931,257.0,-28785.0,0.0
219.0,0.11236572,-0.016052246,0.035583496,-79.47328,-18.557251,-137.19084,257.0,-28785.0,0.0
220.0,0.124572754,-0.020629883,0.034729004,-89.900764,-26.396946,-181.2519,257.0,-28785.0,0.0
221.0,0.13110352,-0.030395508,0.05419922,-89.63359,-36.08397,-216.30534,257.0,-28785.0,0.0
222.0,0.13061523,-0.038208008,0.043518066,-71.68702,-44.572517,-247.31297,257.0,-28785.0,0.0
223.0,0.14056396,-0.047973633,0.042663574,-37.198475,-49.419846,-250.1374,257.0,-28785.0,0.0
224.0,0.1583252,-0.051696777,0.03173828,9.175572,-50.328243,-250.1374,257.0,-28528.0,0.0
225.0,0.1652832,-0.039367676,0.014892578,40.984734,-37.21374,-242.66412,257.0,-28528.0,0.0
226.0,0.1539917,-0.0256958,0.0099487305,28.57252,-15.954199,-184.54962,257.0,-28528.0,0.0
227.0,0.15057373,-0.0068969727,0.021240234,-15.854961,-13.763359,-119.29008,257.0,-28528.0,0.0
228.0,0.15563965,-0.0015258789,0.032348633,-66.83969,-25.221375,-54.007633,257.0,-28528.0,0.0
229.0,0.1560669,-0.010009766,0.036132812,-120.854965,-24.885496,-16.664122,257.0,-28528.0,0.0
230.0,0.15338135,-0.026550293,0.021850586,-153.32062,-23.57252,-3.465649,257.0,-28528.0,0.0
231.0,0.12792969,-0.04638672,0.023071289,-158.78625,-24.992367,-9.748092,257.0,-28528.0,0.0
232.0,0.11462402,-0.055114746,0.014892578,-120.862595,-19.145039,-31.167938,257.0,-28528.0,0.0
233.0,0.107055664,-0.0423584,0.026733398,-58.954197,-21.435114,-55.015266,257.0,-28528.0,0.0
234.0,0.103149414,-0.043762207,0.032470703,-18.862595,-27.51145,-54.61832,257.0,-28528.0,0.0
235.0,0.105651855,-0.039794922,0.03955078,10.977099,-28.91603,-67.84733,257.0,-28528.0,0.0
236.0,0.10168457,-0.0413208,0.046081543,24.480917,-37.9771,-85.53435,257.0,-28528.0,0.0
237.0,0.10229492,-0.055419922,0.061584473,63.190838,-47.770992,-94.08397,257.0,-28528.0,0.0
238.0,0.11639404,-0.061706543,0.07055664,123.65649,-55.79389,-109.26717,257.0,-28528.0,0.0
239.0,0.13659668,-0.051757812,0.06713867,168.63359,-63.20611,-116.824425,257.0,-28528.0,0.0
240.0,0.14422607,-0.03845215,0.0647583,174.74046,-52.67939,-112.03817,257.0,-28528.0,0.0
241.0,0.14434814,-0.026611328,0.06744385,136.12213,-27.633587,-104.51908,257.0,-28528.0,0.0
242.0,0.16143799,-0.012145996,0.062194824,84.10687,11.923664,-86.259544,257.0,-28528.0,0.0
243.0,0.15698242,-0.010864258,0.06677246,22.816793,47.15267,-47.08397,257.0,-28528.0,0.0
244.0,0.15826416,-0.012268066,0.053771973,-39.183205,84.259544,-2.0305343,257.0,-28528.0,0.0
245.0,0.1494751,-0.02166748,0.038085938,-102.01527,112.061066,61.862595,257.0,-28528.0,0.0
246.0,0.13580322,-0.028381348,0.029968262,-145.84734,120.67939,121.24428,257.0,-28528.0,0.0
247.0,0.14733887,-0.026062012,0.01574707,-163.47328,112.71756,174.81679,257.0,-28528.0,0.0
248.0,0.16394043,-0.032836914,0.010131836,-159.53435,102.98473,228.61832,257.0,-28528.0,0.0
249.0,0.19342041,-0.03643799,-0.0052490234,-142.26718,88.40458,250.12978,257.0,-28528.0,0.0
250.0,0.21173096,-0.03314209,-0.0044555664,-119.60305,65.175575,250.12978,257.0,-28528.0,0.0
251.0,0.21142578,-0.032043457,6.1035156E-4,-95.83969,32.50382,250.12978,257.0,-28528.0,0.0
252.0,0.21191406,-0.029174805,0.006225586,-84.183205,-5.2671757,250.12978,257.0,-28528.0,0.0
253.0,0.17199707,-0.027893066,0.022277832,-41.61832,-23.908398,250.12978,257.0,-28528.0,0.0
254.0,0.15008545,-0.03173828,0.029052734,-0.67175573,-42.9771,240.61832,257.0,-28528.0,0.0
255.0,0.101989746,-0.03930664,0.043762207,67.26717,-43.351147,229.44275,257.0,-28528.0,0.0
256.0,0.07836914,-0.0368042,0.04260254,137.1145,-48.35878,206.61069,257.0,-28528.0,0.0
257.0,0.09082031,-0.03253174,0.03552246,173.58015,-42.46565,160.9313,257.0,-28528.0,0.0
258.0,0.08239746,-0.022277832,0.03729248,198.73282,-19.984734,131.19084,257.0,-28528.0,0.0
259.0,0.07122803,-0.0034179688,0.032409668,201.0229,-1.1068702,102.854965,257.0,-28528.0,0.0
260.0,0.04901123,0.005554199,0.059265137,167.33588,-1.0229008,69.580154,257.0,-28528.0,0.0
261.0,0.045410156,0.008117676,0.060180664,105.08397,-3.351145,34.015266,257.0,-28271.0,0.0
262.0,0.049316406,0.0029907227,0.059570312,36.709923,-12.038168,-7.89313,257.0,-28271.0,0.0
263.0,0.06402588,-0.010131836,0.053527832,-10.603053,-21.786259,-54.778625,257.0,-28271.0,0.0
264.0,0.07208252,-0.011413574,0.04724121,-35.84733,-26.76336,-83.31298,257.0,-28271.0,0.0
265.0,0.09362793,-0.012878418,0.03161621,-60.74046,-30.984734,-132.27481,257.0,-28271.0,0.0
266.0,0.11651611,-0.010437012,0.022155762,-96.62595,-32.908398,-171.771,257.0,-28271.0,0.0
267.0,0.13677979,-0.014465332,0.015380859,-126.32061,-38.83206,-210.48856,257.0,-28271.0,0.0
268.0,0.15081787,-0.028381348,0.023864746,-136.25954,-51.79389,-245.31297,257.0,-28271.0,0.0
269.0,0.16033936,-0.04559326,0.035949707,-113.94656,-57.549618,-250.1374,257.0,-28271.0,0.0
270.0,0.17156982,-0.06201172,0.045898438,-44.458015,-71.05344,-250.1374,257.0,-28271.0,0.0
271.0,0.17907715,-0.06878662,0.028808594,45.748093,-79.73283,-250.1374,257.0,-28271.0,0.0
272.0,0.16973877,-0.05621338,-0.0048217773,121.53435,-92.541985,-250.1374,257.0,-28271.0,0.0
273.0,0.15246582,-0.0289917,0.005065918,144.74046,-53.671757,-206.26718,257.0,-28271.0,0.0
274.0,0.1529541,0.01171875,0.018127441,76.0229,-65.01527,-126.61069,257.0,-28271.0,0.0
275.0,0.17333984,0.004211426,0.022338867,13.442748,-73.53435,-53.007633,257.0,-28271.0,0.0
276.0,0.18115234,-0.013183594,0.021362305,-8.2213745,-62.389313,-19.770992,257.0,-28271.0,0.0
277.0,0.16381836,-0.034484863,0.03466797,-9.480916,-51.267174,-4.076336,257.0,-28271.0,0.0
278.0,0.13739014,-0.05279541,0.04119873,-2.1145039,-55.38168,-21.633587,257.0,-28271.0,0.0
279.0,0.11578369,-0.04071045,0.06072998,1.778626,-61.290077,-45.229008,257.0,-28271.0,0.0
280.0,0.10180664,-0.020446777,0.06945801,-20.694656,-74.35114,-54.801525,257.0,-28271.0,0.0
281.0,0.105285645,-0.013061523,0.060424805,-62.38168,-77.824425,-54.67939,257.0,-28271.0,0.0
282.0,0.11138916,-0.016174316,0.053222656,-96.73283,-70.79389,-54.480915,257.0,-28271.0,0.0
283.0,0.114746094,-0.026184082,0.051330566,-102.37405,-50.49618,-54.610687,257.0,-28271.0,0.0
284.0,0.117004395,-0.033935547,0.053710938,-86.32825,-27.862595,-54.687023,257.0,-28271.0,0.0
285.0,0.12615967,-0.042114258,0.056518555,-59.099236,-13.129771,-54.435116,257.0,-28271.0,0.0
286.0,0.13824463,-0.045043945,0.05407715,-24.23664,1.7480916,-53.48855,257.0,-28271.0,0.0
287.0,0.14404297,-0.047668457,0.057128906,13.351145,11.534351,-54.923664,257.0,-28271.0,0.0
288.0,0.14544678,-0.044067383,0.05895996,40.954197,21.824427,-36.0229,257.0,-28271.0,0.0
289.0,0.14556885,-0.040283203,0.059570312,46.87786,27.793894,-23.335878,257.0,-28271.0,0.0
290.0,0.14367676,-0.039245605,0.060180664,43.549618,44.709923,0.6870229,257.0,-28271.0,0.0
291.0,0.14611816,-0.03692627,0.05065918,36.068703,63.053436,28.816793,257.0,-28271.0,0.0
292.0,0.1459961,-0.026428223,0.0390625,19.312977,87.67939,67.12214,257.0,-28271.0,0.0
293.0,0.13671875,-0.016784668,0.032470703,-6.335878,102.816795,112.580154,257.0,-28271.0,0.0
294.0,0.1538086,-0.016235352,0.018920898,-31.450382,109.78626,148.68703,257.0,-28271.0,0.0
295.0,0.17230225,-0.02130127,0.013305664,-33.0,121.98473,178.76335,257.0,-28271.0,0.0
296.0,0.18963623,-0.026306152,0.0034179688,-33.83206,127.00764,196.47328,257.0,-28271.0,0.0
297.0,0.20019531,-0.02557373,0.003540039,-39.984734,121.091606,206.70229,257.0,-28271.0,0.0
298.0,0.19268799,-0.022583008,0.008666992,-60.549618,96.908394,213.66412,257.0,-28014.0,0.0
299.0,0.1831665,-0.018310547,0.009216309,-78.938934,62.931297,217.35878,257.0,-28014.0,0.0
300.0,0.1619873,-0.019226074,0.010681152,-79.07633,24.282442,222.25954,257.0,-28014.0,0.0
301.0,0.13763428,-0.024597168,0.00970459,-62.419846,-0.41221374,215.08397,257.0,-28014.0,0.0
302.0,0.110839844,-0.031982422,0.016540527,-16.366413,-15.396947,202.67175,257.0,-28014.0,0.0
303.0,0.09161377,-0.0368042,0.025817871,40.687023,-23.961832,187.44275,257.0,-28014.0,0.0
304.0,0.0914917,-0.030517578,0.027893066,90.52672,-28.045801,166.26718,257.0,-28014.0,0.0
305.0,0.092041016,-0.022705078,0.030090332,118.69466,-21.366413,145.67175,257.0,-28014.0,0.0
306.0,0.083740234,-0.016479492,0.033325195,123.07633,-11.076336,122.46565,257.0,-28014.0,0.0
307.0,0.070007324,-0.010253906,0.04046631,112.19084,-7.0229006,95.221375,257.0,-28014.0,0.0
308.0,0.06378174,-0.008972168,0.05041504,92.503815,-13.106871,64.0229,257.0,-28014.0,0.0
309.0,0.062072754,-0.0076293945,0.054870605,72.091606,-22.89313,25.610687,257.0,-28014.0,0.0
310.0,0.06591797,-0.0087890625,0.055419922,42.76336,-30.984734,-19.10687,257.0,-28014.0,0.0
311.0,0.06842041,-0.010803223,0.048706055,8.297709,-39.015266,-54.885498,257.0,-28014.0,0.0
312.0,0.08465576,-0.015014648,0.03894043,-17.862595,-53.44275,-110.55725,257.0,-28014.0,0.0
313.0,0.10058594,-0.012390137,0.037902832,-37.053436,-67.900764,-158.38931,257.0,-28014.0,0.0
314.0,0.12536621,-0.016418457,0.03289795,-50.580154,-81.54962,-208.8626,257.0,-28014.0,0.0
315.0,0.14483643,-0.02734375,0.03955078,-53.27481,-96.80916,-250.1374,257.0,-28014.0,0.0
316.0,0.1531372,-0.03656006,0.047180176,-36.251907,-104.43511,-250.1374,257.0,-28014.0,0.0
317.0,0.16473389,-0.04650879,0.049804688,1.0152671,-120.54962,-250.1374,257.0,-28014.0,0.0
318.0,0.17321777,-0.046691895,0.03753662,53.251907,-118.25191,-250.1374,257.0,-28014.0,0.0
319.0,0.17364502,-0.024658203,0.0095825195,73.33588,-92.25191,-250.1374,257.0,-28014.0,0.0
320.0,0.17279053,-0.0031738281,0.0026245117,29.496183,-59.14504,-189.23665,257.0,-28014.0,0.0
321.0,0.17053223,0.010009766,0.020080566,-41.50382,-46.61832,-107.69466,257.0,-28014.0,0.0
322.0,0.16766357,0.0052490234,0.034606934,-112.12214,-41.290077,-46.38168,257.0,-28014.0,0.0
323.0,0.15826416,-0.010925293,0.04071045,-176.45038,-38.40458,-1.610687,257.0,-28014.0,0.0
324.0,0.15026855,-0.039245605,0.03173828,-205.48091,-44.290077,8.015267,257.0,-28014.0,0.0
325.0,0.13543701,-0.062316895,0.02545166,-179.3435,-37.099236,-10.0992365,257.0,-28014.0,0.0
326.0,0.115600586,-0.063964844,0.03125,-103.56489,-31.42748,-28.358778,257.0,-28014.0,0.0
327.0,0.101623535,-0.05517578,0.03668213,-18.625954,-28.648855,-37.12214,257.0,-28014.0,0.0
328.0,0.0982666,-0.04107666,0.04296875,33.15267,-23.48855,-42.335876,257.0,-28014.0,0.0
329.0,0.09991455,-0.033447266,0.047424316,41.17557,-23.954199,-44.091602,257.0,-28014.0,0.0
330.0,0.10296631,-0.030029297,0.04925537,32.15267,-18.458015,-48.816795,257.0,-28014.0,0.0
331.0,0.10626221,-0.029785156,0.053955078,20.267176,-15.961832,-45.85496,257.0,-28014.0,0.0
332.0,0.11419678,-0.031188965,0.051330566,9.473283,-11.022901,-41.183205,257.0,-28014.0,0.0
333.0,0.13104248,-0.03289795,0.047424316,11.473283,-1.961832,-40.541985,257.0,-28014.0,0.0
334.0,0.14068604,-0.034423828,0.04296875,18.305344,3.557252,-30.541985,257.0,-28014.0,0.0
335.0,0.14398193,-0.03540039,0.04333496,31.946566,11.450381,-26.389313,257.0,-27757.0,0.0
336.0,0.14111328,-0.032958984,0.04663086,33.55725,17.610687,-18.61832,257.0,-27757.0,0.0
337.0,0.13903809,-0.031433105,0.043945312,26.213741,22.42748,-3.3664122,257.0,-27757.0,0.0
338.0,0.12805176,-0.035461426,0.049743652,17.053434,30.099237,17.259542,257.0,-27757.0,0.0
339.0,0.12390137,-0.034851074,0.04168701,9.946565,41.671757,36.64122,257.0,-27757.0,0.0
340.0,0.11218262,-0.029174805,0.034118652,6.2137403,55.396946,67.75572,257.0,-27757.0,0.0
341.0,0.115234375,-0.026306152,0.026428223,-1.648855,58.923664,90.061066,257.0,-27757.0,0.0
342.0,0.15020752,-0.026977539,-0.0048828125,-5.9694657,64.229004,111.8855,257.0,-27757.0,0.0
343.0,0.16546631,-0.034301758,0.015197754,8.9007635,71.618324,115.53435,257.0,-27757.0,0.0
344.0,0.18603516,-0.029907227,0.008728027,16.358778,83.39695,124.496185,257.0,-27757.0,0.0
345.0,0.18933105,-0.026184082,0.0032958984,10.458015,81.19847,140.72519,257.0,-27757.0,0.0
346.0,0.1786499,-0.021911621,0.004638672,9.59542,71.08397,157.39694,257.0,-27757.0,0.0
347.0,0.16394043,-0.002319336,0.0178833,-3.2748091,53.198475,185.99237,257.0,-27757.0,0.0
348.0,0.14727783,-0.012329102,0.024780273,-61.374046,16.633587,205.9313,257.0,-27757.0,0.0
349.0,0.13012695,-0.024963379,0.02142334,-69.19084,0.89312977,199.25954,257.0,-27757.0,0.0
350.0,0.11431885,-0.02709961,0.019714355,-43.923664,-15.908397,194.8626,257.0,-27757.0,0.0
351.0,0.10229492,-0.034851074,0.018127441,9.702291,-18.564886,183.45038,257.0,-27757.0,0.0
352.0,0.097717285,-0.033081055,0.025024414,65.503815,-20.603054,162.2519,257.0,-27757.0,0.0
353.0,0.09472656,-0.024353027,0.025390625,97.03053,-13.229008,139.42747,257.0,-27757.0,0.0
354.0,0.085754395,-0.018981934,0.032470703,105.8855,-6.4351144,112.16031,257.0,-27757.0,0.0
355.0,0.07611084,-0.015380859,0.04248047,100.19847,-5.8778625,81.79389,257.0,-27757.0,0.0
356.0,0.06726074,-0.01361084,0.046142578,91.84733,-10.664123,49.160305,257.0,-27757.0,0.0
357.0,0.06616211,-0.012023926,0.05090332,73.51145,-17.793894,13.687023,257.0,-27757.0,0.0
358.0,0.072753906,-0.0115356445,0.049804688,42.030533,-26.725191,-29.312977,257.0,-27757.0,0.0
359.0,0.08013916,-0.01159668,0.04345703,8.061069,-32.160305,-55.038166,257.0,-27757.0,0.0
360.0,0.097961426,-0.012207031,0.046142578,-22.06107,-41.84733,-112.061066,257.0,-27757.0,0.0
361.0,0.12005615,-0.015258789,0.031311035,-46.068703,-51.89313,-158.61832,257.0,-27757.0,0.0
362.0,0.14361572,-0.021606445,0.028686523,-61.374046,-67.00764,-204.0458,257.0,-27757.0,0.0
363.0,0.16656494,-0.03326416,0.036132812,-57.755726,-73.80916,-243.46565,257.0,-27757.0,0.0
364.0,0.16479492,-0.04888916,0.048583984,-21.167938,-82.67175,-250.1374,257.0,-27757.0,0.0
365.0,0.15667725,-0.053466797,0.047729492,41.076336,-91.824425,-250.1374,257.0,-27757.0,0.0
366.0,0.14434814,-0.040405273,0.034973145,82.98473,-90.30534,-244.54199,257.0,-27757.0,0.0
367.0,0.13800049,-0.022949219,0.017822266,78.89313,-74.28244,-195.27481,257.0,-27757.0,0.0
368.0,0.13964844,-0.0068359375,0.015808105,41.946564,-45.85496,-142.0,257.0,-27757.0,0.0
369.0,0.1517334,0.005126953,0.01965332,-11.297709,-30.022902,-77.580154,257.0,-27757.0,0.0
370.0,0.16119385,-0.0056762695,0.025024414,-64.24428,-14.870229,-36.717556,257.0,-27757.0,0.0
371.0,0.15447998,-0.016418457,0.033447266,-110.51145,-9.022901,1.6335878,257.0,-27757.0,0.0
372.0,0.1418457,-0.034851074,0.03765869,-143.71756,-15.893129,10.702291,257.0,-27500.0,0.0
373.0,0.12713623,-0.04925537,0.040100098,-139.22137,-18.48855,1.6793894,257.0,-27500.0,0.0
374.0,0.11224365,-0.05029297,0.040893555,-103.183205,-24.854961,-10.877863,257.0,-27500.0,0.0
375.0,0.09967041,-0.04638672,0.03857422,-50.908398,-24.076336,-11.725191,257.0,-27500.0,0.0
376.0,0.098083496,-0.038269043,0.04248047,-11.862596,-21.160305,-5.519084,257.0,-27500.0,0.0
377.0,0.10131836,-0.029174805,0.042663574,-2.4885497,-19.114504,-0.6793893,257.0,-27500.0,0.0
378.0,0.105651855,-0.024902344,0.041015625,-5.259542,-12.839695,7.038168,257.0,-27500.0,0.0
379.0,0.10949707,-0.026000977,0.045898438,-10.5801525,-5.3816795,12.549619,257.0,-27500.0,0.0
380.0,0.11376953,-0.027709961,0.047607422,-6.4961834,0.08396947,14.4198475,257.0,-27500.0,0.0
381.0,0.11645508,-0.02722168,0.049621582,-2.870229,5.3587785,8.145039,257.0,-27500.0,0.0
382.0,0.11376953,-0.028930664,0.047729492,2.0610688,5.1603055,1.7480916,257.0,-27500.0,0.0
383.0,0.11376953,-0.032409668,0.047424316,10.908397,3.0458016,-15.564885,257.0,-27500.0,0.0
384.0,0.120910645,-0.03729248,0.048217773,24.832062,2.6183207,-30.778625,257.0,-27500.0,0.0
385.0,0.123046875,-0.03704834,0.046081543,43.0,2.6335878,-55.412212,257.0,-27500.0,0.0
386.0,0.13226318,-0.0368042,0.042114258,54.335876,7.1755724,-54.305344,257.0,-27500.0,0.0
387.0,0.13537598,-0.0368042,0.045410156,57.366413,16.480917,-54.21374,257.0,-27500.0,0.0
388.0,0.1383667,-0.0357666,0.039123535,55.84733,29.91603,-54.53435,257.0,-27500.0,0.0
389.0,0.13415527,-0.03112793,0.034973145,39.65649,47.59542,-35.282444,257.0,-27500.0,0.0
390.0,0.124938965,-0.022949219,0.026123047,4.6564884,64.57252,-1.2748091,257.0,-27500.0,0.0
391.0,0.12561035,-0.02130127,0.01940918,-41.923664,66.60305,40.068703,257.0,-27500.0,0.0
392.0,0.14221191,-0.026428223,0.018432617,-69.938934,63.15267,83.26717,257.0,-27500.0,0.0
393.0,0.15386963,-0.03326416,0.010986328,-78.618324,62.20611,124.67175,257.0,-27500.0,0.0
394.0,0.15966797,-0.03363037,0.008728027,-72.96947,53.221375,154.80916,257.0,-27500.0,0.0
395.0,0.16448975,-0.028930664,0.004211426,-56.969467,35.67939,176.85497,257.0,-27500.0,0.0
396.0,0.1652832,-0.02960205,0.009460449,-33.49618,16.229008,194.01527,257.0,-27500.0,0.0
397.0,0.1586914,-0.027893066,0.0099487305,-6.374046,-0.66412216,198.18321,257.0,-27500.0,0.0
398.0,0.14691162,-0.026489258,0.015686035,20.541985,-9.648855,192.7939,257.0,-27500.0,0.0
399.0,0.12750244,-0.028747559,0.021484375,42.0229,-21.259542,181.46565,257.0,-27500.0,0.0
400.0,0.11016846,-0.029052734,0.026733398,64.98473,-25.648855,167.03053,257.0,-27500.0,0.0
401.0,0.097473145,-0.02722168,0.035888672,90.55725,-28.045801,150.12213,257.0,-27500.0,0.0
402.0,0.09289551,-0.024658203,0.034973145,105.70992,-22.480917,128.35878,257.0,-27500.0,0.0
403.0,0.087890625,-0.018310547,0.034179688,105.816795,-15.916031,105.229004,257.0,-27500.0,0.0
404.0,0.076416016,-0.015686035,0.039794922,90.10687,-8.763359,80.43511,257.0,-27500.0,0.0
405.0,0.06896973,-0.012573242,0.047546387,72.73283,-10.015267,56.32061,257.0,-27500.0,0.0
406.0,0.0725708,-0.012145996,0.047668457,49.748093,-15.541985,26.633587,257.0,-27500.0,0.0
407.0,0.08758545,-0.0095825195,0.023864746,27.274809,-21.61832,-3.557252,257.0,-27500.0,0.0
408.0,0.08532715,-0.016479492,0.048828125,11.114504,-26.450382,-48.25954,257.0,-27500.0,0.0
409.0,0.09399414,-0.019897461,0.042907715,-1.038168,-28.74809,-77.75572,257.0,-27243.0,0.0
410.0,0.10308838,-0.020080566,0.039245605,-11.549619,-31.213741,-113.20611,257.0,-27243.0,0.0
411.0,0.12854004,-0.017456055,0.031799316,-24.022902,-37.23664,-150.84734,257.0,-27243.0,0.0
412.0,0.14556885,-0.01763916,0.029724121,-44.862595,-41.435116,-176.61832,257.0,-27243.0,0.0
413.0,0.16394043,-0.022766113,0.027709961,-62.46565,-45.908398,-200.49619,257.0,-27243.0,0.0
414.0,0.16534424,-0.031433105,0.033569336,-75.618324,-48.61832,-213.90076,257.0,-27243.0,0.0
415.0,0.15246582,-0.03643799,0.036132812,-72.229004,-49.519085,-216.3435,257.0,-27243.0,0.0
416.0,0.13970947,-0.03491211,0.033081055,-73.08397,-40.16794,-198.10687,257.0,-27243.0,0.0
417.0,0.12554932,-0.03717041,0.028503418,-79.458015,-35.49618,-168.45801,257.0,-27243.0,0.0
418.0,0.12719727,-0.037597656,0.025878906,-74.99236,-29.580153,-127.74809,257.0,-27243.0,0.0
419.0,0.13684082,-0.03338623,0.020996094,-56.450382,-24.465649,-78.70992,257.0,-27243.0,0.0
420.0,0.14703369,-0.029724121,0.019104004,-52.458015,-16.641222,-54.14504,257.0,-27243.0,0.0
421.0,0.15447998,-0.029296875,0.020324707,-57.519085,-12.198473,-18.656488,257.0,-27243.0,0.0
422.0,0.15045166,-0.029907227,0.024536133,-62.671757,-9.625955,-2.2824428,257.0,-27243.0,0.0
423.0,0.13580322,-0.034118652,0.028076172,-62.389313,-11.824428,0.6183206,257.0,-27243.0,0.0
424.0,0.11633301,-0.040039062,0.034118652,-56.20611,-15.480916,-5.6412215,257.0,-27243.0,0.0
425.0,0.10229492,-0.04046631,0.0357666,-44.08397,-20.099237,-14.488549,257.0,-27243.0,0.0
426.0,0.09527588,-0.036987305,0.04345703,-18.954199,-17.664122,-12.916031,257.0,-27243.0,0.0
427.0,0.09362793,-0.02960205,0.047424316,-13.572519,-16.603054,-14.083969,257.0,-27243.0,0.0
428.0,0.093688965,-0.021362305,0.04296875,-30.114504,-5.3053436,-8.351145,257.0,-27243.0,0.0
429.0,0.099365234,-0.024291992,0.039001465,-57.34351,-0.26717559,-12.877863,257.0,-27243.0,0.0
430.0,0.10736084,-0.031982422,0.042175293,-59.770992,11.358779,-18.67939,257.0,-27243.0,0.0
431.0,0.111328125,-0.03491211,0.044006348,-47.862595,15.557252,-20.282442,257.0,-27243.0,0.0
432.0,0.11517334,-0.036621094,0.040649414,-33.335876,12.396947,-26.557251,257.0,-27243.0,0.0
433.0,0.123535156,-0.038330078,0.042175293,-17.343512,11.335877,-33.366413,257.0,-27243.0,0.0
434.0,0.12957764,-0.040100098,0.039978027,1.9160305,8.40458,-46.328243,257.0,-27243.0,0.0
435.0,0.13092041,-0.041015625,0.038269043,23.282442,5.0152674,-42.44275,257.0,-27243.0,0.0
436.0,0.1408081,-0.041748047,0.035217285,37.89313,-0.60305345,-47.015266,257.0,-27243.0,0.0
437.0,0.13989258,-0.04034424,0.03765869,48.587788,5.40458,-35.076336,257.0,-27243.0,0.0
438.0,0.13946533,-0.042785645,0.03375244,54.435116,8.267176,-24.503817,257.0,-27243.0,0.0
439.0,0.13214111,-0.041503906,0.031921387,53.328243,19.832062,0.099236645,257.0,-27243.0,0.0
440.0,0.1227417,-0.040405273,0.031311035,55.801525,29.08397,28.557251,257.0,-27243.0,0.0
441.0,0.11541748,-0.034484863,0.027648926,53.46565,30.931297,63.015266,257.0,-27243.0,0.0
442.0,0.13183594,-0.0335083,0.023132324,52.603054,32.52672,87.503815,257.0,-27243.0,0.0
443.0,0.1459961,-0.032287598,0.017456055,57.190838,40.79389,110.816795,257.0,-27243.0,0.0
444.0,0.1574707,-0.026184082,0.012451172,61.961834,49.12214,126.57252,257.0,-27243.0,0.0
445.0,0.16638184,-0.022521973,0.009216309,54.93893,50.251907,140.32825,257.0,-27243.0,0.0
446.0,0.16986084,-0.020568848,0.015319824,43.885498,46.068703,150.85497,257.0,-26986.0,0.0
447.0,0.1638794,-0.016479492,0.018981934,28.610687,36.603054,160.89313,257.0,-26986.0,0.0
448.0,0.14886475,-0.014709473,0.022644043,0.8778626,22.76336,169.67938,257.0,-26986.0,0.0
449.0,0.1317749,-0.02142334,0.02142334,-25.435114,12.229008,167.53435,257.0,-26986.0,0.0
450.0,0.113098145,-0.024291992,0.026977539,-17.221375,1.5114504,167.10687,257.0,-26986.0,0.0
451.0,0.103393555,-0.026611328,0.03173828,5.89313,-2.5267177,161.7939,257.0,-26986.0,0.0
452.0,0.10491943,-0.026000977,0.027282715,32.755726,-6.19084,150.27481,257.0,-26986.0,0.0
453.0,0.099731445,-0.02520752,0.026855469,52.778625,-2.6564887,131.74046,257.0,-26986.0,0.0
454.0,0.091552734,-0.021972656,0.030883789,65.9313,2.70229,114.07633,257.0,-26986.0,0.0
455.0,0.08251953,-0.019348145,0.036010742,73.27481,1.1984733,91.40458,257.0,-26986.0,0.0
456.0,0.08154297,-0.015563965,0.037475586,67.24428,-5.0916033,63.900764,257.0,-26986.0,0.0
457.0,0.08117676,-0.014404297,0.039245605,57.251907,-10.427481,32.10687,257.0,-26986.0,0.0
458.0,0.084106445,-0.013916016,0.038635254,38.38168,-15.526717,-7.8320613,257.0,-26986.0,0.0
459.0,0.08642578,-0.01550293,0.037597656,11.137404,-21.603054,-55.84733,257.0,-26986.0,0.0
460.0,0.10296631,-0.015930176,0.033081055,-9.412213,-30.404581,-90.29008,257.0,-26986.0,0.0
461.0,0.1105957,-0.01763916,0.029418945,-27.282442,-42.64122,-128.90076,257.0,-26986.0,0.0
462.0,0.12365723,-0.019470215,0.030273438,-38.93893,-49.290077,-171.73282,257.0,-26986.0,0.0
463.0,0.1281128,-0.023986816,0.028747559,-47.72519,-59.015266,-202.25954,257.0,-26986.0,0.0
464.0,0.12890625,-0.032348633,0.040283203,-38.183205,-67.51908,-223.58015,257.0,-26986.0,0.0
465.0,0.1338501,-0.036254883,0.04473877,-17.435114,-73.9771,-233.72519,257.0,-26986.0,0.0
466.0,0.14019775,-0.039123535,0.038513184,15.267176,-74.9771,-229.12978,257.0,-26986.0,0.0
467.0,0.15057373,-0.032043457,0.031188965,34.648853,-66.37405,-214.92366,257.0,-26986.0,0.0
468.0,0.16729736,-0.020019531,0.02368164,31.419847,-47.129772,-181.50381,257.0,-26986.0,0.0
469.0,0.1694336,-0.006652832,0.026550293,-12.7404585,-22.656488,-130.99237,257.0,-26986.0,0.0
470.0,0.16516113,-0.0022583008,0.031677246,-86.381676,-9.526717,-72.9542,257.0,-26986.0,0.0
471.0,0.16491699,-0.008605957,0.029968262,-151.46565,-7.2824426,-37.015266,257.0,-26986.0,0.0
472.0,0.1593628,-0.022460938,0.035949707,-193.0458,-6.816794,-5.0076337,257.0,-26986.0,0.0
473.0,0.13812256,-0.04071045,0.029968262,-196.3435,-8.343512,4.8244276,257.0,-26986.0,0.0
474.0,0.11254883,-0.04815674,0.026000977,-164.9771,-6.2366414,3.0458016,257.0,-26986.0,0.0
475.0,0.09527588,-0.049621582,0.02545166,-110.26717,-4.3511453,0.19847329,257.0,-26986.0,0.0
476.0,0.08880615,-0.04711914,0.028137207,-51.91603,-2.961832,-6.5343513,257.0,-26986.0,0.0
477.0,0.089782715,-0.044128418,0.032104492,-4.854962,-1.2366412,-16.732824,257.0,-26986.0,0.0
478.0,0.08905029,-0.037475586,0.03692627,18.931297,1.167939,-28.656488,257.0,-26986.0,0.0
479.0,0.09436035,-0.033447266,0.038635254,23.007633,1.7251909,-38.458015,257.0,-26986.0,0.0
480.0,0.101135254,-0.032104492,0.0413208,15.816793,0.22137405,-48.08397,257.0,-26986.0,0.0
481.0,0.11328125,-0.031555176,0.05267334,2.9694657,1.038168,-46.17557,257.0,-26986.0,0.0
482.0,0.1161499,-0.03765869,0.04144287,-2.1221373,-0.5114504,-54.458015,257.0,-26986.0,0.0
483.0,0.12176514,-0.042297363,0.04095459,6.3053436,-0.35114503,-54.717556,257.0,-26729.0,0.0
484.0,0.12719727,-0.043029785,0.041992188,16.51145,1.4656489,-47.61832,257.0,-26729.0,0.0
485.0,0.13952637,-0.039978027,0.037963867,24.717558,-1.1984733,-30.595419,257.0,-26729.0,0.0
486.0,0.1552124,-0.04095459,0.037109375,34.664124,3.3664122,-12.977099,257.0,-26729.0,0.0
487.0,0.1496582,-0.04107666,0.039245605,44.91603,6.0076337,12.053435,257.0,-26729.0,0.0
488.0,0.14465332,-0.035583496,0.036254883,45.221375,12.801527,36.29771,257.0,-26729.0,0.0
489.0,0.13519287,-0.033813477,0.031066895,49.27481,19.801527,63.137405,257.0,-26729.0,0.0
490.0,0.11828613,-0.029296875,0.026611328,41.51145,27.786259,92.63359,257.0,-26729.0,0.0
491.0,0.12426758,-0.030334473,0.019104004,39.21374,23.992367,107.740456,257.0,-26729.0,0.0
492.0,0.14337158,-0.03338623,0.017089844,56.83206,33.59542,117.72519,257.0,-26729.0,0.0
493.0,0.15216064,-0.033691406,0.014465332,80.900764,41.74046,120.12214,257.0,-26729.0,0.0
494.0,0.16168213,-0.024658203,0.008361816,79.96183,47.076336,118.62595,257.0,-26729.0,0.0
495.0,0.16040039,-0.018798828,0.010925293,65.83206,44.328243,126.19084,257.0,-26729.0,0.0
496.0,0.15325928,-0.016601562,0.01574707,43.21374,34.34351,134.61069,257.0,-26729.0,0.0
497.0,0.14257812,-0.018188477,0.024108887,20.221375,22.610687,142.41222,257.0,-26729.0,0.0
498.0,0.13256836,-0.0178833,0.021606445,-5.6564884,14.633588,145.90076,257.0,-26729.0,0.0
499.0,0.1182251,-0.023498535,0.021362305,-17.91603,6.5114503,147.9771,257.0,-26729.0,0.0
500.0,0.10455322,-0.030395508,0.026428223,0.35877863,0.0,143.41985,257.0,-26729.0,0.0
501.0,0.10595703,-0.025756836,0.025146484,20.374046,-2.3816793,136.40459,257.0,-26729.0,0.0
502.0,0.1026001,-0.024108887,0.023986816,38.305344,0.061068702,125.36641,257.0,-26729.0,0.0
503.0,0.09802246,-0.023376465,0.027893066,48.480915,4.0458016,110.70992,257.0,-26729.0,0.0
504.0,0.093566895,-0.019104004,0.03161621,54.610687,3.7328243,93.07633,257.0,-26729.0,0.0
505.0,0.095825195,-0.016479492,0.03289795,46.79389,1.2442749,66.48855,257.0,-26729.0,0.0
506.0,0.094177246,-0.016418457,0.03540039,34.923664,-2.053435,39.076336,257.0,-26729.0,0.0
507.0,0.0970459,-0.016906738,0.036315918,19.519083,-5.2061067,6.328244,257.0,-26729.0,0.0
508.0,0.10418701,-0.01586914,0.027770996,2.7251909,-9.854961,-33.412212,257.0,-26729.0,0.0
509.0,0.11773682,-0.017456055,0.024963379,-12.633588,-16.206106,-60.992367,257.0,-26729.0,0.0
510.0,0.1171875,-0.021362305,0.02722168,-19.977098,-23.641222,-101.27481,257.0,-26729.0,0.0
511.0,0.119384766,-0.024414062,0.033081055,-23.70229,-36.770992,-135.9542,257.0,-26729.0,0.0
512.0,0.109436035,-0.028564453,0.040405273,-22.442749,-45.38168,-160.22137,257.0,-26729.0,0.0
513.0,0.105285645,-0.03149414,0.0423584,-18.122137,-54.480915,-175.62596,257.0,-26729.0,0.0
514.0,0.109436035,-0.026855469,0.037841797,-20.312977,-53.412212,-173.06107,257.0,-26729.0,0.0
515.0,0.13116455,-0.023254395,0.029724121,-22.442749,-46.65649,-171.37404,257.0,-26729.0,0.0
516.0,0.14654541,-0.017150879,0.021484375,-29.557251,-30.923664,-151.771,257.0,-26729.0,0.0
517.0,0.15917969,-0.014099121,0.018432617,-51.198475,-19.412214,-127.26717,257.0,-26729.0,0.0
518.0,0.16973877,-0.019104004,0.020263672,-81.908394,-16.122137,-106.25191,257.0,-26729.0,0.0
519.0,0.17071533,-0.0256958,0.027648926,-102.419846,-13.671756,-89.29008,257.0,-26729.0,0.0
520.0,0.1583252,-0.033996582,0.030090332,-114.91603,-18.961832,-85.778625,257.0,-26472.0,0.0
521.0,0.13977051,-0.039978027,0.030944824,-110.76336,-27.625954,-91.15267,257.0,-26472.0,0.0
522.0,0.1194458,-0.045837402,0.026611328,-81.58778,-28.984734,-86.57252,257.0,-26472.0,0.0
523.0,0.107177734,-0.046813965,0.027893066,-37.65649,-28.877863,-81.9542,257.0,-26472.0,0.0
524.0,0.105529785,-0.04724121,0.031921387,4.3435116,-30.206106,-83.80916,257.0,-26472.0,0.0
525.0,0.108947754,-0.04333496,0.03363037,35.435116,-24.717558,-79.259544,257.0,-26472.0,0.0
526.0,0.109191895,-0.037231445,0.040527344,40.931297,-25.137405,-78.28244,257.0,-26472.0,0.0
527.0,0.11212158,-0.036193848,0.047912598,33.015266,-23.694656,-73.778625,257.0,-26472.0,0.0
528.0,0.117126465,-0.03729248,0.050842285,16.717558,-22.93893,-67.137405,257.0,-26472.0,0.0
529.0,0.12695312,-0.044006348,0.056274414,12.755725,-17.877863,-60.068703,257.0,-26472.0,0.0
530.0,0.13165283,-0.051696777,0.059753418,16.358778,-11.641221,-54.335876,257.0,-26472.0,0.0
531.0,0.13079834,-0.05206299,0.054748535,28.603054,-0.9312977,-54.633587,257.0,-26472.0,0.0
532.0,0.15264893,-0.046081543,0.044189453,37.648853,8.854961,-31.541985,257.0,-26472.0,0.0
533.0,0.15563965,-0.04107666,0.040222168,43.10687,32.46565,5.854962,257.0,-26472.0,0.0
534.0,0.1583252,-0.030273438,0.04144287,26.335878,50.541985,43.183205,257.0,-26472.0,0.0
535.0,0.15679932,-0.026184082,0.036254883,-4.587786,66.53435,89.32825,257.0,-26472.0,0.0
536.0,0.1317749,-0.024414062,0.03326416,-34.114502,77.16031,132.96184,257.0,-26472.0,0.0
537.0,0.12164307,-0.024230957,0.025634766,-50.030533,72.03817,169.72519,257.0,-26472.0,0.0
538.0,0.14569092,-0.026062012,0.016662598,-48.15267,62.038166,188.0916,257.0,-26472.0,0.0
539.0,0.1628418,-0.03375244,0.011474609,-19.053434,60.25954,199.60306,257.0,-26472.0,0.0
540.0,0.1763916,-0.036865234,0.0076293945,17.259542,62.183205,192.48856,257.0,-26472.0,0.0
541.0,0.18109131,-0.031311035,0.005432129,45.335876,53.946564,178.2061,257.0,-26472.0,0.0
542.0,0.17456055,-0.020568848,0.00970459,46.48855,43.732826,163.771,257.0,-26472.0,0.0
543.0,0.16448975,-0.015808105,0.011352539,29.030535,29.198473,157.73282,257.0,-26472.0,0.0
544.0,0.14660645,-0.014038086,0.017700195,6.4732823,12.435115,157.50381,257.0,-26472.0,0.0
545.0,0.12548828,-0.019226074,0.020019531,-12.969465,-0.24427481,157.67175,257.0,-26472.0,0.0
546.0,0.1083374,-0.019897461,0.032836914,-16.694656,-5.7480917,157.70229,257.0,-26472.0,0.0
547.0,0.08880615,-0.026855469,0.027648926,-1.5496184,-13.045801,153.09924,257.0,-26472.0,0.0
548.0,0.09136963,-0.027893066,0.025390625,24.839695,-16.160305,141.54199,257.0,-26472.0,0.0
549.0,0.08935547,-0.022033691,0.02508545,53.82443,-15.748092,133.33588,257.0,-26472.0,0.0
550.0,0.07684326,-0.00982666,0.031799316,67.32061,-13.061069,115.92367,257.0,-26472.0,0.0
551.0,0.06677246,6.1035156E-4,0.038208008,66.061066,-13.015267,83.96183,257.0,-26472.0,0.0
552.0,0.066711426,-0.0078125,0.046081543,53.48855,-18.229008,45.84733,257.0,-26472.0,0.0
553.0,0.07623291,-0.019226074,0.050720215,40.007633,-23.946566,-14.320611,257.0,-26472.0,0.0
554.0,0.0803833,-0.019958496,0.045532227,26.61832,-20.641222,-54.48855,257.0,-26472.0,0.0
555.0,0.09625244,-0.014587402,0.030822754,11.564885,-28.206106,-114.091606,257.0,-26472.0,0.0
556.0,0.12359619,-0.012207031,0.029418945,-14.366412,-30.480917,-155.7481,257.0,-26472.0,0.0
557.0,0.13812256,-0.01776123,0.023620605,-35.389313,-41.755726,-189.89313,257.0,-26215.0,0.0
558.0,0.15447998,-0.022521973,0.029296875,-47.93893,-50.564884,-219.70229,257.0,-26215.0,0.0
559.0,0.15148926,-0.036865234,0.03869629,-48.694656,-54.396946,-244.57253,257.0,-26215.0,0.0
560.0,0.14678955,-0.04473877,0.046447754,-23.931297,-66.37405,-250.1374,257.0,-26215.0,0.0
561.0,0.14123535,-0.0435791,0.03491211,1.3129771,-63.48855,-246.91603,257.0,-26215.0,0.0
562.0,0.14813232,-0.031311035,0.019897461,13.732824,-59.687023,-223.92366,257.0,-26215.0,0.0
563.0,0.15875244,-0.026245117,0.013549805,9.320611,-45.755726,-172.1374,257.0,-26215.0,0.0
564.0,0.1586914,-0.017333984,0.020141602,-10.312977,-26.603054,-113.51145,257.0,-26215.0,0.0
565.0,0.15985107,-0.008544922,0.03137207,-56.32061,-21.160305,-54.412212,257.0,-26215.0,0.0
566.0,0.16265869,-0.014099121,0.027038574,-109.580154,-12.648855,-20.366413,257.0,-26215.0,0.0
567.0,0.15686035,-0.022949219,0.027770996,-150.45801,-15.671756,-0.39694658,257.0,-26215.0,0.0
568.0,0.14691162,-0.036315918,0.024536133,-167.56488,-17.022902,-1.1908396,257.0,-26215.0,0.0
569.0,0.12402344,-0.042419434,0.033691406,-156.71756,-15.167939,-13.793893,257.0,-26215.0,0.0
570.0,0.086364746,-0.053833008,0.044189453,-118.770996,-9.328244,-20.992367,257.0,-26215.0,0.0
571.0,0.06506348,-0.058410645,0.051818848,-63.664124,-13.229008,-49.38168,257.0,-26215.0,0.0
572.0,0.08306885,-0.061401367,0.05126953,-5.2290077,-14.022901,-67.08397,257.0,-26215.0,0.0
573.0,0.097473145,-0.055480957,0.05090332,43.290077,-5.183206,-83.8855,257.0,-26215.0,0.0
574.0,0.105651855,-0.049194336,0.04815674,63.12214,6.2900763,-97.862595,257.0,-26215.0,0.0
575.0,0.12225342,-0.043151855,0.045776367,63.14504,14.664123,-97.778625,257.0,-26215.0,0.0
576.0,0.14117432,-0.03668213,0.046875,40.839695,23.687023,-78.32825,257.0,-26215.0,0.0
577.0,0.14581299,-0.037841797,0.048583984,10.992367,30.328245,-54.427483,257.0,-26215.0,0.0
578.0,0.14910889,-0.038085938,0.041931152,-13.526717,30.923664,-11.862596,257.0,-26215.0,0.0
579.0,0.16595459,-0.040405273,0.030456543,-26.290077,27.282442,33.87786,257.0,-26215.0,0.0
580.0,0.14819336,-0.04071045,0.036987305,-19.282442,27.175573,84.30534,257.0,-26215.0,0.0
581.0,0.15777588,-0.036865234,0.03540039,-18.335878,22.030535,112.41222,257.0,-26215.0,0.0
582.0,0.16296387,-0.03668213,0.02746582,-4.923664,25.839695,142.1374,257.0,-26215.0,0.0
583.0,0.13928223,-0.036193848,0.025512695,8.450381,39.27481,163.229,257.0,-26215.0,0.0
584.0,0.1329956,-0.026367188,6.1035156E-5,16.045801,36.84733,179.16794,257.0,-26215.0,0.0
585.0,0.14263916,-0.022399902,0.009216309,33.923664,39.412212,177.46565,257.0,-26215.0,0.0
586.0,0.14764404,-0.02545166,0.011230469,57.78626,45.290077,177.29007,257.0,-26215.0,0.0
587.0,0.15563965,-0.025146484,0.009887695,67.51908,46.15267,157.61069,257.0,-26215.0,0.0
588.0,0.15631104,-0.024780273,0.010803223,53.992367,42.755726,137.0,257.0,-26215.0,0.0
589.0,0.14953613,-0.018127441,0.010437012,23.175573,33.038166,119.48092,257.0,-26215.0,0.0
590.0,0.13763428,-0.013427734,0.01159668,-12.503817,16.328245,113.80153,257.0,-26215.0,0.0
591.0,0.11859131,-0.016357422,0.018005371,-37.480915,-4.2366414,112.87023,257.0,-26215.0,0.0
592.0,0.09942627,-0.028442383,0.021362305,-40.23664,-17.328245,107.70992,257.0,-26215.0,0.0
593.0,0.08337402,-0.03552246,0.030395508,-17.145039,-24.786259,103.9313,257.0,-26215.0,0.0
594.0,0.08251953,-0.03845215,0.030700684,26.458015,-33.717556,88.221375,257.0,-25958.0,0.0
595.0,0.085632324,-0.035583496,0.030944824,75.64886,-33.045803,78.53435,257.0,-25958.0,0.0
596.0,0.0848999,-0.030151367,0.033325195,112.36641,-29.38168,70.618324,257.0,-25958.0,0.0
597.0,0.084106445,-0.0211792,0.04095459,129.45038,-21.832062,57.290077,257.0,-25958.0,0.0
598.0,0.0847168,-0.014343262,0.049743652,124.67939,-14.015267,40.190838,257.0,-25958.0,0.0
599.0,0.08795166,-0.0061035156,0.05206299,94.67175,-9.984733,12.633588,257.0,-25958.0,0.0
600.0,0.09118652,-0.0044555664,0.050109863,44.419846,-9.572519,-23.664122,257.0,-25958.0,0.0
601.0,0.089904785,-0.008728027,0.047180176,-17.335878,-10.503817,-54.46565,257.0,-25958.0,0.0
602.0,0.11871338,-0.012573242,0.037109375,-59.82443,-17.70229,-99.24428,257.0,-25958.0,0.0
603.0,0.12896729,-0.018859863,0.03326416,-86.816795,-21.442749,-128.57253,257.0,-25958.0,0.0
604.0,0.13928223,-0.02557373,0.033996582,-97.72519,-28.664122,-167.90076,257.0,-25958.0,0.0
605.0,0.14117432,-0.03375244,0.034423828,-102.12977,-33.396946,-195.12213,257.0,-25958.0,0.0
606.0,0.13604736,-0.039978027,0.035827637,-87.80153,-34.549618,-211.38168,257.0,-25958.0,0.0
607.0,0.1274414,-0.042785645,0.035461426,-58.862595,-34.16794,-209.87022,257.0,-25958.0,0.0
608.0,0.12664795,-0.041625977,0.026550293,-33.15267,-32.694656,-192.98473,257.0,-25958.0,0.0
609.0,0.13830566,-0.035949707,0.02319336,-16.839695,-30.57252,-166.12978,257.0,-25958.0,0.0
610.0,0.15161133,-0.030456543,0.01940918,-15.0992365,-21.847328,-122.29771,257.0,-25958.0,0.0
611.0,0.15826416,-0.020019531,0.017456055,-33.305344,-14.832061,-77.62595,257.0,-25958.0,0.0
612.0,0.16711426,-0.022705078,0.018554688,-61.129772,-20.801527,-54.38168,257.0,-25958.0,0.0
613.0,0.17132568,-0.024719238,0.025024414,-81.00764,-21.740458,-22.931297,257.0,-25958.0,0.0
614.0,0.15258789,-0.03466797,0.02709961,-84.229004,-23.93893,-14.793893,257.0,-25958.0,0.0
615.0,0.12384033,-0.045532227,0.030273438,-71.458015,-28.366413,-23.503817,257.0,-25958.0,0.0
616.0,0.09411621,-0.047302246,0.034606934,-44.49618,-31.175573,-35.335876,257.0,-25958.0,0.0
617.0,0.08190918,-0.043701172,0.036010742,-7.4503818,-34.38168,-39.732826,257.0,-25958.0,0.0
618.0,0.0848999,-0.03930664,0.037841797,23.832062,-37.572517,-45.23664,257.0,-25958.0,0.0
619.0,0.09118652,-0.03265381,0.038391113,30.74809,-33.687023,-54.89313,257.0,-25958.0,0.0
620.0,0.0993042,-0.034423828,0.04168701,31.755726,-31.824427,-54.198475,257.0,-25958.0,0.0
621.0,0.10949707,-0.04034424,0.051330566,39.267174,-28.206106,-54.49618,257.0,-25958.0,0.0
622.0,0.11755371,-0.044067383,0.059020996,54.59542,-23.91603,-65.80916,257.0,-25958.0,0.0
623.0,0.12432861,-0.042663574,0.0602417,61.778625,-18.91603,-70.419846,257.0,-25958.0,0.0
624.0,0.13256836,-0.04119873,0.058654785,61.412212,-13.610687,-56.198475,257.0,-25958.0,0.0
625.0,0.1430664,-0.038330078,0.055114746,66.221375,-2.1374047,-54.32061,257.0,-25958.0,0.0
626.0,0.16186523,-0.033447266,0.04559326,66.43511,13.519084,-31.992367,257.0,-25958.0,0.0
627.0,0.16088867,-0.02520752,0.040893555,54.198475,44.419846,2.4732823,257.0,-25958.0,0.0
628.0,0.1593628,-0.021728516,0.03967285,27.908398,65.27481,36.70229,257.0,-25958.0,0.0
629.0,0.15148926,-0.020202637,0.03894043,-11.038168,81.75572,74.56489,257.0,-25958.0,0.0
630.0,0.13970947,-0.01977539,0.030700684,-47.06107,88.71756,109.40458,257.0,-25958.0,0.0
631.0,0.12426758,-0.01977539,0.024047852,-69.15267,92.61069,143.17557,257.0,-25958.0,0.0
632.0,0.14251709,-0.021484375,0.011413574,-83.23664,77.87023,161.32825,257.0,-25701.0,0.0
633.0,0.15496826,-0.030456543,0.01171875,-66.419846,70.58778,176.39694,257.0,-25701.0,0.0
634.0,0.16290283,-0.034118652,0.006286621,-33.099236,67.80916,171.90076,257.0,-25701.0,0.0
635.0,0.16308594,-0.031555176,0.0032348633,-7.259542,55.580154,163.63359,257.0,-25701.0,0.0
636.0,0.15960693,-0.02557373,0.0051879883,7.6946564,40.389313,149.91603,257.0,-25701.0,0.0
637.0,0.15118408,-0.020202637,0.007873535,8.442748,26.48855,142.83969,257.0,-25701.0,0.0
638.0,0.13543701,-0.020080566,0.008300781,-2.961832,8.0992365,134.45038,257.0,-25701.0,0.0
639.0,0.117004395,-0.023986816,0.009887695,-3.167939,-8.175572,129.21375,257.0,-25701.0,0.0
640.0,0.099731445,-0.028320312,0.012512207,14.106871,-18.740458,122.10687,257.0,-25701.0,0.0
641.0,0.0869751,-0.029296875,0.023925781,37.816795,-27.435114,118.05344,257.0,-25701.0,0.0
642.0,0.08618164,-0.032470703,0.030273438,70.42748,-24.984734,109.67939,257.0,-25701.0,0.0
643.0,0.090026855,-0.02178955,0.0234375,94.137405,-24.022902,102.94656,257.0,-25701.0,0.0
644.0,0.08654785,-0.014099121,0.02355957,93.36641,-15.648855,90.816795,257.0,-25701.0,0.0
645.0,0.08239746,-0.012084961,0.029296875,76.67939,-9.328244,67.70229,257.0,-25701.0,0.0
646.0,0.082336426,-0.009155273,0.03869629,51.923664,-8.152672,39.65649,257.0,-25701.0,0.0
647.0,0.08013916,-0.010803223,0.045654297,27.74809,-9.38168,3.7862597,257.0,-25701.0,0.0
648.0,0.075927734,-0.016845703,0.049987793,2.8244274,-15.847328,-43.91603,257.0,-25701.0,0.0
649.0,0.0848999,-0.011962891,0.02508545,-35.709923,-20.419847,-76.34351,257.0,-25701.0,0.0
650.0,0.103393555,-0.016113281,0.035217285,-56.694656,-29.770992,-126.31298,257.0,-25701.0,0.0
651.0,0.12017822,-0.019104004,0.030883789,-69.61069,-36.839695,-169.69466,257.0,-25701.0,0.0
652.0,0.1461792,-0.024414062,0.030761719,-73.51145,-44.961834,-214.30534,257.0,-25701.0,0.0
653.0,0.15490723,-0.034606934,0.03643799,-67.32825,-47.51145,-245.56488,257.0,-25701.0,0.0
654.0,0.15826416,-0.043395996,0.043273926,-43.08397,-53.0,-250.1374,257.0,-25701.0,0.0
655.0,0.15789795,-0.04473877,0.03881836,-13.038168,-54.816795,-250.1374,257.0,-25701.0,0.0
656.0,0.14971924,-0.040039062,0.030944824,-1.1908396,-50.23664,-245.07634,257.0,-25701.0,0.0
657.0,0.15075684,-0.03668213,0.019348145,-6.3587785,-38.46565,-200.58778,257.0,-25701.0,0.0
658.0,0.15618896,-0.036132812,0.026123047,-19.29771,-23.198473,-137.21375,257.0,-25701.0,0.0
659.0,0.15472412,-0.016479492,0.020019531,-38.23664,-15.435115,-63.53435,257.0,-25701.0,0.0
660.0,0.16229248,-0.016174316,0.023498535,-70.0,-13.274809,-8.083969,257.0,-25701.0,0.0
661.0,0.15948486,-0.023376465,0.026306152,-104.061066,-17.366413,26.900763,257.0,-25701.0,0.0
662.0,0.14196777,-0.039611816,0.028198242,-116.89313,-15.625955,39.312977,257.0,-25701.0,0.0
663.0,0.11706543,-0.053344727,0.029785156,-103.458015,-18.70229,28.725191,257.0,-25701.0,0.0
664.0,0.09503174,-0.05456543,0.03704834,-60.030533,-21.343512,14.122137,257.0,-25701.0,0.0
665.0,0.08050537,-0.04473877,0.03894043,-8.106871,-23.183207,10.152672,257.0,-25701.0,0.0
666.0,0.07678223,-0.034484863,0.041381836,15.320611,-22.496183,8.503817,257.0,-25701.0,0.0
667.0,0.08685303,-0.03149414,0.03527832,13.824428,-21.900763,0.061068702,257.0,-25701.0,0.0
668.0,0.093811035,-0.032470703,0.043762207,15.938931,-18.221375,-9.022901,257.0,-25701.0,0.0
669.0,0.106933594,-0.034240723,0.04534912,18.709923,-11.343512,-19.557251,257.0,-25444.0,0.0
670.0,0.11694336,-0.03527832,0.049438477,24.450382,-8.671756,-25.633587,257.0,-25444.0,0.0
671.0,0.12310791,-0.036376953,0.05407715,27.816793,-8.0,-28.694656,257.0,-25444.0,0.0
672.0,0.12841797,-0.04144287,0.056884766,36.27481,-9.267176,-31.694656,257.0,-25444.0,0.0
673.0,0.13348389,-0.044433594,0.055419922,57.480915,-7.2900763,-29.931297,257.0,-25444.0,0.0
674.0,0.14648438,-0.0413208,0.04864502,82.57252,-4.4656487,-21.687023,257.0,-25444.0,0.0
675.0,0.16296387,-0.03643799,0.04498291,103.94656,12.007633,-17.564886,257.0,-25444.0,0.0
676.0,0.16589355,-0.025512695,0.039367676,102.57252,31.76336,-3.8015268,257.0,-25444.0,0.0
677.0,0.16143799,-0.016418457,0.037963867,73.938934,56.34351,18.923664,257.0,-25444.0,0.0
678.0,0.1352539,-0.014221191,0.03692627,26.961832,79.43511,48.44275,257.0,-25444.0,0.0
679.0,0.10845947,-0.013244629,0.032409668,-22.48855,82.76336,83.24428,257.0,-25444.0,0.0
680.0,0.12207031,-0.01586914,0.023864746,-50.15267,77.98473,103.61069,257.0,-25444.0,0.0
681.0,0.13769531,-0.026000977,0.01977539,-53.099236,78.83206,118.854965,257.0,-25444.0,0.0
682.0,0.15075684,-0.034729004,0.010986328,-32.14504,81.71756,117.89313,257.0,-25444.0,0.0
683.0,0.15814209,-0.0345459,0.005126953,-16.404581,79.137405,111.145035,257.0,-25444.0,0.0
684.0,0.1515503,-0.025390625,0.003540039,-11.290076,70.854965,110.35878,257.0,-25444.0,0.0
685.0,0.14385986,-0.01776123,0.008666992,-31.74809,47.244274,111.84733,257.0,-25444.0,0.0
686.0,0.1326294,-0.018127441,0.014831543,-51.52672,22.89313,117.96947,257.0,-25444.0,0.0
687.0,0.11053467,-0.028381348,0.017333984,-50.64122,1.9312977,118.908394,257.0,-25444.0,0.0
688.0,0.093566895,-0.035339355,0.02166748,-22.160305,-18.503817,116.0229,257.0,-25444.0,0.0
689.0,0.07867432,-0.03967285,0.034057617,25.76336,-30.435114,111.19847,257.0,-25444.0,0.0
690.0,0.08935547,-0.039489746,0.034301758,84.12214,-38.9771,103.908394,257.0,-25444.0,0.0
691.0,0.0960083,-0.030700684,0.032287598,129.42747,-35.931297,98.94656,257.0,-25444.0,0.0
692.0,0.092285156,-0.021118164,0.031982422,139.69466,-24.076336,89.458015,257.0,-25444.0,0.0
693.0,0.08996582,-0.012634277,0.03778076,123.0458,-11.564885,68.19084,257.0,-25444.0,0.0
694.0,0.08935547,-0.00579834,0.047546387,95.05344,-2.5877862,43.27481,257.0,-25444.0,0.0
695.0,0.09350586,-0.0044555664,0.05114746,48.969467,-1.7709924,14.2595415,257.0,-25444.0,0.0
696.0,0.09295654,-0.0061035156,0.048583984,-4.5114503,-0.9541985,-21.89313,257.0,-25444.0,0.0
697.0,0.09765625,-0.010253906,0.03845215,-52.229008,-8.687023,-54.572517,257.0,-25444.0,0.0
698.0,0.122680664,-0.011291504,0.032958984,-85.580154,-15.175572,-87.091606,257.0,-25444.0,0.0
699.0,0.1270752,-0.018432617,0.030456543,-107.36641,-21.23664,-122.65649,257.0,-25444.0,0.0
700.0,0.13598633,-0.02734375,0.032958984,-113.70992,-26.42748,-161.67938,257.0,-25444.0,0.0
701.0,0.13427734,-0.03515625,0.035827637,-110.091606,-32.51145,-189.69466,257.0,-25444.0,0.0
702.0,0.12878418,-0.03869629,0.03894043,-90.10687,-34.65649,-206.23665,257.0,-25444.0,0.0
703.0,0.123168945,-0.037597656,0.03881836,-65.03053,-37.885498,-207.47328,257.0,-25444.0,0.0
704.0,0.123535156,-0.038024902,0.033203125,-37.16794,-33.85496,-194.93893,257.0,-25444.0,0.0
705.0,0.14013672,-0.0345459,0.027648926,-16.587786,-32.290077,-177.90076,257.0,-25444.0,0.0
706.0,0.16448975,-0.029418945,0.022033691,-15.931297,-23.801527,-144.06107,257.0,-25187.0,0.0
707.0,0.17529297,-0.021911621,0.017333984,-35.389313,-7.7862597,-101.35114,257.0,-25187.0,0.0
708.0,0.17456055,-0.020202637,0.027038574,-73.0687,-8.7404585,-52.87786,257.0,-25187.0,0.0
709.0,0.16461182,-0.028808594,0.030578613,-100.12214,-7.6106873,-46.198475,257.0,-25187.0,0.0
710.0,0.13848877,-0.03753662,0.0357666,-109.541985,-14.129771,-27.755726,257.0,-25187.0,0.0
711.0,0.11206055,-0.044677734,0.03479004,-100.65649,-19.122137,-19.656488,257.0,-25187.0,0.0
712.0,0.08679199,-0.04663086,0.03265381,-70.51145,-19.816793,-16.435114,257.0,-25187.0,0.0
713.0,0.080566406,-0.045776367,0.032287598,-28.458015,-20.908398,-13.068703,257.0,-25187.0,0.0
714.0,0.08935547,-0.038879395,0.015991211,1.8396946,-19.931297,-8.824428,257.0,-25187.0,0.0
715.0,0.08868408,-0.039245605,0.036071777,25.519083,-15.839695,-23.465649,257.0,-25187.0,0.0
716.0,0.09564209,-0.03643799,0.041809082,30.267176,-12.664123,-34.732826,257.0,-25187.0,0.0
717.0,0.1048584,-0.038330078,0.045166016,27.70229,-14.450381,-50.198475,257.0,-25187.0,0.0
718.0,0.11260986,-0.040161133,0.047058105,24.755726,-11.465649,-54.55725,257.0,-25187.0,0.0
719.0,0.1217041,-0.04345703,0.049072266,31.099237,-12.687023,-54.50382,257.0,-25187.0,0.0
720.0,0.13470459,-0.049194336,0.048461914,45.64122,-11.427481,-54.70229,257.0,-25187.0,0.0
721.0,0.14123535,-0.0491333,0.04864502,66.38931,-2.610687,-31.755726,257.0,-25187.0,0.0
722.0,0.15454102,-0.039794922,0.04284668,80.52672,2.923664,-11.251908,257.0,-25187.0,0.0
723.0,0.16583252,-0.027282715,0.03668213,77.770996,21.862595,22.229008,257.0,-25187.0,0.0
724.0,0.16253662,-0.022521973,0.038879395,59.290077,36.78626,57.25954,257.0,-25187.0,0.0
725.0,0.16320801,-0.016540527,0.03729248,23.198473,50.694656,87.221375,257.0,-25187.0,0.0
726.0,0.14099121,-0.020202637,0.036376953,-8.80916,62.251907,116.07633,257.0,-25187.0,0.0
727.0,0.11578369,-0.020874023,0.032165527,-29.824427,64.83206,142.69466,257.0,-25187.0,0.0
728.0,0.1182251,-0.021606445,0.023742676,-40.79389,55.16794,159.37404,257.0,-25187.0,0.0
729.0,0.13555908,-0.024475098,0.017028809,-36.55725,54.030533,162.19084,257.0,-25187.0,0.0
730.0,0.14648438,-0.03125,0.013122559,-5.7862597,52.32061,155.99237,257.0,-25187.0,0.0
731.0,0.15740967,-0.034423828,0.0076904297,27.534351,48.93893,135.30534,257.0,-25187.0,0.0
732.0,0.15600586,-0.030090332,0.008972168,51.580154,46.549618,111.32825,257.0,-25187.0,0.0
733.0,0.14428711,-0.018066406,0.012817383,38.030533,35.458015,94.94656,257.0,-25187.0,0.0
734.0,0.13311768,-0.016784668,0.015075684,7.625954,20.854961,90.46565,257.0,-25187.0,0.0
735.0,0.1161499,-0.017089844,0.017822266,-15.78626,5.1679387,88.16794,257.0,-25187.0,0.0
736.0,0.097961426,-0.029174805,0.020141602,-18.183207,-7.6488547,90.83969,257.0,-25187.0,0.0
737.0,0.08294678,-0.035461426,0.030822754,8.59542,-17.564886,85.83969,257.0,-25187.0,0.0
738.0,0.08312988,-0.03778076,0.03137207,48.748093,-24.610687,81.54962,257.0,-25187.0,0.0
739.0,0.08831787,-0.029724121,0.028930664,87.35878,-23.12977,77.541985,257.0,-25187.0,0.0
740.0,0.08538818,-0.022766113,0.028381348,106.70992,-21.076336,71.1145,257.0,-25187.0,0.0
741.0,0.08203125,-0.017211914,0.034118652,107.51145,-15.946565,56.732826,257.0,-25187.0,0.0
742.0,0.08544922,-0.012573242,0.041625977,91.00764,-15.7404585,34.40458,257.0,-25187.0,0.0
743.0,0.08947754,-0.010070801,0.044677734,62.29771,-16.610687,7.4503818,257.0,-24930.0,0.0
744.0,0.09436035,-0.01184082,0.04144287,20.221375,-19.412214,-29.183207,257.0,-24930.0,0.0
745.0,0.09838867,-0.01373291,0.038024902,-20.274809,-29.198473,-54.65649,257.0,-24930.0,0.0
746.0,0.12298584,-0.014709473,0.033447266,-44.221375,-39.541985,-95.29771,257.0,-24930.0,0.0
747.0,0.1362915,-0.015319824,0.02911377,-64.33588,-44.137405,-131.69466,257.0,-24930.0,0.0
748.0,0.14935303,-0.023132324,0.029663086,-79.0458,-52.587788,-170.99237,257.0,-24930.0,0.0
749.0,0.15197754,-0.03186035,0.03564453,-80.770996,-55.35878,-200.12978,257.0,-24930.0,0.0
750.0,0.14447021,-0.03869629,0.044189453,-66.900764,-57.34351,-218.7481,257.0,-24930.0,0.0
751.0,0.13378906,-0.037963867,0.043640137,-51.076336,-54.67939,-214.00763,257.0,-24930.0,0.0
752.0,0.1274414,-0.031921387,0.039794922,-46.251907,-42.923664,-192.48091,257.0,-24930.0,0.0
753.0,0.13952637,-0.025878906,0.030700684,-53.64122,-40.312977,-163.229,257.0,-24930.0,0.0
754.0,0.14801025,-0.026306152,0.015197754,-65.89313,-19.435114,-115.37405,257.0,-24930.0,0.0
755.0,0.15283203,-0.01977539,0.023254395,-77.56489,-1.8625954,-57.44275,257.0,-24930.0,0.0
756.0,0.15625,-0.02355957,0.021972656,-111.816795,3.221374,-26.0,257.0,-24930.0,0.0
757.0,0.15673828,-0.024353027,0.025817871,-135.48091,7.0839696,-0.46564886,257.0,-24930.0,0.0
758.0,0.14416504,-0.03173828,0.02154541,-150.0916,5.625954,14.038168,257.0,-24930.0,0.0
759.0,0.12561035,-0.038757324,0.02130127,-146.44275,2.8778627,10.923664,257.0,-24930.0,0.0
760.0,0.09979248,-0.045715332,0.023864746,-125.38931,-2.221374,1.259542,257.0,-24930.0,0.0
761.0,0.08312988,-0.048095703,0.027282715,-83.12977,-9.412213,-7.3206105,257.0,-24930.0,0.0
762.0,0.08154297,-0.04547119,0.025756836,-40.67939,-12.732824,-17.282442,257.0,-24930.0,0.0
763.0,0.083740234,-0.043640137,0.025817871,-2.2671757,-11.374045,-27.458015,257.0,-24930.0,0.0
764.0,0.08880615,-0.04156494,0.029846191,25.496183,-10.068703,-34.038166,257.0,-24930.0,0.0
765.0,0.09832764,-0.038146973,0.03314209,39.366413,-13.4198475,-48.778625,257.0,-24930.0,0.0
766.0,0.10839844,-0.04034424,0.040405273,49.366413,-14.351145,-54.419846,257.0,-24930.0,0.0
767.0,0.120788574,-0.04486084,0.0446167,57.603054,-17.351145,-54.427483,257.0,-24930.0,0.0
768.0,0.12884521,-0.048950195,0.04888916,74.01527,-17.030535,-54.435116,257.0,-24930.0,0.0
769.0,0.13415527,-0.047851562,0.045776367,91.099236,-14.526717,-54.305344,257.0,-24930.0,0.0
770.0,0.14874268,-0.037597656,0.04156494,100.40458,-11.236641,-31.396946,257.0,-24930.0,0.0
771.0,0.15374756,-0.028137207,0.03778076,93.458015,5.412214,-3.4580152,257.0,-24930.0,0.0
772.0,0.15454102,-0.023132324,0.03729248,73.938934,19.419847,28.557251,257.0,-24930.0,0.0
773.0,0.15588379,-0.020935059,0.03778076,38.480915,35.89313,55.08397,257.0,-24930.0,0.0
774.0,0.14782715,-0.022155762,0.035339355,6.4656487,51.870228,79.60305,257.0,-24930.0,0.0
775.0,0.122802734,-0.025024414,0.028564453,-16.305344,57.89313,104.80916,257.0,-24930.0,0.0
776.0,0.107299805,-0.024963379,0.024902344,-29.06107,55.099236,126.98473,257.0,-24930.0,0.0
777.0,0.12908936,-0.026062012,0.0154418945,-29.0,50.17557,133.7481,257.0,-24930.0,0.0
778.0,0.14471436,-0.03265381,0.011169434,-4.0992365,48.671757,137.45038,257.0,-24930.0,0.0
779.0,0.16015625,-0.036865234,0.0061035156,31.42748,50.419846,127.221375,257.0,-24930.0,0.0
780.0,0.16168213,-0.032104492,0.0078125,74.30534,50.10687,114.770996,257.0,-24673.0,0.0
781.0,0.15509033,-0.018859863,0.013000488,72.70229,42.076336,112.51908,257.0,-24673.0,0.0
782.0,0.13952637,-0.01574707,0.018127441,30.984734,27.862595,109.63359,257.0,-24673.0,0.0
783.0,0.12609863,-0.015380859,0.018066406,-4.4885497,13.671756,108.84733,257.0,-24673.0,0.0
784.0,0.10949707,-0.026123047,0.019042969,-16.824427,2.167939,114.137405,257.0,-24673.0,0.0
785.0,0.10015869,-0.026794434,0.025024414,-2.1984732,-3.572519,119.64886,257.0,-24673.0,0.0
786.0,0.095703125,-0.026611328,0.025512695,18.045801,-6.9847326,117.67175,257.0,-24673.0,0.0
787.0,0.089660645,-0.023986816,0.024780273,30.549618,-4.6412215,112.51145,257.0,-24673.0,0.0
788.0,0.099975586,-0.018920898,0.0041503906,40.549618,-1.7862595,102.900764,257.0,-24673.0,0.0
789.0,0.08416748,-0.019897461,0.035888672,52.732826,4.1679387,82.79389,257.0,-24673.0,0.0
790.0,0.077941895,-0.012573242,0.03869629,49.251907,6.3053436,56.458015,257.0,-24673.0,0.0
791.0,0.0736084,-0.011474609,0.0446167,26.366413,4.2442746,21.786259,257.0,-24673.0,0.0
792.0,0.07897949,-0.014465332,0.046203613,-2.8015268,2.519084,-19.969465,257.0,-24673.0,0.0
793.0,0.08905029,-0.018615723,0.04321289,-33.633587,1.4961832,-55.015266,257.0,-24673.0,0.0
794.0,0.10241699,-0.015380859,0.03253174,-57.23664,-1.908397,-102.419846,257.0,-24673.0,0.0
795.0,0.13104248,-0.015625,0.025512695,-77.740456,-6.89313,-144.9542,257.0,-24673.0,0.0
796.0,0.14709473,-0.019958496,0.021911621,-99.05344,-13.427481,-184.67175,257.0,-24673.0,0.0
797.0,0.16137695,-0.030761719,0.024291992,-112.73283,-18.450382,-222.73282,257.0,-24673.0,0.0
798.0,0.15740967,-0.041625977,0.03253174,-104.0458,-24.908398,-247.81679,257.0,-24673.0,0.0
799.0,0.14733887,-0.05517578,0.041503906,-61.38168,-30.099237,-250.1374,257.0,-24673.0,0.0
800.0,0.13104248,-0.06011963,0.037719727,-0.78625953,-34.85496,-250.1374,257.0,-24673.0,0.0
801.0,0.1282959,-0.05883789,0.028137207,52.671757,-41.267174,-221.8855,257.0,-24673.0,0.0
802.0,0.14526367,-0.047058105,0.008911133,84.12977,-37.35878,-179.53435,257.0,-24673.0,0.0
803.0,0.15667725,-0.023742676,0.008361816,85.770996,-20.595419,-108.12214,257.0,-24673.0,0.0
804.0,0.16809082,-0.006225586,0.012878418,43.70229,-11.465649,-54.091602,257.0,-24673.0,0.0
805.0,0.1663208,-0.013244629,0.027160645,-1.9923664,2.053435,-0.3816794,257.0,-24673.0,0.0
806.0,0.15020752,-0.019897461,0.05291748,-45.961834,-2.129771,25.778625,257.0,-24673.0,0.0
807.0,0.12042236,-0.038085938,0.043884277,-82.96183,-14.396947,33.53435,257.0,-24673.0,0.0
808.0,0.09820557,-0.04937744,0.044128418,-95.1145,-21.580153,23.053434,257.0,-24673.0,0.0
809.0,0.08532715,-0.04425049,0.04284668,-74.68702,-23.358778,18.145039,257.0,-24673.0,0.0
810.0,0.084350586,-0.038391113,0.038635254,-43.72519,-20.824427,22.0,257.0,-24673.0,0.0
811.0,0.08660889,-0.028564453,0.035705566,-34.587788,-12.290076,23.610687,257.0,-24673.0,0.0
812.0,0.093811035,-0.028869629,0.03479004,-39.633587,-3.946565,17.656488,257.0,-24673.0,0.0
813.0,0.10662842,-0.033996582,0.038635254,-36.335876,5.6412215,13.519084,257.0,-24673.0,0.0
814.0,0.1138916,-0.036315918,0.041259766,-23.038168,10.152672,6.778626,257.0,-24673.0,0.0
815.0,0.11566162,-0.040405273,0.05041504,-0.45801526,6.6488547,-1.7862595,257.0,-24673.0,0.0
816.0,0.115478516,-0.04852295,0.047058105,34.83206,-0.1908397,-13.801527,257.0,-24673.0,0.0
817.0,0.12042236,-0.05126953,0.04724121,85.175575,-7.4503818,-23.656488,257.0,-24416.0,0.0
818.0,0.13903809,-0.045410156,0.044921875,127.0458,-11.954199,-36.572517,257.0,-24416.0,0.0
819.0,0.16766357,-0.043823242,0.036987305,161.61832,-4.19084,-52.251907,257.0,-24416.0,0.0
820.0,0.16308594,-0.03845215,0.034240723,178.59541,18.305344,-42.801525,257.0,-24416.0,0.0
821.0,0.15509033,-0.02557373,0.034301758,165.47328,35.06107,-28.541985,257.0,-24416.0,0.0
822.0,0.14886475,-0.017944336,0.036193848,121.57252,61.374046,-7.6412215,257.0,-24416.0,0.0
823.0,0.1296997,-0.011779785,0.030029297,56.08397,87.89313,29.022902,257.0,-24416.0,0.0
824.0,0.12121582,-0.0107421875,0.020324707,-14.022901,88.07633,69.26717,257.0,-24416.0,0.0
825.0,0.1350708,-0.01586914,0.014709473,-53.267174,90.94656,104.79389,257.0,-24416.0,0.0
826.0,0.14654541,-0.021362305,0.009643555,-70.67939,88.01527,137.40459,257.0,-24416.0,0.0
827.0,0.15374756,-0.026428223,0.005065918,-77.66412,77.01527,152.72519,257.0,-24416.0,0.0
828.0,0.1515503,-0.027648926,0.0037231445,-78.83969,58.053436,162.52672,257.0,-24416.0,0.0
829.0,0.1473999,-0.025817871,0.0049438477,-73.89313,34.229008,164.38931,257.0,-24416.0,0.0
830.0,0.13928223,-0.02911377,0.00592041,-55.40458,13.068703,153.229,257.0,-24416.0,0.0
831.0,0.12347412,-0.033447266,0.00982666,-31.76336,-5.038168,140.30534,257.0,-24416.0,0.0
832.0,0.105651855,-0.032958984,0.0107421875,6.4503818,-17.29771,126.175575,257.0,-24416.0,0.0
833.0,0.0892334,-0.034423828,0.024353027,46.46565,-27.778625,112.63359,257.0,-24416.0,0.0
834.0,0.08465576,-0.03753662,0.03363037,95.41222,-32.160305,100.80153,257.0,-24416.0,0.0
835.0,0.08880615,-0.026672363,0.028625488,132.70993,-32.282444,90.80153,257.0,-24416.0,0.0
836.0,0.08502197,-0.018676758,0.03137207,131.77863,-24.25191,81.458015,257.0,-24416.0,0.0
837.0,0.08325195,-0.014770508,0.036010742,116.34351,-14.969465,63.114502,257.0,-24416.0,0.0
838.0,0.08532715,-0.008056641,0.04119873,85.76336,-7.8625956,40.931297,257.0,-24416.0,0.0
839.0,0.09289551,-0.005859375,0.04736328,47.160305,-6.854962,20.198473,257.0,-24416.0,0.0
840.0,0.099365234,-0.0068359375,0.047546387,8.053435,-3.3282442,-5.89313,257.0,-24416.0,0.0
841.0,0.09649658,-0.008850098,0.04449463,-35.038166,-2.816794,-33.190838,257.0,-24416.0,0.0
842.0,0.116882324,-0.0119018555,0.031982422,-68.12214,-9.709924,-62.099236,257.0,-24416.0,0.0
843.0,0.13043213,-0.014160156,0.028259277,-92.28244,-14.389313,-97.908394,257.0,-24416.0,0.0
844.0,0.13824463,-0.020263672,0.027893066,-108.68702,-22.984734,-137.71756,257.0,-24416.0,0.0
845.0,0.13867188,-0.032165527,0.035217285,-110.92367,-30.442749,-171.39694,257.0,-24416.0,0.0
846.0,0.13128662,-0.04119873,0.037963867,-89.80916,-37.25954,-197.09924,257.0,-24416.0,0.0
847.0,0.12072754,-0.046203613,0.041870117,-47.61832,-40.450382,-207.96184,257.0,-24416.0,0.0
848.0,0.12054443,-0.04260254,0.036499023,-4.068702,-47.091602,-202.26718,257.0,-24416.0,0.0
849.0,0.13623047,-0.033325195,0.025756836,26.290077,-44.59542,-184.38931,257.0,-24416.0,0.0
850.0,0.14685059,-0.022521973,0.014465332,33.312977,-35.053436,-153.05344,257.0,-24416.0,0.0
851.0,0.16064453,-0.010437012,0.019897461,3.7480917,-18.480917,-112.78626,257.0,-24416.0,0.0
852.0,0.17248535,-0.009155273,0.025939941,-55.251907,-12.320611,-71.66412,257.0,-24416.0,0.0
853.0,0.17938232,-0.016174316,0.0064086914,-111.908394,-4.4885497,-49.44275,257.0,-24416.0,0.0
854.0,0.14978027,-0.02923584,0.030456543,-146.00763,-8.603053,-46.244274,257.0,-24159.0,0.0
855.0,0.1227417,-0.04107666,0.032958984,-162.15266,-18.160305,-45.992367,257.0,-24159.0,0.0
856.0,0.104003906,-0.044006348,0.032226562,-144.45038,-21.793894,-46.954197,257.0,-24159.0,0.0
857.0,0.09387207,-0.044921875,0.030151367,-107.12214,-19.687023,-44.83206,257.0,-24159.0,0.0
858.0,0.09326172,-0.04699707,0.029907227,-69.458015,-18.389313,-47.53435,257.0,-24159.0,0.0
859.0,0.0970459,-0.046936035,0.030212402,-31.89313,-12.9007635,-54.48855,257.0,-24159.0,0.0
860.0,0.103637695,-0.048583984,0.036315918,6.0229006,-8.923664,-54.396946,257.0,-24159.0,0.0
861.0,0.11114502,-0.04473877,0.04522705,28.816793,-6.9541984,-54.267174,257.0,-24159.0,0.0
862.0,0.12042236,-0.046447754,0.049560547,40.190838,-5.625954,-60.15267,257.0,-24159.0,0.0
863.0,0.12402344,-0.050048828,0.055236816,48.366413,-12.068703,-54.396946,257.0,-24159.0,0.0
864.0,0.13305664,-0.052490234,0.05596924,62.84733,-9.328244,-54.64122,257.0,-24159.0,0.0
865.0,0.13970947,-0.047729492,0.050476074,74.16794,-6.4885497,-54.76336,257.0,-24159.0,0.0
866.0,0.1616211,-0.041503906,0.04296875,79.27481,6.557252,-25.977098,257.0,-24159.0,0.0
867.0,0.1560669,-0.032287598,0.04248047,72.496185,28.854961,12.297709,257.0,-24159.0,0.0
868.0,0.15802002,-0.026123047,0.043823242,50.129772,45.93893,44.519085,257.0,-24159.0,0.0
869.0,0.14916992,-0.023742676,0.039489746,21.290077,67.15267,88.19847,257.0,-24159.0,0.0
870.0,0.1270752,-0.025268555,0.024291992,-2.1374047,72.770996,120.69466,257.0,-24159.0,0.0
871.0,0.11553955,-0.024841309,0.023620605,-16.503817,62.53435,146.98473,257.0,-24159.0,0.0
872.0,0.13146973,-0.029724121,0.020141602,-10.251908,57.59542,154.72519,257.0,-24159.0,0.0
873.0,0.1496582,-0.03479004,0.015930176,18.93893,60.16794,160.35115,257.0,-24159.0,0.0
874.0,0.1665039,-0.035705566,0.0072021484,49.396946,62.038166,149.1374,257.0,-24159.0,0.0
875.0,0.17401123,-0.025634766,0.0026855469,60.435116,61.190838,136.61069,257.0,-24159.0,0.0
876.0,0.17089844,-0.018737793,0.008911133,41.65649,51.83206,135.89313,257.0,-24159.0,0.0
877.0,0.17053223,-0.0126953125,0.010009766,14.625955,34.91603,144.03816,257.0,-24159.0,0.0
878.0,0.15441895,-0.011474609,0.015136719,-18.610687,18.57252,153.37404,257.0,-24159.0,0.0
879.0,0.1340332,-0.015808105,0.017211914,-43.396946,2.2671757,164.83969,257.0,-24159.0,0.0
880.0,0.11437988,-0.02166748,0.015563965,-48.076336,-14.21374,171.26718,257.0,-24159.0,0.0
881.0,0.09643555,-0.031188965,0.026428223,-19.984734,-22.274809,172.82443,257.0,-24159.0,0.0
882.0,0.09094238,-0.03363037,0.036132812,30.587786,-32.59542,164.00763,257.0,-24159.0,0.0
883.0,0.09442139,-0.02923584,0.033325195,85.20611,-29.824427,152.94656,257.0,-24159.0,0.0
884.0,0.08685303,-0.024536133,0.03540039,118.73283,-20.587786,133.83206,257.0,-24159.0,0.0
885.0,0.07556152,-0.016418457,0.039733887,128.55725,-13.145039,104.56489,257.0,-24159.0,0.0
886.0,0.066101074,-0.007873535,0.051330566,116.91603,-8.793893,63.015266,257.0,-24159.0,0.0
887.0,0.059814453,-0.0068969727,0.058410645,85.36641,-12.427481,18.175573,257.0,-24159.0,0.0
888.0,0.059509277,-0.005493164,0.060058594,39.335876,-14.374045,-35.648853,257.0,-24159.0,0.0
889.0,0.06439209,-0.0056152344,0.05517578,-12.679389,-22.053434,-74.08397,257.0,-24159.0,0.0
890.0,0.09643555,-0.009399414,0.043518066,-50.671757,-32.809162,-132.87787,257.0,-24159.0,0.0
891.0,0.11468506,-0.011657715,0.035949707,-81.83969,-32.809162,-175.18321,257.0,-23902.0,0.0
892.0,0.13903809,-0.017700195,0.034606934,-98.770996,-39.50382,-219.7939,257.0,-23902.0,0.0
893.0,0.15460205,-0.03173828,0.037231445,-102.816795,-41.351147,-250.1374,257.0,-23902.0,0.0
894.0,0.15655518,-0.042053223,0.04168701,-83.580154,-40.992367,-250.1374,257.0,-23902.0,0.0
895.0,0.15454102,-0.044006348,0.040222168,-51.221375,-43.47328,-250.1374,257.0,-23902.0,0.0
896.0,0.16101074,-0.037841797,0.027893066,-26.793894,-39.64122,-250.1374,257.0,-23902.0,0.0
897.0,0.16705322,-0.032592773,0.011291504,-19.908398,-26.687023,-204.63359,257.0,-23902.0,0.0
898.0,0.15802002,-0.028869629,0.010864258,-26.57252,-15.732824,-140.45038,257.0,-23902.0,0.0
899.0,0.16113281,-0.0115356445,0.020751953,-55.221375,-18.32061,-71.12977,257.0,-23902.0,0.0
900.0,0.117370605,-0.053955078,0.020874023,-114.091606,-27.198473,-26.137405,257.0,-23902.0,0.0
901.0,0.09686279,-0.05328369,0.02746582,-69.96947,-25.923664,-54.44275,257.0,-23902.0,0.0
902.0,0.08337402,-0.044555664,0.03112793,-28.908398,-25.908398,-54.61832,257.0,-23902.0,0.0
903.0,0.08453369,-0.037902832,0.033447266,-11.832061,-27.38168,-54.541985,257.0,-23902.0,0.0
904.0,0.09033203,-0.042541504,0.03967285,-12.961832,-30.015266,-73.12977,257.0,-23902.0,0.0
905.0,0.10571289,-0.04449463,0.041809082,1.0763359,-26.068703,-87.03817,257.0,-23902.0,0.0
906.0,0.1237793,-0.04547119,0.044433594,18.282442,-19.465649,-86.15267,257.0,-23902.0,0.0
907.0,0.13171387,-0.05090332,0.057128906,32.045803,-17.25191,-83.16031,257.0,-23902.0,0.0
908.0,0.13537598,-0.055358887,0.06549072,47.335876,-16.625954,-75.48092,257.0,-23902.0,0.0
909.0,0.14196777,-0.055908203,0.061828613,62.374046,-10.992367,-53.694656,257.0,-23902.0,0.0
910.0,0.15509033,-0.046813965,0.052978516,79.92367,-4.7862597,-37.61832,257.0,-23902.0,0.0
911.0,0.17181396,-0.03765869,0.044311523,84.34351,22.816793,1.221374,257.0,-23902.0,0.0
912.0,0.16937256,-0.025939941,0.043151855,73.56489,48.038166,43.61832,257.0,-23902.0,0.0
913.0,0.16278076,-0.018920898,0.04248047,39.87786,73.35114,87.73283,257.0,-23902.0,0.0
914.0,0.13287354,-0.0178833,0.039855957,-3.648855,85.9542,132.44275,257.0,-23902.0,0.0
915.0,0.1171875,-0.017822266,0.031982422,-25.045801,84.0229,169.78625,257.0,-23902.0,0.0
916.0,0.13354492,-0.024414062,0.025939941,-31.213741,68.41222,182.03816,257.0,-23902.0,0.0
917.0,0.1506958,-0.028503418,0.012329102,-9.129771,68.42748,185.32062,257.0,-23902.0,0.0
918.0,0.16052246,-0.03656006,0.012145996,28.183207,75.23664,169.70993,257.0,-23902.0,0.0
919.0,0.1685791,-0.03302002,0.0072631836,63.78626,71.740456,143.44275,257.0,-23902.0,0.0
920.0,0.1609497,-0.0211792,0.009338379,66.9542,72.57252,124.67175,257.0,-23902.0,0.0
921.0,0.14929199,-0.013793945,0.009460449,38.816795,59.89313,115.41222,257.0,-23902.0,0.0
922.0,0.13922119,-0.009338379,0.013305664,1.6793894,40.59542,117.56489,257.0,-23902.0,0.0
923.0,0.12902832,-0.015808105,0.012451172,-30.633587,19.671755,123.51145,257.0,-23902.0,0.0
924.0,0.11773682,-0.023620605,0.022644043,-39.137405,7.1755724,132.43512,257.0,-23902.0,0.0
925.0,0.10321045,-0.026611328,0.01574707,-18.19084,-7.038168,132.25954,257.0,-23645.0,0.0
926.0,0.09307861,-0.026672363,0.026000977,4.671756,-16.10687,134.12978,257.0,-23645.0,0.0
927.0,0.09375,-0.028564453,0.029052734,34.290077,-22.221375,131.87022,257.0,-23645.0,0.0
928.0,0.09222412,-0.02142334,0.030761719,59.648853,-22.877863,124.74809,257.0,-23645.0,0.0
929.0,0.09039307,-0.018249512,0.03277588,65.12977,-20.89313,111.03053,257.0,-23645.0,0.0
930.0,0.09008789,-0.016784668,0.035827637,61.23664,-15.282443,87.76336,257.0,-23645.0,0.0
931.0,0.087524414,-0.017150879,0.04486084,52.610687,-15.396947,53.67939,257.0,-23645.0,0.0
932.0,0.07904053,-0.0138549805,0.05609131,47.35878,-15.5801525,14.519084,257.0,-23645.0,0.0
933.0,0.0836792,-0.009277344,0.048828125,29.580153,-20.496183,-24.931297,257.0,-23645.0,0.0
934.0,0.09942627,-0.0014038086,0.047424316,-12.78626,-20.274809,-73.854965,257.0,-23645.0,0.0
935.0,0.107299805,-0.004638672,0.043273926,-71.72519,-24.793894,-126.40458,257.0,-23645.0,0.0
936.0,0.121398926,-0.014099121,0.044067383,-106.99236,-27.778625,-173.229,257.0,-23645.0,0.0
937.0,0.11621094,-0.028137207,0.05529785,-119.52672,-31.12977,-209.38168,257.0,-23645.0,0.0
938.0,0.12030029,-0.032714844,0.054016113,-115.73283,-33.46565,-241.09924,257.0,-23645.0,0.0
939.0,0.13659668,-0.032043457,0.048034668,-102.10687,-42.65649,-250.1374,257.0,-23645.0,0.0
940.0,0.16021729,-0.042541504,0.0435791,-73.47328,-39.129772,-250.1374,257.0,-23645.0,0.0
941.0,0.18066406,-0.050720215,0.030395508,-18.038168,-27.793894,-246.29007,257.0,-23645.0,0.0
942.0,0.19311523,-0.039855957,0.018066406,17.732824,-15.755725,-208.17557,257.0,-23645.0,0.0
943.0,0.18792725,-0.022277832,0.026794434,13.045801,-10.396947,-143.9542,257.0,-23645.0,0.0
944.0,0.1765747,-0.004211426,0.033996582,-37.20611,-2.519084,-77.94656,257.0,-23645.0,0.0
945.0,0.15368652,-0.020996094,0.021362305,-99.46565,5.0152674,-41.374046,257.0,-23645.0,0.0
946.0,0.12780762,-0.03326416,0.024597168,-115.64122,5.5496182,-20.610687,257.0,-23645.0,0.0
947.0,0.10723877,-0.04437256,0.030639648,-98.32825,-4.4503818,-5.3893127,257.0,-23645.0,0.0
948.0,0.095947266,-0.05810547,0.032104492,-64.908394,-13.587787,-15.816793,257.0,-23645.0,0.0
949.0,0.09210205,-0.05456543,0.033325195,-15.343512,-16.778625,-32.946564,257.0,-23645.0,0.0
950.0,0.09222412,-0.04663086,0.030883789,27.343512,-18.038168,-55.007633,257.0,-23645.0,0.0
951.0,0.09289551,-0.045837402,0.03741455,54.328243,-16.740458,-54.603054,257.0,-23645.0,0.0
952.0,0.10076904,-0.04675293,0.049804688,67.63359,-21.358778,-69.94656,257.0,-23645.0,0.0
953.0,0.11395264,-0.0524292,0.057678223,77.70229,-23.274809,-81.503815,257.0,-23645.0,0.0
954.0,0.12359619,-0.052978516,0.060546875,87.69466,-18.931297,-86.76336,257.0,-23645.0,0.0
955.0,0.1361084,-0.051818848,0.057617188,91.48092,-11.694656,-87.9542,257.0,-23645.0,0.0
956.0,0.14416504,-0.03717041,0.047180176,74.43511,10.312977,-52.16794,257.0,-23645.0,0.0
957.0,0.1560669,-0.028930664,0.045715332,49.015266,20.435114,-30.656488,257.0,-23645.0,0.0
958.0,0.16333008,-0.02178955,0.04345703,17.961832,40.366413,21.877863,257.0,-23645.0,0.0
959.0,0.16381836,-0.025878906,0.04034424,-20.526718,57.0229,67.25191,257.0,-23645.0,0.0
960.0,0.1451416,-0.033203125,0.030212402,-43.244274,68.496185,110.32061,257.0,-23645.0,0.0
961.0,0.12194824,-0.030395508,0.028869629,-49.70229,66.099236,146.62596,257.0,-23645.0,0.0
962.0,0.122680664,-0.032348633,0.018432617,-49.16794,46.671757,166.17557,257.0,-23388.0,0.0
963.0,0.14465332,-0.034057617,0.019226074,-21.534351,33.709923,169.82443,257.0,-23388.0,0.0
964.0,0.15612793,-0.040405273,0.009887695,31.587786,45.282444,169.70229,257.0,-23388.0,0.0
965.0,0.17346191,-0.03845215,0.003967285,74.31298,38.79389,147.36641,257.0,-23388.0,0.0
966.0,0.1696167,-0.024169922,0.006225586,83.0687,40.091602,137.6565,257.0,-23388.0,0.0
967.0,0.16186523,-0.016723633,0.008178711,73.32825,34.908398,134.16031,257.0,-23388.0,0.0
968.0,0.15887451,-0.009887695,0.009216309,41.374046,18.145039,140.14503,257.0,-23388.0,0.0
969.0,0.14294434,-0.013549805,0.012878418,15.206107,2.0,148.80153,257.0,-23388.0,0.0
970.0,0.12536621,-0.018737793,0.017028809,-4.3816795,-13.519084,152.76335,257.0,-23388.0,0.0
971.0,0.10687256,-0.023071289,0.020263672,1.7557251,-18.954199,155.45038,257.0,-23388.0,0.0
972.0,0.09753418,-0.024108887,0.024047852,19.404581,-26.114504,155.58778,257.0,-23388.0,0.0
973.0,0.097717285,-0.02355957,0.027404785,45.809162,-27.404581,150.98473,257.0,-23388.0,0.0
974.0,0.0982666,-0.020446777,0.028869629,65.46565,-19.534351,140.03053,257.0,-23388.0,0.0
975.0,0.09423828,-0.015563965,0.03137207,74.458015,-14.480916,120.51908,257.0,-23388.0,0.0
976.0,0.08691406,-0.0146484375,0.040527344,73.770996,-9.770992,92.221375,257.0,-23388.0,0.0
977.0,0.07940674,-0.016235352,0.052001953,66.60305,-5.59542,59.572517,257.0,-23388.0,0.0
978.0,0.07281494,-0.012634277,0.061645508,55.580154,-8.694656,17.25191,257.0,-23388.0,0.0
979.0,0.076049805,-0.0053100586,0.05645752,23.099237,-13.312977,-26.900763,257.0,-23388.0,0.0
980.0,0.11090088,0.0024414062,0.023986816,-27.778625,-15.183207,-80.0,257.0,-23388.0,0.0
981.0,0.1138916,-0.0060424805,0.047790527,-72.900764,-17.442749,-130.2061,257.0,-23388.0,0.0
982.0,0.1274414,-0.017333984,0.047302246,-98.458015,-19.824427,-185.16031,257.0,-23388.0,0.0
983.0,0.1194458,-0.026123047,0.0513916,-112.145035,-22.42748,-222.30534,257.0,-23388.0,0.0
984.0,0.119628906,-0.03479004,0.05609131,-108.70229,-27.847328,-250.1374,257.0,-23388.0,0.0
985.0,0.1427002,-0.04522705,0.05718994,-77.05344,-39.44275,-250.1374,257.0,-23388.0,0.0
986.0,0.17382812,-0.056884766,0.03753662,-18.045801,-36.93893,-250.1374,257.0,-23388.0,0.0
987.0,0.17993164,-0.049621582,0.0071411133,31.625954,-5.89313,-248.31297,257.0,-23388.0,0.0
988.0,0.15802002,-0.03918457,0.0073242188,33.82443,11.351145,-183.35115,257.0,-23388.0,0.0
989.0,0.15704346,6.713867E-4,0.0211792,-1.961832,5.40458,-101.381676,257.0,-23388.0,0.0
990.0,0.15930176,0.0041503906,0.02532959,-59.664124,-4.5496182,-24.045801,257.0,-23388.0,0.0
991.0,0.14758301,-0.008483887,0.026977539,-128.39694,-10.129771,15.984733,257.0,-23388.0,0.0
992.0,0.13092041,-0.03375244,0.021972656,-172.39694,-14.564885,34.70229,257.0,-23388.0,0.0
993.0,0.111694336,-0.057678223,0.021362305,-166.96947,-25.183207,17.022902,257.0,-23388.0,0.0
994.0,0.09814453,-0.06237793,0.028137207,-111.16031,-29.221375,-15.0992365,257.0,-23388.0,0.0
995.0,0.09075928,-0.053344727,0.030151367,-36.625954,-28.450382,-43.671757,257.0,-23388.0,0.0
996.0,0.08544922,-0.05029297,0.038513184,21.160305,-27.32061,-54.53435,257.0,-23388.0,0.0
997.0,0.08428955,-0.046142578,0.04333496,44.183205,-30.656488,-80.71756,257.0,-23388.0,0.0
998.0,0.09466553,-0.047729492,0.049072266,61.801525,-30.992367,-96.183205,257.0,-23388.0,0.0
999.0,0.10784912,-0.04888916,0.057434082,75.458015,-34.15267,-107.61069,257.0,-23131.0,0.0
1000.0,0.12438965,-0.04925537,0.061157227,82.62595,-32.870228,-111.65649,257.0,-23131.0,0.0
1001.0,0.14257812,-0.047851562,0.05871582,81.091606,-25.099237,-109.12214,257.0,-23131.0,0.0
1002.0,0.14697266,-0.04272461,0.056030273,73.98473,-5.2824426,-83.32061,257.0,-23131.0,0.0
1003.0,0.15673828,-0.037719727,0.05493164,66.52672,6.664122,-54.709923,257.0,-23131.0,0.0
1004.0,0.17596436,-0.032287598,0.049194336,54.48855,28.549618,-14.007633,257.0,-23131.0,0.0
1005.0,0.16271973,-0.031677246,0.046020508,35.633587,50.671757,39.251907,257.0,-23131.0,0.0
1006.0,0.15301514,-0.03186035,0.04046631,9.80916,61.67939,85.0687,257.0,-23131.0,0.0
1007.0,0.12884521,-0.02508545,0.03112793,-4.5648856,78.29771,131.15266,257.0,-23131.0,0.0
1008.0,0.13336182,-0.024475098,0.025512695,-14.167939,70.07633,157.25954,257.0,-23131.0,0.0
1009.0,0.15014648,-0.02947998,0.017089844,-11.755725,60.49618,170.7481,257.0,-23131.0,0.0
1010.0,0.16259766,-0.03387451,0.011413574,14.389313,73.87786,172.67175,257.0,-23131.0,0.0
1011.0,0.16986084,-0.031677246,0.009216309,34.374046,75.381676,165.48856,257.0,-23131.0,0.0
1012.0,0.16253662,-0.026367188,0.009521484,36.78626,68.75572,160.73282,257.0,-23131.0,0.0
1013.0,0.15618896,-0.015014648,0.013305664,15.549619,50.65649,154.229,257.0,-23131.0,0.0
1014.0,0.14849854,-0.015625,0.015014648,-10.694656,31.549618,154.51144,257.0,-23131.0,0.0
1015.0,0.13922119,-0.01953125,0.010864258,-25.534351,10.908397,155.77863,257.0,-23131.0,0.0
1016.0,0.12774658,-0.022583008,0.014404297,-23.328245,-1.2748091,152.8626,257.0,-23131.0,0.0
1017.0,0.11193848,-0.02355957,0.018005371,-8.854961,-11.229008,149.35115,257.0,-23131.0,0.0
1018.0,0.103271484,-0.026672363,0.024230957,9.068703,-15.992367,144.55725,257.0,-23131.0,0.0
1019.0,0.095947266,-0.028686523,0.032409668,42.61832,-18.12977,143.61832,257.0,-23131.0,0.0
1020.0,0.09448242,-0.024597168,0.03314209,68.65649,-13.717557,133.66412,257.0,-23131.0,0.0
1021.0,0.093566895,-0.01550293,0.03375244,76.1145,-6.5419846,117.89313,257.0,-23131.0,0.0
1022.0,0.09136963,-0.012268066,0.038757324,66.99236,0.84732825,93.71756,257.0,-23131.0,0.0
1023.0,0.086120605,-0.011779785,0.044677734,46.91603,8.251908,61.328243,257.0,-23131.0,0.0
1024.0,0.077819824,-0.010009766,0.055908203,24.099237,10.305344,24.137405,257.0,-23131.0,0.0
1025.0,0.07324219,-0.007873535,0.05328369,-1.8091604,6.442748,-14.549619,257.0,-23131.0,0.0
1026.0,0.092163086,-0.003112793,0.04626465,-49.129772,2.038168,-62.251907,257.0,-23131.0,0.0
1027.0,0.10241699,-0.013183594,0.034362793,-86.23664,-1.0229008,-118.63359,257.0,-23131.0,0.0
1028.0,0.11450195,-0.020629883,0.036987305,-101.496185,-6.9465647,-176.41222,257.0,-23131.0,0.0
1029.0,0.11376953,-0.035461426,0.04156494,-101.58778,-16.496183,-220.83969,257.0,-23131.0,0.0
1030.0,0.11669922,-0.03930664,0.04486084,-82.87023,-22.007633,-250.1374,257.0,-23131.0,0.0
1031.0,0.12506104,-0.04296875,0.04675293,-48.625954,-33.603054,-250.1374,257.0,-23131.0,0.0
1032.0,0.15325928,-0.048217773,0.040161133,9.198473,-47.412212,-250.1374,257.0,-23131.0,0.0
1033.0,0.17236328,-0.051330566,0.016418457,63.47328,-40.351147,-250.1374,257.0,-23131.0,0.0
1034.0,0.17932129,-0.032409668,-0.0020751953,75.175575,-21.053434,-217.44275,257.0,-23131.0,0.0
1035.0,0.17572021,-0.009460449,0.009521484,31.969465,-13.664123,-150.43512,257.0,-23131.0,0.0
1036.0,0.18933105,0.012145996,0.005859375,-41.427483,-13.198473,-69.503815,257.0,-22874.0,0.0
1037.0,0.16522217,-0.004333496,0.028564453,-116.36641,-17.076336,-25.839695,257.0,-22874.0,0.0
1038.0,0.14111328,-0.024169922,0.027404785,-170.07634,-31.793894,-4.2824426,257.0,-22874.0,0.0
1039.0,0.11853027,-0.049865723,0.0234375,-178.60306,-39.34351,-6.59542,257.0,-22874.0,0.0
1040.0,0.10394287,-0.064941406,0.026367188,-129.21375,-45.290077,-27.57252,257.0,-22874.0,0.0
1041.0,0.09527588,-0.062438965,0.028320312,-49.839695,-35.87786,-54.900764,257.0,-22874.0,0.0
1042.0,0.08886719,-0.053466797,0.030639648,21.198473,-30.557251,-61.366413,257.0,-22874.0,0.0
1043.0,0.091796875,-0.051452637,0.04345703,62.053436,-29.328245,-84.71756,257.0,-22874.0,0.0
1044.0,0.10144043,-0.05090332,0.051696777,83.87786,-27.87023,-100.458015,257.0,-22874.0,0.0
1045.0,0.12652588,-0.044555664,0.034606934,89.62595,-27.633587,-104.62595,257.0,-22874.0,0.0
1046.0,0.13214111,-0.041809082,0.06304932,73.40458,-23.534351,-97.67939,257.0,-22874.0,0.0
1047.0,0.1427002,-0.035095215,0.06060791,40.801525,-11.984733,-79.618324,257.0,-22874.0,0.0
1048.0,0.14733887,-0.035095215,0.05432129,9.488549,6.854962,-54.328243,257.0,-22874.0,0.0
1049.0,0.14056396,-0.03112793,0.053833008,-9.5801525,17.93893,-3.8854961,257.0,-22874.0,0.0
1050.0,0.16015625,-0.037902832,0.045166016,-2.8473282,30.412214,32.549618,257.0,-22874.0,0.0
1051.0,0.15997314,-0.042663574,0.04437256,2.7175572,41.076336,67.68702,257.0,-22874.0,0.0
1052.0,0.16064453,-0.04119873,0.036499023,17.847328,62.137405,87.0,257.0,-22874.0,0.0
1053.0,0.14074707,-0.033447266,0.033447266,25.19084,72.64122,117.05344,257.0,-22874.0,0.0
1054.0,0.12713623,-0.025268555,0.039855957,15.045801,71.34351,143.83206,257.0,-22874.0,0.0
1055.0,0.14056396,-0.028198242,0.027038574,14.251908,65.43511,153.12978,257.0,-22874.0,0.0
1056.0,0.15325928,-0.03149414,0.018432617,29.93893,68.52672,156.91603,257.0,-22874.0,0.0
1057.0,0.16479492,-0.034484863,0.010314941,56.82443,73.32825,148.64122,257.0,-22874.0,0.0
1058.0,0.17681885,-0.02734375,0.0060424805,66.19084,74.58778,137.2519,257.0,-22874.0,0.0
1059.0,0.17071533,-0.018005371,0.0087890625,53.549618,71.16794,138.0916,257.0,-22874.0,0.0
1060.0,0.16363525,-0.012878418,0.009643555,17.282442,56.114502,144.67175,257.0,-22874.0,0.0
1061.0,0.14990234,-0.008666992,0.012939453,-24.534351,32.9771,159.1145,257.0,-22874.0,0.0
1062.0,0.13531494,-0.01586914,0.014099121,-48.870228,12.335877,168.0916,257.0,-22874.0,0.0
1063.0,0.11999512,-0.021972656,0.012878418,-48.06107,-5.2748094,173.99237,257.0,-22874.0,0.0
1064.0,0.103149414,-0.025939941,0.019592285,-28.206106,-18.67939,173.96947,257.0,-22874.0,0.0
1065.0,0.09802246,-0.02911377,0.025634766,2.5419848,-24.007633,169.59541,257.0,-22874.0,0.0
1066.0,0.095214844,-0.028564453,0.028137207,42.076336,-26.213741,157.10687,257.0,-22874.0,0.0
1067.0,0.09082031,-0.024536133,0.029907227,74.71756,-21.450382,141.38931,257.0,-22874.0,0.0
1068.0,0.08477783,-0.019836426,0.035583496,88.65649,-15.396947,121.12977,257.0,-22874.0,0.0
1069.0,0.07940674,-0.013000488,0.044189453,90.84733,-7.4885497,88.37405,257.0,-22874.0,0.0
1070.0,0.072143555,-0.00592041,0.05255127,74.38931,-5.328244,47.748093,257.0,-22874.0,0.0
1071.0,0.06365967,-0.006225586,0.06109619,45.14504,-8.946565,7.587786,257.0,-22874.0,0.0
1072.0,0.069885254,-0.0020751953,0.049560547,6.0992365,-12.969465,-54.114502,257.0,-22874.0,0.0
1073.0,0.10345459,-0.0036010742,0.045898438,-48.14504,-18.89313,-110.061066,257.0,-22617.0,0.0
1074.0,0.11413574,-0.01550293,0.03765869,-78.87023,-24.351145,-166.2061,257.0,-22617.0,0.0
1075.0,0.12817383,-0.018737793,0.040283203,-95.96183,-30.10687,-223.27481,257.0,-22617.0,0.0
1076.0,0.13110352,-0.031982422,0.046325684,-105.56489,-33.93893,-250.1374,257.0,-22617.0,0.0
1077.0,0.13641357,-0.034973145,0.051330566,-103.28244,-40.007633,-250.1374,257.0,-22617.0,0.0
1078.0,0.15374756,-0.0390625,0.04638672,-87.67939,-45.61832,-250.1374,257.0,-22617.0,0.0
1079.0,0.17523193,-0.046142578,0.026428223,-51.9771,-40.14504,-250.1374,257.0,-22617.0,0.0
1080.0,0.16790771,-0.045654297,0.0138549805,-9.916031,-17.503817,-223.85497,257.0,-22617.0,0.0
1081.0,0.15979004,-0.029296875,0.014099121,-1.7862595,-8.519084,-152.69466,257.0,-22617.0,0.0
1082.0,0.1739502,0.005859375,0.024230957,-29.862595,-10.877863,-64.78626,257.0,-22617.0,0.0
1083.0,0.17608643,-0.0028686523,0.021728516,-96.1145,3.534351,-19.274809,257.0,-22617.0,0.0
1084.0,0.16607666,-0.015808105,0.015686035,-154.15266,4.0992365,8.763359,257.0,-22617.0,0.0
1085.0,0.14147949,-0.037963867,0.020080566,-182.69466,5.2061067,14.106871,257.0,-22617.0,0.0
1086.0,0.11224365,-0.05493164,0.024169922,-163.80153,0.7099237,-9.4198475,257.0,-22617.0,0.0
1087.0,0.0949707,-0.05126953,0.02758789,-126.08397,1.1374046,-37.17557,257.0,-22617.0,0.0
1088.0,0.08050537,-0.049194336,0.028686523,-87.89313,-2.7099237,-54.450382,257.0,-22617.0,0.0
1089.0,0.07940674,-0.04748535,0.030639648,-48.099236,0.015267176,-74.824425,257.0,-22617.0,0.0
1090.0,0.08648682,-0.047668457,0.029724121,-15.793893,-1.2900764,-97.87023,257.0,-22617.0,0.0
1091.0,0.10180664,-0.049621582,0.0368042,12.916031,0.8244275,-114.33588,257.0,-22617.0,0.0
1092.0,0.123413086,-0.05670166,0.04473877,35.694656,-4.6106873,-128.56488,257.0,-22617.0,0.0
1093.0,0.14178467,-0.066711426,0.051208496,61.519085,-8.465649,-133.00763,257.0,-22617.0,0.0
1094.0,0.14654541,-0.06555176,0.048034668,82.175575,-3.2900763,-117.34351,257.0,-22617.0,0.0
1095.0,0.14416504,-0.05090332,0.04498291,79.98473,-1.6870229,-78.78626,257.0,-22617.0,0.0
1096.0,0.16497803,-0.040222168,0.038391113,75.48092,-4.0152674,-34.74046,257.0,-22617.0,0.0
1097.0,0.15570068,-0.02758789,0.041259766,62.15267,14.824428,37.038166,257.0,-22617.0,0.0
1098.0,0.14898682,-0.026794434,0.041015625,27.305344,28.89313,86.68702,257.0,-22617.0,0.0
1099.0,0.1482544,-0.029907227,0.03173828,0.9389313,35.83206,126.19847,257.0,-22617.0,0.0
1100.0,0.13470459,-0.029541016,0.032348633,-6.7328243,51.076336,158.22137,257.0,-22617.0,0.0
1101.0,0.1262207,-0.028686523,0.027038574,-10.610687,43.251907,176.77863,257.0,-22617.0,0.0
1102.0,0.13720703,-0.031982422,0.022094727,-2.2900763,37.030533,182.35878,257.0,-22617.0,0.0
1103.0,0.14575195,-0.03656006,0.01953125,27.847328,34.770992,178.45038,257.0,-22617.0,0.0
1104.0,0.15637207,-0.039489746,0.014404297,67.12214,33.351147,158.2519,257.0,-22617.0,0.0
1105.0,0.16137695,-0.034240723,0.010986328,95.30534,34.61832,138.70229,257.0,-22617.0,0.0
1106.0,0.15594482,-0.02331543,0.010864258,97.39695,29.816793,124.80916,257.0,-22617.0,0.0
1107.0,0.15386963,-0.019348145,0.0119018555,89.16794,23.977098,117.9771,257.0,-22617.0,0.0
1108.0,0.15106201,-0.0154418945,0.012939453,73.580154,17.51145,119.938934,257.0,-22617.0,0.0
1109.0,0.13775635,-0.017211914,0.015563965,50.519085,12.7786255,127.00764,257.0,-22617.0,0.0
1110.0,0.12921143,-0.012145996,-0.00793457,26.374046,6.519084,136.05344,257.0,-22360.0,0.0
1111.0,0.09967041,-0.019226074,0.023803711,16.709923,-3.3282442,138.94656,257.0,-22360.0,0.0
1112.0,0.09008789,-0.026184082,0.031982422,22.442749,-8.801527,139.48856,257.0,-22360.0,0.0
1113.0,0.08758545,-0.025024414,0.037719727,44.610687,-15.870229,129.37404,257.0,-22360.0,0.0
1114.0,0.08288574,-0.02532959,0.03778076,65.84733,-14.519084,113.83206,257.0,-22360.0,0.0
1115.0,0.077819824,-0.024169922,0.04309082,76.099236,-12.549619,93.8855,257.0,-22360.0,0.0
1116.0,0.08154297,-0.019470215,0.044921875,84.35878,-10.40458,64.0458,257.0,-22360.0,0.0
1117.0,0.081726074,-0.014953613,0.04675293,73.42748,-7.145038,24.862595,257.0,-22360.0,0.0
1118.0,0.087402344,-0.0107421875,0.05218506,48.946564,-8.282443,-11.847328,257.0,-22360.0,0.0
1119.0,0.08453369,-0.008300781,0.05895996,17.633587,-11.38168,-43.85496,257.0,-22360.0,0.0
1120.0,0.09100342,-0.008117676,0.05908203,-12.0992365,-25.709923,-68.46565,257.0,-22360.0,0.0
1121.0,0.121032715,-5.493164E-4,0.05090332,-59.76336,-28.778625,-108.20611,257.0,-22360.0,0.0
1122.0,0.1361084,-0.008666992,0.04168701,-100.061066,-28.435114,-147.78625,257.0,-22360.0,0.0
1123.0,0.14788818,-0.018310547,0.043701172,-123.96947,-29.801527,-183.15266,257.0,-22360.0,0.0
1124.0,0.14123535,-0.032165527,0.050109863,-128.47328,-30.12977,-214.8626,257.0,-22360.0,0.0
1125.0,0.13421631,-0.040161133,0.04699707,-114.67939,-27.213741,-231.82443,257.0,-22360.0,0.0
1126.0,0.13891602,-0.04107666,0.041931152,-90.99236,-27.19084,-232.70229,257.0,-22360.0,0.0
1127.0,0.15026855,-0.0446167,0.031433105,-51.045803,-19.160305,-215.32062,257.0,-22360.0,0.0
1128.0,0.15429688,-0.03845215,0.01776123,-9.366412,-4.2748094,-171.22137,257.0,-22360.0,0.0
1129.0,0.15618896,-0.023864746,0.016723633,-3.4503818,2.5648854,-119.72519,257.0,-22360.0,0.0
1130.0,0.15435791,-0.014282227,0.023620605,-26.709923,2.5801528,-52.427483,257.0,-22360.0,0.0
1131.0,0.14953613,-0.018737793,0.0234375,-63.27481,10.305344,-32.648853,257.0,-22360.0,0.0
1132.0,0.1385498,-0.022216797,0.022705078,-100.381676,6.4351144,-14.167939,257.0,-22360.0,0.0
1133.0,0.122924805,-0.03466797,0.020019531,-121.23664,-1.3053435,-4.740458,257.0,-22360.0,0.0
1134.0,0.10852051,-0.041503906,0.023132324,-116.21374,-9.5801525,-11.38168,257.0,-22360.0,0.0
1135.0,0.09576416,-0.04321289,0.02722168,-92.15267,-14.687023,-20.93893,257.0,-22360.0,0.0
1136.0,0.09197998,-0.03918457,0.026977539,-67.16031,-17.229008,-33.16794,257.0,-22360.0,0.0
1137.0,0.09655762,-0.03967285,0.02746582,-44.946564,-17.786259,-48.633587,257.0,-22360.0,0.0
1138.0,0.10119629,-0.036132812,0.032348633,-32.007633,-18.221375,-54.458015,257.0,-22360.0,0.0
1139.0,0.10681152,-0.03955078,0.040527344,-23.503817,-16.946566,-54.59542,257.0,-22360.0,0.0
1140.0,0.1138916,-0.045532227,0.045532227,-9.297709,-20.519083,-66.816795,257.0,-22360.0,0.0
1141.0,0.120910645,-0.0513916,0.05340576,11.954199,-23.664122,-75.74809,257.0,-22360.0,0.0
1142.0,0.13293457,-0.057739258,0.058410645,42.984734,-27.587786,-74.27481,257.0,-22360.0,0.0
1143.0,0.13543701,-0.052734375,0.055358887,74.74809,-22.526718,-60.038166,257.0,-22360.0,0.0
1144.0,0.14312744,-0.040405273,0.049926758,78.51145,-22.137405,-54.29771,257.0,-22360.0,0.0
1145.0,0.15649414,-0.03112793,0.049682617,73.35878,-0.3816794,-25.183207,257.0,-22360.0,0.0
1146.0,0.15649414,-0.02923584,0.04510498,51.70229,17.267176,9.625955,257.0,-22360.0,0.0
1147.0,0.14904785,-0.028137207,0.04168701,22.442749,38.671757,42.954197,257.0,-22103.0,0.0
1148.0,0.13079834,-0.031982422,0.040100098,6.59542,53.25954,82.54962,257.0,-22103.0,0.0
1149.0,0.118774414,-0.0289917,0.03375244,2.5267177,57.198475,113.56489,257.0,-22103.0,0.0
1150.0,0.12750244,-0.030090332,0.024353027,1.778626,57.10687,130.54962,257.0,-22103.0,0.0
1151.0,0.13861084,-0.034729004,0.02142334,24.503817,54.709923,137.2061,257.0,-22103.0,0.0
1152.0,0.15582275,-0.038513184,0.014465332,56.40458,61.29771,128.94656,257.0,-22103.0,0.0
1153.0,0.16156006,-0.03265381,0.012084961,74.67175,66.47328,122.62595,257.0,-22103.0,0.0
1154.0,0.15771484,-0.022521973,0.011352539,62.12214,57.580154,120.099236,257.0,-22103.0,0.0
1155.0,0.152771,-0.016967773,0.014892578,33.671757,44.435116,123.908394,257.0,-22103.0,0.0
1156.0,0.14202881,-0.015197754,0.018127441,4.259542,26.068703,134.75572,257.0,-22103.0,0.0
1157.0,0.12695312,-0.01776123,0.019470215,-19.442749,10.984733,147.58778,257.0,-22103.0,0.0
1158.0,0.111694336,-0.021118164,0.021850586,-30.25191,0.90839696,154.57253,257.0,-22103.0,0.0
1159.0,0.10394287,-0.023925781,0.025512695,-26.137405,-10.106871,158.85497,257.0,-22103.0,0.0
1160.0,0.105041504,-0.027954102,0.024536133,-6.4198475,-12.656488,153.58778,257.0,-22103.0,0.0
1161.0,0.10205078,-0.024230957,0.032470703,21.08397,-12.229008,149.77863,257.0,-22103.0,0.0
1162.0,0.0970459,-0.02545166,0.035705566,42.198475,-5.4656487,133.54962,257.0,-22103.0,0.0
1163.0,0.096069336,-0.015991211,0.036315918,53.35878,1.4351145,111.145035,257.0,-22103.0,0.0
1164.0,0.08795166,-0.015197754,0.04260254,42.70229,7.9847326,76.24428,257.0,-22103.0,0.0
1165.0,0.08215332,-0.013977051,0.047973633,23.374046,9.282443,34.580154,257.0,-22103.0,0.0
1166.0,0.07672119,-0.01361084,0.052978516,4.0305343,5.7099237,-7.2824426,257.0,-22103.0,0.0
1167.0,0.088012695,-0.013305664,0.049072266,-16.328245,-5.1603055,-54.82443,257.0,-22103.0,0.0
1168.0,0.109069824,-0.014953613,0.04663086,-40.34351,-6.9083967,-104.16031,257.0,-22103.0,0.0
1169.0,0.12591553,-0.021118164,0.038269043,-54.908398,-13.122137,-158.32825,257.0,-22103.0,0.0
1170.0,0.1260376,-0.026611328,0.0413208,-61.27481,-17.496183,-199.0458,257.0,-22103.0,0.0
1171.0,0.12017822,-0.034362793,0.047729492,-63.045803,-20.450382,-227.63359,257.0,-22103.0,0.0
1172.0,0.11932373,-0.03668213,0.049682617,-50.65649,-27.93893,-240.71756,257.0,-22103.0,0.0
1173.0,0.13427734,-0.04046631,0.04547119,-25.137405,-36.244274,-238.9542,257.0,-22103.0,0.0
1174.0,0.15222168,-0.04296875,0.030212402,8.832061,-26.12977,-219.71756,257.0,-22103.0,0.0
1175.0,0.1640625,-0.027282715,-0.011352539,14.480916,-8.916031,-176.32825,257.0,-22103.0,0.0
1176.0,0.15386963,-0.014099121,0.015930176,-9.709924,1.1145039,-121.89313,257.0,-22103.0,0.0
1177.0,0.15655518,-0.0087890625,0.025146484,-49.20611,-5.1603055,-52.70229,257.0,-22103.0,0.0
1178.0,0.1583252,-0.014831543,0.02709961,-89.29008,-3.091603,-28.480917,257.0,-22103.0,0.0
1179.0,0.14501953,-0.028015137,0.02911377,-120.091606,-12.687023,-8.458015,257.0,-22103.0,0.0
1180.0,0.12408447,-0.041809082,0.03137207,-127.503815,-21.877863,-12.7404585,257.0,-22103.0,0.0
1181.0,0.103027344,-0.044555664,0.032165527,-123.73283,-22.038168,-25.61832,257.0,-22103.0,0.0
1182.0,0.09094238,-0.04675293,0.03387451,-94.12214,-23.328245,-55.587788,257.0,-22103.0,0.0
1183.0,0.08874512,-0.049804688,0.03741455,-48.931297,-19.412214,-54.46565,257.0,-22103.0,0.0
1184.0,0.093566895,-0.048583984,0.047302246,-8.198473,-15.664123,-73.48855,257.0,-21846.0,0.0
1185.0,0.09820557,-0.049560547,0.044128418,19.709923,-14.877863,-92.0229,257.0,-21846.0,0.0
1186.0,0.11352539,-0.05078125,0.049682617,45.244274,-15.427481,-98.854965,257.0,-21846.0,0.0
1187.0,0.12799072,-0.052124023,0.055419922,61.34351,-14.374045,-99.56489,257.0,-21846.0,0.0
1188.0,0.13793945,-0.049804688,0.057128906,67.42748,-13.274809,-87.53435,257.0,-21846.0,0.0
1189.0,0.14489746,-0.048950195,0.05291748,67.00764,-10.083969,-65.67175,257.0,-21846.0,0.0
1190.0,0.15863037,-0.042541504,0.05053711,65.824425,-7.2061067,-47.35878,257.0,-21846.0,0.0
1191.0,0.17102051,-0.037902832,0.03918457,57.480915,16.137405,-4.1984735,257.0,-21846.0,0.0
1192.0,0.16369629,-0.035827637,0.040527344,48.0,29.29771,41.198475,257.0,-21846.0,0.0
1193.0,0.16033936,-0.032226562,0.036071777,36.44275,49.290077,81.80153,257.0,-21846.0,0.0
1194.0,0.12487793,-0.028015137,0.0345459,25.114504,59.84733,122.38931,257.0,-21846.0,0.0
1195.0,0.12145996,-0.024108887,0.030029297,12.122137,53.9771,150.58778,257.0,-21846.0,0.0
1196.0,0.13391113,-0.028564453,0.022705078,13.244275,55.183205,160.83969,257.0,-21846.0,0.0
1197.0,0.14221191,-0.033447266,0.016052246,37.755726,54.190838,164.29007,257.0,-21846.0,0.0
1198.0,0.15710449,-0.036499023,0.013916016,65.84733,59.51145,149.66412,257.0,-21846.0,0.0
1199.0,0.15545654,-0.03265381,0.010986328,82.458015,60.40458,136.39694,257.0,-21846.0,0.0
1200.0,0.14959717,-0.019958496,0.014343262,73.25191,56.732826,122.55725,257.0,-21846.0,0.0
1201.0,0.14703369,-0.015319824,0.014526367,38.396946,45.007633,121.31298,257.0,-21846.0,0.0
1202.0,0.14257812,-0.013916016,0.01361084,10.229008,28.450382,124.33588,257.0,-21846.0,0.0
1203.0,0.13317871,-0.022216797,0.015258789,-10.4198475,18.770992,127.70229,257.0,-21846.0,0.0
1204.0,0.1194458,-0.02178955,0.016967773,-15.763359,11.38168,131.58778,257.0,-21846.0,0.0
1205.0,0.10662842,-0.022705078,0.018066406,-14.244275,4.2900763,137.08397,257.0,-21846.0,0.0
1206.0,0.101989746,-0.02368164,0.022460938,-4.6793895,-2.8778627,138.0458,257.0,-21846.0,0.0
1207.0,0.09655762,-0.025634766,0.028869629,13.4198475,-4.328244,134.53435,257.0,-21846.0,0.0
1208.0,0.09472656,-0.022277832,0.03314209,36.610687,-8.503817,125.68702,257.0,-21846.0,0.0
1209.0,0.09423828,-0.018737793,0.03253174,44.79389,-4.2671757,106.541985,257.0,-21846.0,0.0
1210.0,0.0904541,-0.018493652,0.037109375,41.992367,-3.6946564,79.52672,257.0,-21846.0,0.0
1211.0,0.093933105,-0.0178833,0.039245605,35.21374,-2.9160306,42.328243,257.0,-21846.0,0.0
1212.0,0.08282471,-0.019714355,0.05078125,28.801527,-5.4503818,11.366412,257.0,-21846.0,0.0
1213.0,0.09527588,-0.014343262,0.05114746,18.015266,-12.564885,-38.427483,257.0,-21846.0,0.0
1214.0,0.09765625,-0.010925293,0.051574707,-7.1679387,-17.656488,-73.52672,257.0,-21846.0,0.0
1215.0,0.109680176,-0.011474609,0.049560547,-42.664124,-20.259542,-124.96947,257.0,-21846.0,0.0
1216.0,0.114990234,-0.017456055,0.052001953,-78.183205,-23.76336,-165.7481,257.0,-21846.0,0.0
1217.0,0.11553955,-0.023864746,0.052856445,-88.75572,-22.389313,-197.24428,257.0,-21846.0,0.0
1218.0,0.111206055,-0.029724121,0.053771973,-93.70229,-24.404581,-216.61832,257.0,-21846.0,0.0
1219.0,0.119140625,-0.029052734,0.04449463,-95.900764,-23.213741,-223.64885,257.0,-21846.0,0.0
1220.0,0.14123535,-0.034118652,0.035095215,-89.71756,-17.435114,-223.35878,257.0,-21846.0,0.0
1221.0,0.16418457,-0.0390625,0.02355957,-67.79389,-2.3664122,-201.3435,257.0,-21589.0,0.0
1222.0,0.17327881,-0.03387451,0.016784668,-56.78626,11.442748,-167.50381,257.0,-21589.0,0.0
1223.0,0.17755127,-0.028747559,0.018310547,-65.900764,10.725191,-121.34351,257.0,-21589.0,0.0
1224.0,0.18060303,-0.022216797,0.02319336,-79.23664,6.8244276,-73.83206,257.0,-21589.0,0.0
1225.0,0.1630249,-0.024719238,0.026489258,-110.15267,-1.5496184,-54.29771,257.0,-21589.0,0.0
1226.0,0.1326294,-0.033203125,0.02758789,-131.61832,-10.351145,-39.366413,257.0,-21589.0,0.0
1227.0,0.105773926,-0.039245605,0.025390625,-133.85497,-11.7404585,-38.251907,257.0,-21589.0,0.0
1228.0,0.09625244,-0.04486084,0.020751953,-121.00764,-10.122137,-54.9771,257.0,-21589.0,0.0
1229.0,0.091796875,-0.051086426,0.016662598,-86.42748,-5.3511453,-54.244274,257.0,-21589.0,0.0
1230.0,0.09088135,-0.057373047,0.01953125,-39.52672,-0.71755725,-82.0458,257.0,-21589.0,0.0
1231.0,0.101745605,-0.06719971,0.02923584,32.93893,-1.1526718,-103.87023,257.0,-21589.0,0.0
1232.0,0.109680176,-0.06530762,0.040100098,96.26717,-4.587786,-113.9771,257.0,-21589.0,0.0
1233.0,0.120666504,-0.058288574,0.041625977,125.19847,-10.770992,-107.9542,257.0,-21589.0,0.0
1234.0,0.12994385,-0.04864502,0.053344727,115.59542,-17.595419,-90.061066,257.0,-21589.0,0.0
1235.0,0.14025879,-0.047058105,0.056030273,90.580154,-20.954199,-53.16794,257.0,-21589.0,0.0
1236.0,0.14147949,-0.038208008,0.051879883,65.9542,-12.78626,-20.213741,257.0,-21589.0,0.0
1237.0,0.13970947,-0.029846191,0.047851562,41.53435,-4.3816795,26.648855,257.0,-21589.0,0.0
1238.0,0.16033936,-0.030334473,0.041015625,26.641222,10.832061,65.69466,257.0,-21589.0,0.0
1239.0,0.1538086,-0.03387451,0.039245605,24.89313,26.351145,97.541985,257.0,-21589.0,0.0
1240.0,0.15795898,-0.029968262,0.014587402,21.465649,41.633587,117.83969,257.0,-21589.0,0.0
1241.0,0.1381836,-0.034301758,0.039978027,21.91603,41.351147,128.96184,257.0,-21589.0,0.0
1242.0,0.13446045,-0.03112793,0.03753662,22.946566,42.25954,135.43512,257.0,-21589.0,0.0
1243.0,0.123413086,-0.030090332,0.030761719,25.25191,39.992367,141.36641,257.0,-21589.0,0.0
1244.0,0.12768555,-0.027770996,0.022583008,30.366413,31.404581,139.01527,257.0,-21589.0,0.0
1245.0,0.13616943,-0.03479004,0.020507812,53.755726,33.85496,131.99237,257.0,-21589.0,0.0
1246.0,0.15008545,-0.03942871,0.015991211,92.80153,36.587788,112.061066,257.0,-21589.0,0.0
1247.0,0.16296387,-0.031921387,0.009033203,119.9542,42.068703,90.938934,257.0,-21589.0,0.0
1248.0,0.16375732,-0.024902344,0.005859375,119.854965,45.335876,80.21374,257.0,-21589.0,0.0
1249.0,0.16778564,-0.018493652,0.015991211,99.84733,45.664124,84.37405,257.0,-21589.0,0.0
1250.0,0.15423584,-0.0119018555,0.010070801,66.92367,38.419846,96.175575,257.0,-21589.0,0.0
1251.0,0.13342285,-0.008361816,0.015197754,17.931297,27.213741,115.70229,257.0,-21589.0,0.0
1252.0,0.110961914,-0.008605957,0.01776123,-33.08397,12.885496,137.82443,257.0,-21589.0,0.0
1253.0,0.09234619,-0.017150879,0.024291992,-64.34351,-5.0839696,151.39694,257.0,-21589.0,0.0
1254.0,0.08984375,-0.02319336,0.022460938,-62.923664,-17.717558,158.0687,257.0,-21589.0,0.0
1255.0,0.09490967,-0.026550293,0.025878906,-36.72519,-22.137405,153.39694,257.0,-21589.0,0.0
1256.0,0.090270996,-0.021911621,0.033569336,-12.80916,-20.29771,141.94656,257.0,-21589.0,0.0
1257.0,0.07824707,-0.019592285,0.030639648,-3.961832,-9.603053,121.07633,257.0,-21589.0,0.0
1258.0,0.06640625,-0.01550293,0.031982422,-11.351145,0.33587787,91.79389,257.0,-21332.0,0.0
1259.0,0.05834961,-0.016906738,0.04119873,-25.740458,5.6106873,42.801525,257.0,-21332.0,0.0
1260.0,0.05810547,-0.018127441,0.04748535,-41.099236,3.8473282,-9.343512,257.0,-21332.0,0.0
1261.0,0.06359863,-0.023254395,0.048583984,-56.862595,2.610687,-54.65649,257.0,-21332.0,0.0
1262.0,0.074157715,-0.026123047,0.04840088,-60.84733,-2.648855,-111.60305,257.0,-21332.0,0.0
1263.0,0.10656738,-0.025878906,0.04260254,-55.366413,-11.053435,-173.94656,257.0,-21332.0,0.0
1264.0,0.14117432,-0.031433105,0.05078125,-40.198475,-19.030535,-225.99237,257.0,-21332.0,0.0
1265.0,0.17510986,-0.041015625,0.0546875,-11.083969,-32.374046,-250.1374,257.0,-21332.0,0.0
1266.0,0.20507812,-0.045837402,0.060546875,7.816794,-39.839695,-250.1374,257.0,-21332.0,0.0
1267.0,0.20281982,-0.049194336,0.036315918,-0.8244275,-21.29771,-250.1374,257.0,-21332.0,0.0
1268.0,0.16552734,-0.05847168,0.028747559,-36.671757,5.7709923,-250.1374,257.0,-21332.0,0.0
1269.0,0.12261963,-0.055847168,0.025024414,-47.900764,25.48855,-185.56488,257.0,-21332.0,0.0
1270.0,0.107055664,-0.006713867,0.031188965,-29.48855,26.625954,-59.748093,257.0,-21332.0,0.0
1271.0,0.12512207,-0.0072631836,0.014282227,-45.687023,10.59542,-9.2595415,257.0,-21332.0,0.0
1272.0,0.15203857,-0.009521484,0.0024414062,-83.740456,24.91603,44.954197,257.0,-21332.0,0.0
1273.0,0.1583252,-0.03704834,0.0037231445,-122.08397,40.183205,72.0229,257.0,-21332.0,0.0
1274.0,0.15966797,-0.051696777,0.010559082,-126.80916,40.480915,56.809162,257.0,-21332.0,0.0
1275.0,0.1449585,-0.054260254,0.021057129,-89.21374,31.145039,26.595419,257.0,-21332.0,0.0
1276.0,0.11138916,-0.045654297,0.028503418,-53.610687,17.610687,-13.687023,257.0,-21332.0,0.0
1277.0,0.09106445,-0.038879395,0.026123047,-35.633587,7.1374044,-37.47328,257.0,-21332.0,0.0
1278.0,0.07055664,-0.039245605,0.029907227,-22.587786,-2.5496182,-54.74046,257.0,-21332.0,0.0
1279.0,0.07470703,-0.03765869,0.031799316,-14.427481,-15.312977,-54.519085,257.0,-21332.0,0.0
1280.0,0.08135986,-0.033996582,0.03100586,-1.5419847,-19.0,-54.419846,257.0,-21332.0,0.0
1281.0,0.08947754,-0.033691406,0.026916504,8.0,-19.70229,-54.312977,257.0,-21332.0,0.0
1282.0,0.10437012,-0.036987305,0.030090332,16.603054,-17.419847,-54.389313,257.0,-21332.0,0.0
1283.0,0.11517334,-0.042419434,0.038269043,38.091602,-15.282443,-54.51145,257.0,-21332.0,0.0
1284.0,0.12390137,-0.04345703,0.045776367,58.20611,-14.687023,-54.50382,257.0,-21332.0,0.0
1285.0,0.13104248,-0.04547119,0.05340576,76.32825,-20.969465,-54.564884,257.0,-21332.0,0.0
1286.0,0.13464355,-0.04510498,0.053771973,97.96947,-24.213741,-54.52672,257.0,-21332.0,0.0
1287.0,0.14337158,-0.03753662,0.04083252,102.618324,-24.274809,-47.038166,257.0,-21332.0,0.0
1288.0,0.15020752,-0.030761719,0.046081543,94.36641,-14.732824,-37.10687,257.0,-21332.0,0.0
1289.0,0.14526367,-0.02758789,0.046813965,81.099236,0.061068702,-10.78626,257.0,-21332.0,0.0
1290.0,0.14355469,-0.026306152,0.04272461,66.57252,18.152672,10.396947,257.0,-21332.0,0.0
1291.0,0.12640381,-0.025390625,0.042175293,41.65649,35.114502,39.396946,257.0,-21332.0,0.0
1292.0,0.11907959,-0.027038574,0.036071777,24.290077,46.580154,66.70229,257.0,-21332.0,0.0
1293.0,0.107666016,-0.02709961,0.035888672,8.770992,48.427483,90.0458,257.0,-21332.0,0.0
1294.0,0.120910645,-0.027709961,0.025146484,1.2824427,47.32061,102.938934,257.0,-21332.0,0.0
1295.0,0.14727783,-0.031677246,0.013244629,6.40458,52.44275,109.07633,257.0,-21075.0,0.0
1296.0,0.15686035,-0.036071777,0.016052246,25.969465,57.458015,112.87786,257.0,-21075.0,0.0
1297.0,0.16137695,-0.032958984,0.010131836,38.984734,59.87786,107.05344,257.0,-21075.0,0.0
1298.0,0.15740967,-0.023498535,0.0099487305,25.770992,51.46565,112.84733,257.0,-21075.0,0.0
1299.0,0.15386963,-0.020385742,0.014831543,-3.3969467,35.32061,123.0229,257.0,-21075.0,0.0
1300.0,0.14776611,-0.017028809,0.018737793,-29.931297,13.931297,139.19084,257.0,-21075.0,0.0
1301.0,0.13555908,-0.023071289,0.016174316,-43.412212,-5.6106873,151.50381,257.0,-21075.0,0.0
1302.0,0.11932373,-0.026672363,0.018554688,-33.183205,-21.755726,156.49619,257.0,-21075.0,0.0
1303.0,0.10656738,-0.030212402,0.026245117,-8.4198475,-27.549618,157.64885,257.0,-21075.0,0.0
1304.0,0.099243164,-0.030822754,0.03125,25.267176,-34.244274,153.09924,257.0,-21075.0,0.0
1305.0,0.10571289,-0.024475098,0.005859375,57.305344,-30.030535,145.30534,257.0,-21075.0,0.0
1306.0,0.089782715,-0.027282715,0.037963867,81.58778,-24.557251,120.48092,257.0,-21075.0,0.0
1307.0,0.084106445,-0.026672363,0.0435791,102.83206,-17.732824,92.458015,257.0,-21075.0,0.0
1308.0,0.080078125,-0.020385742,0.04626465,110.64886,-12.312977,55.38168,257.0,-21075.0,0.0
1309.0,0.07763672,-0.014587402,0.05279541,99.419846,-5.2061067,14.648855,257.0,-21075.0,0.0
1310.0,0.075805664,-0.011291504,0.057678223,72.89313,-5.2061067,-23.961832,257.0,-21075.0,0.0
1311.0,0.07183838,-0.0071411133,0.057373047,21.732824,-2.7251909,-54.587788,257.0,-21075.0,0.0
