measurement,Acc_X,Acc_Y,Acc_Z,Gyr_X,Gyr_Y,Gyr_Z,Label
0,0.05505371,0.03753662,-0.09680176,-0.17557251,0.4351145,-3.6259542,6
1,0.051086426,0.03692627,-0.08905029,-0.45801526,1.6030535,-3.167939,6
2,0.054992676,0.040283203,-0.08874512,0.67175573,1.1374046,-3.312977,6
3,0.05419922,0.035705566,-0.09033203,0.3129771,2.9007633,-4.374046,6
4,0.047912598,0.039611816,-0.08972168,1.778626,2.3053436,-4.8244276,6
5,0.050598145,0.038269043,-0.08868408,0.259542,1.4122137,-3.793893,6
6,0.049926758,0.03857422,-0.09008789,0.648855,1.9389313,-3.610687,6
7,0.05230713,0.033935547,-0.090148926,-0.7251908,0.3129771,-2.3816793,6
8,0.04901123,0.039489746,-0.08935547,-1.1603054,1.5572519,-3.7709923,6
9,0.05517578,0.037719727,-0.07824707,-0.70229006,0.67175573,-4.7633586,6
10,0.049926758,0.036743164,-0.08074951,-1.2442749,0.870229,-4.557252,6
11,0.053100586,0.037353516,-0.09124756,-1.1221374,2.2519083,-5.2824426,6
12,0.049743652,0.03930664,-0.08520508,-1.2061069,1.7175573,-4.2519083,6
13,0.050598145,0.03741455,-0.08892822,1.167939,2.9160306,-5.2671757,6
14,0.05267334,0.03741455,-0.09112549,-0.5114504,2.259542,-3.6946564,6
15,0.05303955,0.03765869,-0.084106445,0.55725193,1.2290076,-3.519084,6
16,0.05517578,0.034118652,-0.09527588,-1.2519084,1.221374,-4.9694657,6
17,0.052612305,0.037109375,-0.07446289,-1.480916,0.5954198,-4.0229006,6
18,0.05291748,0.038085938,-0.071899414,-0.091603056,1.0076336,-3.038168,6
19,0.05303955,0.036987305,-0.08569336,-0.54198474,1.1984733,-5.0152674,6
20,0.052856445,0.03869629,-0.06768799,0.259542,0.60305345,-4.8396945,6
21,0.052246094,0.03656006,-0.08880615,-1.1068702,1.5496184,-3.8244274,6
22,0.05291748,0.037231445,-0.07055664,0.2977099,0.4274809,-5.5496182,6
23,0.05255127,0.037109375,-0.08685303,-0.8396947,0.47328246,-2.7251909,6
24,0.052001953,0.036987305,-0.088012695,-1.0534351,0.16030534,-2.3969467,6
25,0.051635742,0.037109375,-0.087524414,-0.3053435,1.0534351,-2.6793892,6
26,0.05218506,0.036987305,-0.08703613,-2.6564887,2.0839694,-4.2519083,6
27,0.0513916,0.038146973,-0.08703613,-1.8091604,0.10687023,-1.832061,6
28,0.05230713,0.03729248,-0.08795166,-0.122137405,0.2519084,-2.3206108,6
29,0.05279541,0.03753662,-0.07476807,-0.6870229,1.0458015,-2.2824428,6
30,0.051757812,0.03753662,-0.08874512,-1.2137405,0.96183205,-3.793893,6
31,0.052124023,0.037109375,-0.083740234,-0.9236641,0.65648854,-3.053435,6
32,0.051330566,0.038208008,-0.088256836,-0.77099234,0.77099234,-2.7175572,6
33,0.051696777,0.03942871,-0.087768555,-0.3129771,1.1755725,-3.259542,6
34,0.051940918,0.03955078,-0.0881958,1.0763359,1.4503816,-4.6030536,6
35,0.05041504,0.038208008,-0.08685303,2.3206108,-0.007633588,-5.519084,6
36,0.05090332,0.037353516,-0.06817627,1.8015267,2.0152671,-5.671756,6
37,0.051330566,0.037109375,-0.089416504,-0.129771,2.4351146,-5.4656487,6
38,0.051452637,0.03845215,-0.068359375,-1.1908396,3.076336,-3.6793892,6
39,0.05279541,0.03869629,-0.08001709,0.15267175,2.7709923,-2.1145039,6
40,0.053894043,0.038330078,-0.09051514,1.6412214,1.259542,-1.7938931,6
41,0.05316162,0.037475586,-0.09185791,2.6412213,0.6870229,-3.0610688,6
42,0.053588867,0.0345459,-0.08148193,1.259542,-0.58778626,-2.4885497,6
43,0.05493164,0.033996582,-0.083984375,-1.908397,-2.740458,-1.6183206,6
44,0.05218506,0.036010742,-0.078186035,-3.3969467,-4.0916033,-3.534351,6
45,0.051940918,0.03729248,-0.08355713,-2.4732823,-5.625954,-3.1450381,6
46,0.052612305,0.03765869,-0.090148926,-2.832061,-6.3053436,-4.7557254,6
47,0.05114746,0.036743164,-0.0770874,-3.6259542,-5.9160304,-3.5496182,6
48,0.049743652,0.03845215,-0.09051514,-2.8854961,-4.740458,-3.6183207,6
49,0.049804688,0.038757324,-0.07220459,-3.1755726,-4.0534353,-6.114504,6
50,0.047546387,0.038635254,-0.075927734,-1.0839695,-3.534351,-5.7175574,6
51,0.05267334,0.041259766,-0.079711914,1.8244275,-4.2061067,-4.1221375,6
52,0.046447754,0.03741455,-0.08666992,0.9160305,-5.6106873,-4.4274807,6
53,0.04699707,0.03564453,-0.08416748,0.045801528,-7.480916,-4.9465647,6
54,0.050964355,0.03265381,-0.08026123,-4.9847326,-4.2824426,-3.5648854,6
55,0.05078125,0.034484863,-0.08380127,-8.442748,-5.0916033,0.53435117,6
56,0.0501709,0.034484863,-0.054016113,-11.19084,-5.3511453,5.4885497,6
57,0.045715332,0.03692627,-0.08300781,-7.1297708,-6.3969464,4.4580154,6
58,0.043823242,0.035705566,-0.08068848,-2.3969467,-6.1374044,3.534351,6
59,0.047180176,0.039978027,-0.072143555,1.0534351,-4.3206105,4.2824426,6
60,0.04296875,0.041381836,-0.09136963,3.8244274,-3.3664122,0.9465649,6
61,0.045776367,0.041625977,-0.08917236,5.923664,-2.8854961,3.0839694,6
62,0.04156494,0.041625977,-0.07775879,6.847328,-1.6030535,1.1068702,6
63,0.048461914,0.04058838,-0.07952881,6.1984735,-0.77099234,0.5954198,6
64,0.048339844,0.036621094,-0.08099365,2.8244274,1.2442749,-2.0076337,6
65,0.046569824,0.039611816,-0.099487305,-3.687023,2.4961832,-3.442748,6
66,0.049743652,0.03717041,-0.09112549,-6.1755724,2.5801528,-3.4122138,6
67,0.04840088,0.03479004,-0.09350586,-6.9389315,2.0458016,-5.8625956,6
68,0.046325684,0.036499023,-0.078308105,-7.7480917,0.78625953,-3.29771,6
69,0.04925537,0.0390625,-0.08416748,-7.5419846,1.2061069,-4.19084,6
70,0.046081543,0.03717041,-0.091796875,-7.3129773,-1.6030535,-3.1374047,6
71,0.043701172,0.03918457,-0.07458496,-7.664122,-0.55725193,-3.2519083,6
72,0.045166016,0.040222168,-0.089904785,-7.114504,1.0076336,-2.908397,6
73,0.05078125,0.041809082,-0.08428955,-3.2290077,0.9847328,-1.8244275,6
74,0.048950195,0.03845215,-0.049804688,-6.0076337,1.0152671,-1.9312977,6
75,0.049316406,0.039001465,-0.06286621,-14.442748,3.2900763,-4.5648856,6
76,0.049316406,0.041381836,-0.04852295,-21.473282,4.8320613,-0.33587787,6
77,0.047058105,0.041809082,-0.081848145,-21.671755,4.0229006,0.6259542,6
78,0.049621582,0.042541504,-0.059936523,-30.954199,3.3969467,-0.2977099,6
79,0.047851562,0.047180176,-0.06585693,-34.305344,2.183206,-0.35877863,6
80,0.04699707,0.049438477,-0.06958008,-26.10687,0.39694658,-2.4122138,6
81,0.047546387,0.048461914,-0.06738281,-22.06107,-1.9389313,-4.625954,6
82,0.04827881,0.050231934,-0.05267334,-22.160305,-3.183206,-2.4885497,6
83,0.04949951,0.05328369,-0.062683105,-15.526717,-0.9312977,-2.1145039,6
84,0.046875,0.055541992,-0.06286621,-0.20610687,2.2748091,0.129771,6
85,0.047973633,0.05206299,-0.039489746,5.0458016,2.3740458,-4.1374044,6
86,0.04864502,0.051574707,-0.057861328,4.3816795,4.4656487,-2.0152671,6
87,0.048339844,0.051208496,-0.04925537,8.59542,6.183206,-5.5038166,6
88,0.049438477,0.050598145,-0.055358887,7.366412,7.9694657,-6.7251906,6
89,0.050109863,0.051818848,-0.059509277,9.442748,8.511451,-6.3816795,6
90,0.051696777,0.051086426,-0.06652832,19.152672,8.022901,-7.145038,6
91,0.049804688,0.048950195,-0.06463623,36.664124,2.908397,-4.183206,6
92,0.048828125,0.04168701,-0.06427002,27.67939,0.33587787,-9.984733,6
93,0.04925537,0.04437256,-0.055664062,15.21374,-0.16030534,-5.374046,6
94,0.050476074,0.046020508,-0.053710938,15.519084,-0.77862597,-8.526717,6
95,0.049987793,0.044067383,-0.058410645,19.442749,-1.908397,-11.755725,6
96,0.049072266,0.04260254,-0.05279541,13.725191,-3.480916,-11.366412,6
97,0.04937744,0.042907715,-0.06585693,-0.60305345,-1,-10.473283,6
98,0.049804688,0.0423584,-0.06665039,-1.8473282,0.32061067,-7.29771,6
99,0.04925537,0.041625977,-0.045654297,1.1832061,-1.1526718,-7.1297708,6
100,0.0491333,0.041748047,-0.06488037,-1.0534351,-1.70229,-7.1755724,6
101,0.04888916,0.04107666,-0.06939697,2.2366412,-1.8625954,-5.3435116,6
102,0.04724121,0.041015625,-0.05633545,3.2519083,1.0610687,-4.5419846,6
103,0.04626465,0.037475586,-0.065979004,2.038168,1.70229,-2.038168,6
104,0.047058105,0.041503906,-0.07446289,1.2900764,-1.0763359,-2.3206108,6
105,0.04827881,0.044799805,-0.076293945,2.70229,-1.0992366,-1.038168,6
106,0.04827881,0.041503906,-0.054260254,4.625954,-0.6183206,0.5954198,6
107,0.04626465,0.040771484,-0.057434082,5.0076337,-3.129771,2.4351146,6
108,0.04724121,0.03717041,-0.078125,0.7557252,-3.6030533,-2.5267177,6
109,0.046936035,0.03741455,-0.08526611,-4.4961834,-4.3969464,0.16793893,6
110,0.047912598,0.041748047,-0.07611084,-8.40458,-4.961832,0.21374045,6
111,0.047790527,0.04345703,-0.06488037,-7.076336,-5.6946564,-2.1221373,6
112,0.046691895,0.042907715,-0.08532715,-5.59542,-5.8778625,-4.3129773,6
113,0.047180176,0.041015625,-0.063964844,-6.038168,-6.374046,-2.9160306,6
114,0.044677734,0.039978027,-0.0647583,-5.2366414,-4.5114503,-5.847328,6
115,0.04534912,0.04473877,-0.07092285,-1.8396946,-3.6946564,-7.923664,6
116,0.04144287,0.04437256,-0.079833984,1.6641221,-3.8778627,-5.5038166,6
117,0.04144287,0.042785645,-0.06414795,2.5419848,-1.1984733,-7.0610685,6
118,0.04144287,0.04510498,-0.07116699,1.648855,-2.2442749,-4.8320613,6
119,0.042541504,0.04321289,-0.08850098,3.129771,-0.5954198,-4.9770994,6
120,0.04663086,0.04510498,-0.072631836,0.14503817,-1.6412214,-3.2748091,6
121,0.048034668,0.04901123,-0.08496094,-2.0229008,-0.78625953,-4.3893127,6
122,0.04425049,0.044921875,-0.074157715,-0.8015267,-1.3816794,-4.0305343,6
123,0.04272461,0.04071045,-0.082214355,-2.0076337,-2.8549619,-7.4503818,6
124,0.039978027,0.041259766,-0.07171631,-4.145038,-1.5954199,-4.4198475,6
125,0.040527344,0.042907715,-0.07305908,-3.3740458,-1.8625954,-5.0152674,6
126,0.04107666,0.03729248,-0.07312012,-5.9694657,-1.4427481,-5.259542,6
127,0.045166016,0.040649414,-0.07989502,-7.5038166,0.8854962,-4.8244276,6
128,0.044067383,0.04260254,-0.074523926,-4.366412,3.1068702,-5.4274807,6
129,0.04449463,0.04852295,-0.08526611,-5.625954,4.9007635,-1.6335878,6
130,0.041137695,0.046142578,-0.09515381,-11.305344,4.4274807,-1.7709924,6
131,0.041809082,0.049926758,-0.088012695,-23.10687,3.427481,-7.1297708,6
132,0.0446167,0.046936035,-0.080322266,-17.244274,-2.1374047,-5.5343513,6
133,0.0423584,0.04534912,-0.091430664,-13.129771,-2.3053436,-8.473283,6
134,0.043823242,0.0524292,-0.074157715,-18.717558,-0.65648854,-6.671756,6
135,0.04309082,0.049316406,-0.07824707,-17.244274,2.557252,-6.847328,6
136,0.045288086,0.04827881,-0.077941895,-13.328244,5.7862597,-8.183207,6
137,0.043762207,0.049560547,-0.038879395,-12.732824,10.167939,-3.9847329,6
138,0.04638672,0.055114746,-0.042114258,-15.587787,14.366412,-4.7175574,6
139,0.04547119,0.05609131,-0.08074951,-14.19084,15.946565,-6.7938933,6
140,0.05267334,0.052734375,-0.06542969,-8.160305,10.664123,-4.6106873,6
141,0.052856445,0.048095703,-0.060913086,-18.06107,2.167939,-9.801527,6
142,0.05029297,0.05206299,-0.06555176,-22.885496,-5.816794,-9.389313,6
143,0.048095703,0.053649902,-0.061340332,-20.007633,-10.19084,-8.7786255,6
144,0.04309082,0.0569458,-0.05883789,-14.297709,-11.137404,-8.053435,6
145,0.042785645,0.059387207,-0.033569336,-12.19084,-10.954199,-5.9465647,6
146,0.04119873,0.061279297,-0.045166016,0.47328246,-8.732824,-3.687023,6
147,0.041503906,0.059753418,-0.033203125,-0.8854962,-3.076336,-9.122137,6
148,0.039794922,0.06341553,-0.067871094,-2.59542,0.8854962,-4.152672,6
149,0.039855957,0.06506348,-0.0602417,5.8396945,3.9847329,-7.6030536,6
150,0.042663574,0.06878662,-0.027160645,9.954199,8.687023,-12.0992365,6
151,0.044067383,0.06994629,-0.047790527,16.167938,10.816793,-11.908397,6
152,0.04473877,0.05493164,-0.0368042,10.877863,11.244275,-27.38168,6
153,0.0435791,0.055114746,-0.04852295,-2.740458,4.29771,-14.587787,6
154,0.046691895,0.058654785,-0.057495117,9.480916,1.2671756,-16.480917,6
155,0.044677734,0.05493164,-0.054748535,10.9007635,0.8091603,-19.557251,6
156,0.045837402,0.051696777,-0.058532715,2.4885497,-1.6412214,-9.847328,6
157,0.043029785,0.048583984,-0.06524658,-3.7709923,-4.442748,-12.068703,6
158,0.03289795,0.048034668,-0.050048828,-14.335877,-4.8396945,-5.961832,6
159,0.04840088,0.04272461,-0.026611328,-24.198473,2.1450381,-8.770992,6
160,0.04083252,0.07458496,-0.06561279,-35.290077,-0.38931298,6.10687,6
161,0.03491211,0.06878662,-0.060791016,-10.366412,1.091603,-16.923664,6
162,0.034179688,0.0670166,-0.06298828,-2.572519,-11.732824,-0.045801528,6
163,0.049194336,0.06378174,-0.08721924,-37.183205,-22.832062,-17.06107,6
164,0.039611816,0.052368164,-0.07897949,-51.44275,-20.458015,-25.458015,6
165,0.033569336,0.07220459,-0.0491333,-46.48855,-24.48855,-17.038168,6
166,0.030090332,0.06817627,-0.05291748,-27.74809,-15.396947,-18.87023,6
167,0.031311035,0.07788086,-0.038879395,-22.687023,-10.488549,-4.8396945,6
168,0.033935547,0.07861328,-0.01940918,1.7099236,0.7480916,-4.0916033,6
169,0.028808594,0.078552246,-0.053955078,8.59542,7.3053436,2.335878,6
170,0.030334473,0.07720947,-0.050048828,10.534351,13.564885,-1.648855,6
171,0.030700684,0.07305908,-0.04901123,6.40458,15.519084,-4.1679387,6
172,0.034729004,0.07098389,-0.045654297,4.4885497,17.87023,-1.0076336,6
173,0.036254883,0.07385254,-0.059509277,3.442748,17.282442,-6.412214,6
174,0.037719727,0.07122803,-0.0413208,14.21374,17.06107,-1.5572519,6
175,0.03942871,0.06854248,-0.06506348,21.519083,12.38168,-1.6259542,6
176,0.033996582,0.06549072,-0.077941895,25.244274,9.297709,-0.86259544,6
177,0.042175293,0.06890869,-0.061706543,29.89313,3.442748,0.10687023,6
178,0.041625977,0.061401367,-0.05419922,42.312977,0.2977099,0.53435117,6
179,0.043823242,0.056884766,-0.06335449,40.885498,-4.0534353,-0.77862597,6
180,0.03564453,0.055908203,-0.06121826,22.343512,-1.0534351,-0.53435117,6
181,0.035583496,0.057006836,-0.07147217,7.4198475,0.55725193,-3.465649,6
182,0.03265381,0.059631348,-0.08459473,-0.77862597,1.8778626,-1.2442749,6
183,0.035827637,0.06085205,-0.06768799,-2.816794,2.6259542,0.48091602,6
184,0.03515625,0.06036377,-0.06707764,-1.4274809,2.4122138,0.32824427,6
185,0.037231445,0.06085205,-0.06958008,-1.9541985,2.465649,0.8167939,6
186,0.034057617,0.064331055,-0.08380127,-1.2366412,1.5572519,4.7328243,6
187,0.04168701,0.059631348,-0.0625,-0.64122134,3.59542,2.1145039,6
188,0.04119873,0.059326172,-0.049987793,-0.8015267,4.557252,1.129771,6
189,0.041381836,0.06036377,-0.07550049,-0.15267175,5.9007635,2.6717558,6
190,0.041870117,0.061584473,-0.064331055,0.6870229,5.5801525,-2.1068702,6
191,0.040161133,0.059631348,-0.06945801,2.6717558,5.625954,-4.3435116,6
192,0.039489746,0.057434082,-0.07067871,3.0229008,4.8702292,-2.3816793,6
193,0.042785645,0.059143066,-0.06774902,3.206107,6.885496,-6.8702292,6
194,0.045288086,0.05810547,-0.06945801,5.40458,5.8244276,-6.4732823,6
195,0.04119873,0.05633545,-0.09277344,5.221374,4.3206105,-3.6946564,6
196,0.040039062,0.05682373,-0.08380127,4.6793895,4.114504,-3.7862597,6
197,0.041870117,0.051086426,-0.07946777,1.1145039,4.6183205,-4.7557254,6
198,0.040527344,0.05706787,-0.07409668,0.3129771,7.1984735,-1.6335878,6
199,0.036499023,0.0592041,-0.07867432,8.083969,7.9923663,0.9847328,6
200,0.03729248,0.06237793,-0.09051514,14.511451,11.648855,-1.5114504,6
201,0.04272461,0.05718994,-0.086242676,11.305344,9.435115,-1.9541985,6
202,0.041748047,0.05316162,-0.04748535,-2.1374047,6.7328243,4.145038,6
203,0.04559326,0.06048584,-0.052490234,-3.3969467,6.9541984,-3.8931298,6
204,0.046691895,0.060058594,-0.072631836,12,6.442748,1.1526718,6
205,0.047790527,0.057250977,-0.023071289,19.389313,6.5801525,-1.0534351,6
206,0.046569824,0.049987793,-0.029724121,18.587786,5.5267177,7.19084,6
207,0.047424316,0.050720215,-0.012512207,10.526717,3.1603053,-2.4198472,6
208,0.047729492,0.053588867,-0.06390381,7.221374,6.3587785,-0.1908397,6
209,0.04864502,0.053649902,-0.06072998,-3.4580152,7.0534353,-3.8091602,6
210,0.047729492,0.053527832,-0.04864502,-1.1068702,3.870229,-0.35114503,6
211,0.04949951,0.054504395,-0.041992188,-3.908397,0.122137405,-7.0610685,6
212,0.047607422,0.05633545,-0.060058594,-0.29007635,1.5725191,-8.488549,6
213,0.045166016,0.055725098,-0.07733154,1.961832,1.7557251,-6.3587785,6
214,0.047790527,0.053649902,-0.07122803,1.389313,3.0687022,-3.9923663,6
215,0.04736328,0.05279541,-0.05645752,-1.6946565,0.41984734,-6.0229006,6
216,0.04449463,0.053649902,-0.051452637,-1.8396946,0.38931298,-5.847328,6
217,0.04473877,0.05303955,-0.043151855,0.022900764,5.1297708,-1.4427481,6
218,0.042907715,0.053833008,-0.07141113,-0.4351145,6.366412,-4.7633586,6
219,0.045898438,0.05102539,-0.043518066,0.8167939,5.0839696,-1.1221374,6
220,0.049621582,0.0524292,-0.07635498,-1.3282443,4.0916033,-0.73282444,6
221,0.049987793,0.05267334,-0.06188965,0.06870229,4.152672,1.5572519,6
222,0.050354004,0.05206299,-0.052124023,0.9160305,4.0610685,0.70229006,6
223,0.051635742,0.051574707,-0.05230713,0.45801526,2.8778627,1.648855,6
224,0.051086426,0.053344727,-0.07287598,-1.5648855,0.610687,-1.2748091,6
225,0.050109863,0.052856445,-0.037841797,-2.7557251,-0.5648855,-3.076336,6
226,0.047851562,0.05255127,-0.074401855,-3.2290077,0.08396947,-3.1068702,6
227,0.04864502,0.05456543,-0.06274414,-3.4885497,-0.29007635,0.65648854,6
228,0.048828125,0.055480957,-0.056518555,0.5954198,0.48091602,-0.7099237,6
229,0.04638672,0.05596924,-0.066345215,-0.4351145,-1.648855,-1.9389313,6
230,0.045166016,0.055603027,-0.054748535,-1.2366412,-1.4961832,-4.4198475,6
231,0.041137695,0.05706787,-0.047180176,-1.5496184,-0.8854962,-8.633588,6
232,0.051574707,0.052124023,-0.05859375,-2.480916,-0.58778626,-7.0916033,6
233,0.045776367,0.053344727,-0.06970215,-5.5648856,0.6259542,-8.114504,6
234,0.049316406,0.055908203,-0.049682617,-4.0076337,3.129771,-8.427481,6
235,0.048461914,0.054870605,-0.07946777,-1.7862595,2.9312978,-8.694656,6
236,0.048828125,0.05682373,-0.041992188,-1.9923664,3.442748,-5.6564884,6
237,0.04699707,0.057861328,-0.05126953,0.83206105,3.5038168,-6.335878,6
238,0.048095703,0.056152344,-0.03894043,0.49618322,1.961832,-6.7480917,6
239,0.048828125,0.05328369,-0.06335449,-0.007633588,3.465649,-3.572519,6
240,0.050964355,0.05065918,-0.07122803,-0.15267175,3.259542,-6.7709923,6
241,0.052246094,0.05505371,-0.06542969,-1.5038168,3.7175572,-6.259542,6
242,0.048828125,0.054748535,-0.04711914,1.480916,4.4503818,-5.068702,6
243,0.05065918,0.05645752,-0.057922363,1.7480916,4.7251906,-7.10687,6
244,0.049560547,0.05456543,-0.063964844,0.35877863,3.351145,-6.8778625,6
245,0.04650879,0.056030273,-0.051696777,2.0610688,2.8931298,-5.0916033,6
246,0.046936035,0.05230713,-0.07647705,2.7709923,3.8396947,-3.9847329,6
247,0.046020508,0.05444336,-0.07269287,0.648855,3.6946564,-2.5038168,6
248,0.047302246,0.056274414,-0.06750488,0.89312977,2.8396947,-1.480916,6
249,0.049560547,0.050964355,-0.07293701,4.557252,4.9007635,1.7251909,6
250,0.053710938,0.053833008,-0.06097412,7.740458,7.3816795,1.1068702,6
251,0.051940918,0.056396484,-0.09637451,4.1984735,7.412214,1.0763359,6
252,0.048339844,0.049560547,-0.04925537,1.1221374,6.4961834,-0.89312977,6
253,0.044677734,0.054260254,-0.0881958,0.58778626,7.10687,-2.259542,6
254,0.046813965,0.051635742,-0.06732178,2.465649,7.0152674,1.259542,6
255,0.048583984,0.05505371,-0.082092285,3.4580152,4.2519083,1.0458015,6
256,0.051513672,0.055236816,-0.068725586,-0.5954198,5.59542,-2.9160306,6
257,0.050964355,0.057861328,-0.06591797,-2.7862597,2.6259542,-7.1297708,6
258,0.046325684,0.05432129,-0.08843994,-4.10687,0.5114504,-8.053435,6
259,0.049194336,0.050720215,-0.07763672,-6.3435116,-0.48854962,-13.358779,6
260,0.04876709,0.051940918,-0.08331299,-16.06107,-0.8396947,-15.755725,6
261,0.054260254,0.057495117,-0.072753906,-25.068703,-3.5114503,-8.625955,6
262,0.049621582,0.066345215,-0.074035645,-4.664122,-3.0152671,-5.5038166,6
263,0.0501709,0.057434082,-0.033996582,14.2213745,0.86259544,-9.961832,6
264,0.0546875,0.052856445,-0.05908203,7.931298,7.80916,-7.328244,6
265,0.050354004,0.053588867,-0.07159424,-4.2366414,10.770992,-7.885496,6
266,0.0546875,0.059692383,-0.031188965,3.442748,14.633588,-9.198473,6
267,0.05407715,0.058776855,-0.02130127,10.229008,17.458015,-11.145039,6
268,0.053527832,0.057250977,-0.03515625,10.80916,16.648855,-11.9007635,6
269,0.05609131,0.05731201,-0.055419922,10.007633,14.633588,-11.816793,6
270,0.05596924,0.05706787,-0.05908203,10.183207,12,-12.076336,6
271,0.05645752,0.056640625,-0.003967285,15.145039,9.328244,-13,6
272,0.053710938,0.05609131,-0.010253906,17.977098,7.8625956,-14.648855,6
273,0.051879883,0.051940918,-0.047729492,16.687023,8.022901,-13.106871,6
274,0.050720215,0.048583984,-0.038024902,9.78626,8.435115,-13.946565,6
275,0.05029297,0.050231934,-0.02935791,4.412214,8.954199,-9.641221,6
276,0.05267334,0.05078125,-0.036254883,3.351145,7.8320613,-7.7557254,6
277,0.054748535,0.049987793,-0.024353027,4.778626,5.2748094,-4.4198475,6
278,0.055908203,0.05029297,-0.07495117,3,3.389313,-1.5038168,6
279,0.058166504,0.05230713,-0.054626465,2.6564887,1.3969465,-2.0458016,6
280,0.059265137,0.051696777,-0.03881836,0.99236643,1.167939,-3.0305343,6
281,0.056274414,0.0524292,-0.032165527,-1.2137405,-0.52671754,-1.610687,6
282,0.05480957,0.052490234,-0.030700684,1.0152671,-2.70229,-1.9160305,6
283,0.053222656,0.05267334,-0.042785645,0.27480915,-2.5877862,-3.1526718,6
284,0.053222656,0.052368164,-0.052856445,-0.9694657,-2.465649,-0.73282444,6
285,0.053222656,0.05291748,-0.05065918,-0.77862597,-0.9541985,0.3129771,6
286,0.05230713,0.051330566,-0.073913574,0.114503816,-1.0152671,0.77099234,6
287,0.052246094,0.052001953,-0.03668213,1.1145039,0.21374045,-1.129771,6
288,0.054992676,0.053710938,-0.060058594,1.4503816,1.4885496,-2.2137403,6
289,0.05255127,0.054260254,-0.039794922,0.6870229,1.4274809,-2.6793892,6
290,0.05206299,0.051208496,-0.07147217,2.0076337,1.8549619,-3.3282442,6
291,0.0513916,0.051696777,0.0015869141,0.091603056,1.2442749,-3.946565,6
292,0.054016113,0.052490234,-0.07672119,-0.21374045,1.961832,-2.465649,6
293,0.05883789,0.05291748,-0.050964355,0.65648854,-0.259542,-2.4732823,6
294,0.054504395,0.051574707,-0.07220459,2.6946564,-0.5954198,-5.3435116,6
295,0.053833008,0.051574707,-0.06756592,1.4274809,-1.3129771,-3.4961832,6
296,0.05633545,0.05291748,-0.06573486,0.7099237,0.091603056,-4.2442746,6
297,0.052246094,0.05078125,-0.062561035,1.0687023,-0.17557251,-3.2519083,6
298,0.05102539,0.048706055,-0.045776367,-0.9465649,1.0610687,-4.038168,6
299,0.053344727,0.05102539,-0.05670166,-1.389313,0.89312977,-2.5038168,6
300,0.051208496,0.051818848,-0.068481445,0.122137405,1.8549619,-4.931298,6
301,0.052246094,0.05053711,-0.076660156,-0.9847328,1.4580153,-4.7175574,6
302,0.046691895,0.050842285,-0.0836792,-2.29771,1.6183206,-5.480916,6
303,0.054016113,0.052490234,-0.0413208,-1.1984733,1.7099236,-4.259542,6
304,0.047790527,0.053344727,-0.03692627,-2.40458,1.5877863,-5.29771,6
305,0.053222656,0.05065918,-0.06225586,-1.8931298,1.1832061,-5.8396945,6
306,0.050964355,0.050109863,-0.06713867,0.16793893,0.6793893,-5.19084,6
307,0.052612305,0.051086426,-0.037902832,-1.7328244,-0.22900763,-4.068702,6
308,0.051879883,0.05218506,-0.06695557,-2.7328243,-0.07633588,-3.2900763,6
309,0.052490234,0.0524292,-0.05621338,-1.3587786,0.83206105,-6.0458016,6
310,0.050598145,0.051818848,-0.051574707,-0.45801526,-0.099236645,-5.2748094,6
311,0.055236816,0.05218506,-0.049560547,-0.20610687,0.015267176,-3.0305343,6
312,0.050964355,0.05114746,-0.07171631,0.740458,0.67175573,-3.2671757,6
313,0.05657959,0.05090332,-0.059143066,0.53435117,1.2061069,-1.9541985,6
314,0.05230713,0.05303955,-0.073913574,0.35114503,1.6412214,-2.7862597,6
315,0.05230713,0.053222656,-0.08178711,-0.648855,2.1374047,-3.4580152,6
316,0.053955078,0.053649902,-0.059570312,-0.740458,0.8244275,-1.9160305,6
317,0.053771973,0.053527832,-0.044799805,0.47328246,1.8549619,-3.908397,6
318,0.052124023,0.05230713,-0.064453125,-0.35114503,0.045801528,-4.587786,6
319,0.05316162,0.05078125,-0.07244873,0.08396947,1.0076336,-3.8473282,6
320,0.051757812,0.054016113,-0.089538574,0.21374045,1.389313,-4.2519083,6
321,0.05126953,0.05053711,-0.052124023,0.8091603,1.5496184,-2.6717558,6
322,0.047912598,0.050354004,-0.07684326,0.648855,1.5648855,-4.0229006,6
323,0.052612305,0.05419922,-0.062438965,0.65648854,1.2366412,-3.3816793,6
324,0.053894043,0.055419922,-0.078552246,0.015267176,1.1221374,-3.221374,6
325,0.052612305,0.057800293,-0.09173584,-0.6259542,0.55725193,-4.6870227,6
326,0.052612305,0.053588867,-0.064819336,0.015267176,1.29771,-5.6793895,6
327,0.05480957,0.053100586,-0.01159668,0.54198474,2.1450381,-3.793893,6
328,0.053588867,0.05505371,-0.0154418945,0.2519084,1,-3.2900763,6
329,0.054504395,0.05340576,-0.049316406,0.10687023,2.3206108,-3.908397,6
330,0.054138184,0.051940918,-0.03704834,1.2519084,1.2671756,-3.9694657,6
331,0.053894043,0.05303955,-0.048950195,-1.4274809,0.41221374,-3.2824428,6
332,0.05407715,0.053344727,-0.064086914,-0.41984734,1.29771,-2.7633588,6
333,0.0524292,0.05090332,-0.049926758,0.32824427,1.1755725,-3.59542,6
334,0.05407715,0.053588867,-0.061584473,-1.1755725,1.1526718,-2.8396947,6
335,0.054870605,0.05316162,-0.02520752,0.16030534,1.3129771,-3.312977,6
336,0.05419922,0.052368164,-0.029418945,0.7633588,1.1068702,-2.480916,6
337,0.054138184,0.051513672,-0.040100098,-0.32061067,2.0076337,-2.3206108,6
338,0.053894043,0.052612305,-0.038146973,0.13740458,0.4274809,-1.9847329,6
339,0.053649902,0.052734375,-0.028503418,0.4427481,0.5954198,-2.5496182,6
340,0.053466797,0.053466797,-0.052612305,0.46564886,0.9312977,-2.9007633,6
341,0.053771973,0.05328369,-0.019042969,-0.122137405,0.9160305,-1.8625954,6
342,0.05291748,0.052856445,-0.029541016,-0.053435113,1.389313,-4.6412215,6
343,0.054016113,0.051940918,-0.057617188,0.90839696,0.7251908,-4.9694657,6
344,0.053588867,0.052734375,-0.032104492,0.122137405,1.5038168,-5.0916033,6
345,0.05456543,0.05206299,-0.015380859,-1.221374,0.34351146,-3.8244274,6
346,0.054016113,0.053955078,-0.022888184,0.4274809,1.0229008,-3.6564887,6
347,0.05303955,0.051635742,-0.048034668,-0.22900763,0.41221374,-1.8625954,6
348,0.05328369,0.052124023,-0.012939453,0.14503817,0.9847328,-2.3435113,6
349,0.05291748,0.052124023,-0.025024414,1.1221374,2.6030533,-1.9312977,6
350,0.053771973,0.052734375,-0.008972168,0.9694657,2.7175572,-1.7175573,6
351,0.053649902,0.051330566,-0.0031738281,0.015267176,1.3740458,-2.2442749,6
352,0.052856445,0.0513916,-0.057861328,-1.4427481,2.8244274,-2.3664122,6
353,0.052246094,0.05218506,-0.045715332,-1.0992366,2.3435113,-2.0839694,6
354,0.053527832,0.053649902,-0.027954102,0.259542,3.2519083,-0.41984734,6
355,0.05419922,0.051208496,-0.030700684,-2.2290077,2.4503818,-2.519084,6
356,0.053771973,0.051635742,-0.03564453,-1.6030535,2.6335878,-3.40458,6
357,0.053344727,0.05279541,-0.032836914,-0.35114503,1.5038168,-2.7328243,6
358,0.053771973,0.052246094,-0.061645508,0.610687,2.1755726,-3.4351146,6
359,0.05444336,0.052368164,-0.04107666,2.053435,0.83206105,-2.740458,6
360,0.0546875,0.051574707,-0.030151367,-0.28244275,0.114503816,-3.4198472,6
361,0.05731201,0.0513916,-0.06604004,-0.4274809,0.48091602,-2.7862597,6
362,0.055541992,0.051818848,-0.056274414,0.13740458,1.5801526,-2.816794,6
363,0.053649902,0.052001953,-0.026184082,-0.3129771,1.3587786,-1.9770992,6
364,0.05480957,0.050354004,-0.030151367,-0.17557251,0.70229006,-2.6183207,6
365,0.05267334,0.053100586,-0.05810547,-0.32824427,1.2900764,-2.8778627,6
366,0.052490234,0.05255127,-0.05859375,0.2977099,1.0152671,-1.4580153,6
367,0.057434082,0.054382324,-0.06896973,-0.22137405,0.610687,-1.4961832,6
368,0.053833008,0.051818848,-0.05041504,-0.90076333,1.0763359,-1.9236641,6
369,0.05255127,0.052734375,-0.0423584,1.3816794,2.4961832,-2.923664,6
370,0.052978516,0.048034668,-0.033325195,-0.740458,1.4961832,-1.5877863,6
371,0.05444336,0.053100586,-0.05505371,-1.4580153,1.259542,-2.8625953,6
372,0.057617188,0.052612305,-0.057922363,-1.2671756,1.4045801,-2.1908398,6
373,0.05529785,0.05114746,-0.07672119,-0.870229,-0.007633588,-4.259542,6
374,0.05529785,0.05218506,-0.08477783,-1.2137405,0.9541985,-4.0458016,6
375,0.052856445,0.052612305,-0.054138184,0.64122134,1.1526718,-4.5648856,6
376,0.054870605,0.049621582,-0.047851562,-0.49618322,1.3206106,-2.9847329,6
377,0.057556152,0.048034668,-0.070007324,-1.221374,0.45801526,-2.4961832,6
378,0.054992676,0.049865723,-0.071899414,0.26717559,1.1145039,-4.3893127,6
379,0.056030273,0.052490234,-0.072387695,0.1908397,0.7557252,-3.1755726,6
380,0.055603027,0.053527832,-0.07928467,-0.5954198,0.53435117,-2.206107,6
381,0.05847168,0.05267334,-0.089538574,-0.2519084,-1.221374,-2.4198472,6
382,0.05810547,0.051574707,-0.08117676,2.1145039,1.259542,-3.0687022,6
383,0.05633545,0.051086426,-0.041625977,0.60305345,0.73282444,-2.2824428,6
384,0.055603027,0.04925537,-0.05657959,0.90076333,0.89312977,-3.8549619,6
385,0.050476074,0.047851562,-0.07342529,0.6946565,0.6793893,-3.7557251,6
386,0.05328369,0.05078125,-0.07574463,1.0152671,0.64122134,-3.557252,6
387,0.05645752,0.048828125,-0.06750488,0.32061067,-0.16030534,-2.5267177,6
388,0.05102539,0.05126953,-0.074523926,0.24427481,0.16030534,-3.335878,6
389,0.055725098,0.050964355,-0.038024902,0.38931298,0.48854962,-3.4122138,6
390,0.054138184,0.051452637,-0.0960083,-0.06870229,1.7328244,-0.58778626,6
391,0.055664062,0.052001953,0.0025024414,-0.65648854,0.5648855,-1.3969465,6
392,0.055541992,0.05065918,-0.030639648,-0.34351146,1.2519084,-3.5114503,6
393,0.05456543,0.050842285,-0.033935547,0.90076333,1.0839695,-3.5877862,6
394,0.056274414,0.051513672,0.01727295,-0.29007635,0.26717559,-2.534351,6
395,0.055847168,0.051635742,0.003479004,-0.23664123,1.6335878,-3.465649,6
396,0.054626465,0.052490234,-0.032409668,0.23664123,1.5801526,-0.35877863,6
397,0.054992676,0.051513672,-0.0008544922,-0.045801528,0.36641222,-1.1908396,6
398,0.055664062,0.051879883,0.022888184,-0.2977099,0.22137405,-4.6106873,6
399,0.05407715,0.051818848,-0.050109863,0.122137405,0.53435117,-2.9694657,6
400,0.05407715,0.05218506,-0.037719727,-0.2977099,1.5114504,-3.0229008,6
401,0.055419922,0.051452637,-0.027038574,-0.20610687,1.0534351,-2.9847329,6
402,0.05517578,0.050964355,0.0016479492,-1.1603054,1.6259542,-3.8854961,6
403,0.05456543,0.05102539,0.009033203,-0.21374045,0.52671754,-4.0305343,6
404,0.056396484,0.051879883,-0.0031738281,0.71755725,1.8625954,-3.6793892,6
405,0.05609131,0.0513916,-0.046813965,-0.53435117,1.3969465,-3.8778627,6
406,0.054992676,0.052001953,-0.034057617,-0.22900763,0.65648854,-3.038168,6
407,0.055786133,0.05230713,-0.04248047,0.34351146,0.71755725,-4.5419846,6
408,0.05407715,0.051208496,-0.034301758,-0.648855,0.8015267,-3.6793892,6
409,0.05596924,0.051635742,-0.0064697266,-0.8244275,0.610687,-2.557252,6
410,0.054870605,0.05090332,-0.025268555,-0.5038168,1.0305344,-2.946565,6
411,0.053222656,0.050842285,-0.049865723,0.97709924,0.6183206,-2.2290077,6
412,0.055480957,0.051452637,-0.03479004,-0.8167939,0.9541985,-4.3435116,6
413,0.055236816,0.051208496,-0.053100586,-0.39694658,1.5038168,-3.4503818,6
414,0.054016113,0.051757812,-0.040771484,0.22900763,0.9694657,-3.9923663,6
415,0.05328369,0.052368164,-0.053527832,-1.3129771,0.54198474,-2.5419848,6
416,0.054138184,0.051513672,-0.026550293,-1.4045801,1.0152671,-2.5648854,6
417,0.053344727,0.0513916,-0.033996582,0.48854962,0.3053435,-3.4885497,6
418,0.05279541,0.05279541,-0.028137207,-0.32824427,0.6946565,-3.6793892,6
419,0.05279541,0.049987793,-0.054992676,-0.5648855,1.2061069,-4.5496182,6
420,0.053955078,0.051574707,-0.043701172,0.022900764,2.1374047,-2.778626,6
421,0.058288574,0.0491333,-0.03149414,0.13740458,1.4961832,-3.9770992,6
422,0.056518555,0.050231934,-0.026245117,-0.34351146,-0.20610687,-4.7633586,6
423,0.051330566,0.05218506,-0.022094727,-0.73282444,1.2442749,-4.3206105,6
424,0.053100586,0.051757812,-0.014526367,-0.21374045,0.7099237,-4.3206105,6
425,0.053955078,0.0501709,-0.044433594,0.29007635,0.73282444,-5.2519083,6
426,0.053955078,0.05114746,-0.061340332,-0.3740458,0.022900764,-4.4732823,6
427,0.05303955,0.051086426,-0.042907715,-0.54198474,0.10687023,-4.1984735,6
428,0.05493164,0.051635742,-0.05218506,-0.35877863,0.90839696,-2.3206108,6
429,0.054748535,0.051635742,-0.038879395,0.6793893,0.022900764,-3.8091602,6
430,0.05218506,0.050964355,-0.028503418,-0.71755725,0.4274809,-3.908397,6
431,0.0491333,0.0501709,-0.018859863,-0.28244275,2.0610688,-1.351145,6
432,0.057617188,0.050842285,-0.04840088,0.41221374,2.0305343,-5.3053436,6
433,0.052246094,0.05090332,-0.06304932,0.9847328,1.5877863,-3.4580152,6
434,0.051757812,0.052124023,-0.08148193,-0.23664123,1.3435115,-0.5801527,6
435,0.05328369,0.05340576,-0.04510498,0.17557251,1.1526718,-2.1221373,6
436,0.053710938,0.049865723,-0.053466797,-0.4351145,0.53435117,-2.610687,6
437,0.05810547,0.05480957,-0.06768799,-1.9770992,0.8778626,-0.48854962,6
438,0.05444336,0.051757812,-0.07476807,-0.2519084,0.7557252,-3.0687022,6
439,0.053344727,0.049621582,-0.04852295,-0.061068702,0.8244275,-2.8396947,6
440,0.053894043,0.05053711,-0.060668945,-0.18320611,1.8778626,-1.8091604,6
441,0.05102539,0.053466797,-0.034362793,0.96183205,2.40458,-3.0305343,6
442,0.05517578,0.05255127,-0.07531738,0.22900763,1.3435115,-2.8549619,6
443,0.055603027,0.051818848,-0.061828613,0.9236641,0.71755725,-4.442748,6
444,0.05291748,0.049743652,-0.05657959,-0.099236645,1.3587786,-4.0076337,6
445,0.0546875,0.049072266,-0.053100586,-0.16030534,0.47328246,-3.2671757,6
446,0.051696777,0.04949951,-0.10491943,-1.3435115,2.1755726,-0.06870229,6
447,0.054138184,0.053100586,-0.07678223,0.52671754,1.3206106,-0.9389313,6
448,0.05267334,0.04876709,-0.056152344,-1.0992366,2.3816793,-3.7557251,6
449,0.049560547,0.047668457,-0.07513428,-0.08396947,2.038168,-3.7633588,6
450,0.04852295,0.052734375,-0.07446289,0.099236645,1.5954199,-2.9007633,6
451,0.05480957,0.05065918,-0.0803833,-1.1068702,0.90839696,-2.6717558,6
452,0.05065918,0.051940918,-0.064697266,-1.0687023,0.5496183,-2.389313,6
453,0.055480957,0.0491333,-0.058044434,-0.47328246,1.1755725,-3.648855,6
454,0.054992676,0.05065918,-0.010192871,-0.3740458,0.17557251,-2.442748,6
455,0.051818848,0.04748535,-0.09979248,-0.740458,0.32061067,-3.0152671,6
456,0.056396484,0.052246094,0.010009766,-0.46564886,0.9389313,-1.9541985,6
457,0.055419922,0.052612305,-0.020263672,-1.2671756,0.2977099,-1.9007634,6
458,0.05419922,0.052490234,-0.033081055,-0.71755725,0.29007635,-2.534351,6
459,0.05529785,0.05291748,0.0051879883,-1.3969465,-0.18320611,-3.740458,6
460,0.05340576,0.051513672,-0.008300781,0.86259544,-0.21374045,-2.0305343,6
461,0.054992676,0.05053711,0.004333496,-1.0610687,1.221374,-3.6946564,6
462,0.05505371,0.05206299,-0.003479004,0.8015267,2,-1.6183206,6
463,0.055603027,0.050720215,-0.010131836,0.78625953,1.8473282,-2.0305343,6
464,0.053344727,0.051086426,-0.08459473,-0.23664123,2.4198472,-4.59542,6
465,0.055786133,0.050048828,-0.032226562,-0.8015267,0.54198474,-1.4274809,6
466,0.053771973,0.049743652,-0.04345703,-0.08396947,2.0687022,-3.7099237,6
467,0.05493164,0.050842285,-0.030334473,-0.20610687,0.46564886,-1.5877863,6
468,0.054382324,0.051940918,-0.0154418945,-0.4351145,1.3587786,-2.2519083,6
469,0.054870605,0.05053711,-0.010803223,1.3664122,0.6870229,-3.8549619,6
470,0.05621338,0.05078125,0.009094238,-0.35114503,0.79389316,-1.3587786,6
471,0.054260254,0.05102539,-0.06713867,-1.4885496,-0.015267176,-4.3206105,6
472,0.053833008,0.053100586,-0.017150879,0.27480915,0.49618322,-3.0305343,6
473,0.053466797,0.051818848,-0.0006713867,-1.2366412,0.47328246,-3.7328243,6
474,0.054992676,0.051696777,-0.018310547,-0.49618322,1.3664122,-5.114504,6
475,0.05291748,0.051330566,-0.05883789,0.19847329,2.0152671,-1.5038168,6
476,0.057373047,0.052124023,0.0078125,-1.0152671,0.6183206,-4.3587785,6
477,0.05407715,0.05041504,-0.060791016,-1.3740458,0.9847328,-5.625954,6
478,0.053649902,0.052001953,0.0060424805,-1.1374046,0.65648854,-4.9083967,6
479,0.05432129,0.052612305,-0.018615723,-1.0229008,0.40458015,-4.4198475,6
480,0.05432129,0.050964355,-0.011169434,-1.3969465,0.33587787,-6.3893127,6
481,0.05456543,0.051513672,-0.029296875,0.19847329,-0.015267176,-3.793893,6
482,0.053710938,0.051330566,-0.053833008,0.45801526,0.22137405,-3.9389312,6
483,0.052978516,0.05126953,-0.051513672,0.3816794,0.17557251,-3.1984732,6
484,0.054870605,0.05053711,-0.04663086,0.83206105,1.961832,-2.1374047,6
485,0.057250977,0.054626465,-0.04888916,-1.5954199,-1.091603,1.1450381,6
486,0.057250977,0.052001953,-0.05987549,-1.6335878,-1.5267175,-2,6
487,0.054992676,0.05255127,-0.044311523,-2.70229,-3.4122138,-0.6946565,6
488,0.054870605,0.048583984,-0.06561279,-2.4122138,-2.2671757,-2.7251909,6
489,0.053771973,0.051330566,-0.023803711,-1.3358779,-0.2519084,-3.2519083,6
490,0.05316162,0.0513916,-0.061950684,-1.5954199,-0.007633588,-2.221374,6
491,0.05432129,0.05255127,-0.004699707,-0.17557251,0.8167939,-4.7709923,6
492,0.054626465,0.054260254,-0.046875,0.28244275,1.221374,-5.4656487,6
493,0.051208496,0.05279541,-0.0289917,0.21374045,0.45801526,-3.946565,6
494,0.04827881,0.05114746,-0.046142578,0.4427481,0.061068702,-2.923664,6
495,0.054504395,0.05126953,-0.06713867,0.03816794,-0.41221374,-2.6183207,6
496,0.05316162,0.051452637,-0.05517578,0.77099234,0.27480915,-4.0152674,6
497,0.057250977,0.051635742,-0.053344727,0.89312977,-0.9694657,-2.183206,6
498,0.053710938,0.04876709,-0.042053223,-1.0305344,-0.3816794,-3.4122138,6
499,0.05267334,0.049743652,-0.066345215,-2.4351146,1.0839695,-3.4961832,6
500,0.05090332,0.04888916,-0.045776367,-0.20610687,0.053435113,-5.0534353,6
501,0.051513672,0.0491333,-0.050231934,0.259542,0.49618322,-1.6946565,6
502,0.05883789,0.0513916,-0.059509277,-2.0610688,1.8396946,-4.1679387,6
503,0.052612305,0.053710938,-0.0736084,-0.60305345,1.2519084,-3.2137403,6
504,0.056518555,0.051086426,-0.05529785,-0.18320611,0.7099237,-7.335878,6
505,0.050842285,0.04711914,-0.061462402,0.22900763,0.41984734,-5.5801525,6
506,0.05279541,0.05218506,-0.06274414,0.10687023,1.480916,-2.5419848,6
507,0.057678223,0.049316406,-0.072265625,1.389313,1.3358779,-3.778626,6
508,0.0501709,0.053771973,-0.06378174,1.9923664,1.6335878,-0.7099237,6
509,0.047851562,0.050964355,-0.064208984,-0.15267175,1.0763359,-2.3282442,6
510,0.04864502,0.04864502,-0.07598877,-0.4351145,1.2442749,-2.9770992,6
511,0.051208496,0.054138184,-0.093444824,-1,1.9694656,-1.038168,6
512,0.05053711,0.05340576,-0.08343506,-0.47328246,1.6412214,-2.2137403,6
513,0.054260254,0.0513916,-0.018066406,-0.5648855,1.8396946,-3.2442749,6
514,0.051757812,0.051696777,-0.07873535,-1.3282443,1.8167939,-3.2519083,6
515,0.05480957,0.05419922,0.04522705,-0.870229,1.2748091,-3.6259542,6
516,0.051818848,0.049682617,-0.078552246,0.33587787,1.7709924,-3.572519,6
517,0.04840088,0.052612305,-0.06323242,-0.45038167,1.4961832,-2.038168,6
518,0.055114746,0.05206299,0.00982666,-1.7633588,0.9160305,-5.4274807,6
519,0.049804688,0.049682617,-0.08721924,0.045801528,1.3053435,-4.3969464,6
520,0.05303955,0.051879883,0.004333496,-0.648855,1.6870229,-1.1526718,6
521,0.053710938,0.054016113,-0.012817383,-0.33587787,0.870229,-4.2519083,6
522,0.053833008,0.052978516,-0.03173828,0.58778626,1.5419847,-4.114504,6
523,0.053527832,0.05255127,-0.018127441,0.46564886,-1.167939,-3.038168,6
524,0.05230713,0.052856445,-0.0015258789,0.6946565,0.3740458,-3.1984732,6
525,0.052856445,0.052612305,-0.009216309,1.0992366,-0.3053435,-5.5114503,6
526,0.05029297,0.052612305,-0.040405273,0.32824427,-0.519084,-6.6564884,6
527,0.053344727,0.05230713,-0.007080078,0.55725193,-1.351145,-6.152672,6
528,0.051818848,0.049072266,-0.08959961,-0.9541985,-0.57251906,-7.59542,6
529,0.055541992,0.049438477,-0.027404785,-0.8167939,0.99236643,-6.557252,6
530,0.055603027,0.0491333,-0.023254395,-0.90839696,1.70229,-6.5267177,6
531,0.055786133,0.047668457,-0.051879883,0.52671754,1.4274809,-3.5114503,6
532,0.054260254,0.048461914,-0.0068969727,2.0152671,3.6564887,-0.79389316,6
533,0.053222656,0.049621582,-0.014099121,2.1068702,3.5267177,-1.2290076,6
534,0.05316162,0.051330566,-0.020812988,1.1603054,4.3206105,-1.0305344,6
535,0.052246094,0.05078125,-0.026672363,-0.519084,2.946565,-2.3587787,6
536,0.05493164,0.051086426,0.0075683594,-1.5267175,2.1221373,-2.7328243,6
537,0.054992676,0.05328369,-0.0256958,-0.610687,3.0839694,-0.8854962,6
538,0.051757812,0.051635742,-0.024108887,-0.65648854,1.3358779,-3.335878,6
539,0.052368164,0.051940918,-0.030395508,-1.3664122,-0.610687,-2.091603,6
540,0.054138184,0.05316162,-0.049072266,-0.20610687,0.259542,-3.4122138,6
541,0.053527832,0.05316162,-0.033691406,-0.77099234,-0.007633588,-3.778626,6
542,0.053588867,0.0524292,-0.03778076,-0.8015267,-0.8854962,-4.1679387,6
543,0.05267334,0.050354004,-0.06878662,-0.015267176,0.6183206,-5.5496182,6
544,0.05480957,0.049682617,-0.04156494,0.19847329,1.5419847,-4.7480917,6
545,0.054382324,0.049072266,-0.04296875,0.73282444,-0.35114503,-2.572519,6
546,0.054138184,0.051696777,-0.018798828,1.2519084,1.5648855,-3.0458016,6
547,0.05444336,0.050109863,-0.03741455,0.67175573,0.73282444,-5.557252,6
548,0.052856445,0.0501709,-0.02911377,0.4427481,2.0229008,-2.3053436,6
549,0.053894043,0.049621582,-0.07348633,0.6870229,1.0687023,-2.0839694,6
550,0.051635742,0.05078125,-0.062683105,1.0152671,0.70229006,-4.259542,6
551,0.054504395,0.049560547,-0.074157715,0.23664123,0.06870229,-2.5038168,6
552,0.0491333,0.050476074,-0.043395996,-0.41221374,0.46564886,-3.1984732,6
553,0.053466797,0.049072266,-0.011047363,-0.6335878,0.32061067,-4.2519083,6
554,0.051696777,0.052368164,-0.048217773,-0.66412216,0.24427481,-5.2900763,6
555,0.052734375,0.05480957,-0.07635498,-1.4732825,0.23664123,-3.3816793,6
556,0.051086426,0.052246094,-0.08129883,1.3129771,0.8167939,-7.0152674,6
557,0.058166504,0.050720215,-0.06732178,-0.3129771,1.1374046,-6.114504,6
558,0.053527832,0.049865723,-0.06286621,-0.60305345,1.7480916,-7.1374044,6
559,0.055908203,0.05053711,-0.0736084,1.1984733,2.312977,-5.3587785,6
560,0.05206299,0.045043945,-0.06506348,0.6946565,2.70229,-4.5038166,6
561,0.053833008,0.048583984,-0.047546387,-0.2519084,2.1450381,-6.259542,6
562,0.052612305,0.049987793,-0.026611328,0.47328246,2.519084,-2.610687,6
563,0.052612305,0.05102539,-0.037353516,-0.8015267,1.8167939,-4.923664,6
564,0.0524292,0.049072266,-0.06536865,-0.3816794,2.0076337,-3.0687022,6
565,0.053588867,0.050598145,-0.062805176,-1.519084,1.9389313,-2.0839694,6
566,0.049682617,0.050842285,-0.09503174,-1.8473282,1.3053435,-3.3206108,6
567,0.051696777,0.05303955,-0.049804688,-0.41221374,1.0305344,-3.167939,6
568,0.05255127,0.049865723,-0.090270996,0.29007635,0.2977099,-1.648855,6
569,0.04876709,0.0513916,-0.0748291,-0.41984734,2.1145039,-1.3816794,6
570,0.051757812,0.049072266,-0.078552246,0.64122134,2.4351146,-2.3282442,6
571,0.05493164,0.0501709,-0.05444336,1.5725191,-0.41984734,-2.2519083,6
572,0.053649902,0.04748535,-0.07098389,0.33587787,-0.46564886,-4.183206,6
573,0.053527832,0.047973633,-0.057434082,0.114503816,0.66412216,-4.2442746,6
574,0.04937744,0.051452637,-0.06866455,-1.5114504,0.8167939,-2.480916,6
575,0.05480957,0.051696777,-0.095336914,-0.9694657,0.77099234,-2.1603053,6
576,0.052734375,0.053222656,-0.05529785,0.22137405,2.167939,-2.7862597,6
577,0.05279541,0.05102539,-0.0748291,0.9465649,1.5954199,-2.3435113,6
578,0.05316162,0.051086426,0.009094238,-0.35877863,0.5648855,-3.8091602,6
579,0.052734375,0.05041504,-0.056274414,-0.27480915,0.8167939,-1.4503816,6
580,0.053527832,0.050964355,0.019104004,0.2977099,0.7633588,-5.2290077,6
581,0.05444336,0.050354004,-0.019592285,-2.1450381,-0.053435113,-4.3816795,6
582,0.05517578,0.052368164,-0.02722168,-3.0687022,0.015267176,-4.2748094,6
583,0.05419922,0.051086426,-0.056884766,1.1603054,0.9312977,-2.0305343,6
584,0.049804688,0.045715332,-0.09753418,0.14503817,1.5801526,-3.7251909,6
585,0.05456543,0.050109863,-0.0021362305,-0.99236643,1.1755725,-1.908397,6
586,0.054504395,0.049743652,-0.0513916,-0.045801528,1.9236641,-4.2137403,6
587,0.054382324,0.049438477,-0.028625488,0.5648855,0.7099237,-2.1221373,6
588,0.052124023,0.049621582,-0.04083252,-0.89312977,0.7480916,-5.2671757,6
589,0.054260254,0.050964355,-0.0022583008,-0.6335878,-0.5038168,-4.1221375,6
590,0.05328369,0.051940918,-0.005432129,-0.22900763,-1.1145039,-2.1984732,6
591,0.052978516,0.05029297,-0.056884766,0.7557252,0.4351145,-1.5267175,6
592,0.0524292,0.050964355,-0.028198242,-0.2977099,0.1908397,-4.4503818,6
593,0.052856445,0.05303955,-0.08105469,-1.167939,0.9541985,-3.6259542,6
594,0.05291748,0.05114746,-0.06573486,-0.22137405,2.3435113,-5.3587785,6
595,0.055114746,0.050842285,-0.052368164,-0.40458015,1.70229,-4.3587785,6
596,0.053771973,0.05041504,-0.040649414,-0.16030534,1.8015267,-3.076336,6
597,0.052612305,0.050720215,-0.052734375,-0.83206105,2.1145039,-4.1755724,6
598,0.053833008,0.049316406,-0.013671875,-0.83206105,1.5267175,-3.29771,6
599,0.051940918,0.050720215,-0.061706543,0.49618322,1.1450381,-3.9694657,6
600,0.05078125,0.050598145,-0.061340332,0.122137405,1.351145,-4.9465647,6
601,0.052368164,0.051574707,-0.05102539,-0.9389313,0.65648854,-4.6793895,6
602,0.05279541,0.05126953,-0.069885254,-0.29007635,1.5038168,-0.2977099,6
603,0.051574707,0.05267334,-0.053466797,-1.1755725,0.8396947,-4.3129773,6
604,0.052368164,0.053649902,-0.051940918,-1.9694656,1.5801526,-3.091603,6
605,0.053710938,0.0524292,-0.04815674,0.66412216,0.60305345,-4.9389315,6
606,0.051879883,0.051757812,-0.07159424,-1.4198474,0.9847328,-4.8396945,6
607,0.052368164,0.0491333,-0.06762695,0.259542,0.9160305,-4.6106873,6
608,0.056396484,0.049438477,-0.037902832,-2.076336,0.66412216,-4.8244276,6
609,0.053222656,0.051086426,-0.061035156,0.7099237,1.4732825,-3.664122,6
610,0.05316162,0.050842285,-0.052490234,0.96183205,1.29771,-1.908397,6
611,0.051452637,0.0501709,-0.051818848,0.7633588,0.77099234,-2.7328243,6
612,0.05255127,0.05078125,-0.027526855,0.29007635,-0.3740458,-1.8167939,6
613,0.054382324,0.05078125,-0.076660156,-0.77099234,0.5114504,-3.167939,6
614,0.050964355,0.051330566,-0.029907227,-0.33587787,0.2519084,-3.0687022,6
615,0.050476074,0.0524292,-0.07312012,-1.3129771,1.4122137,-1.6564885,6
616,0.05114746,0.04937744,-0.06225586,-0.9541985,2.2366412,-2.1755726,6
617,0.05090332,0.04724121,-0.052368164,-0.33587787,0.519084,-1.9389313,6
618,0.052246094,0.051513672,-0.029968262,0.007633588,0.6335878,-3.648855,6
619,0.05407715,0.050964355,-0.0625,-0.6335878,1.5496184,-3.2137403,6
620,0.053649902,0.052001953,-0.08959961,-1.1221374,0.9389313,-4.259542,6
621,0.049316406,0.04937744,-0.068725586,1.0534351,2.0305343,-5.2061067,6
622,0.051452637,0.050048828,-0.08868408,0.36641222,0.07633588,-3.923664,6
623,0.051513672,0.04888916,-0.06304932,-0.29007635,1.0610687,-3.3664122,6
624,0.05291748,0.04901123,-0.07269287,-1.3664122,1.4198474,-4.0839696,6
625,0.057128906,0.04925537,-0.030151367,-1.6259542,2,-2.465649,6
626,0.052246094,0.05053711,-0.036315918,-0.259542,1.2442749,-3.4580152,6
627,0.05291748,0.050476074,-0.07623291,-0.122137405,2.2290077,-1.221374,6
628,0.05316162,0.04901123,-0.08569336,-0.8854962,2.259542,0.5954198,6
629,0.04949951,0.04949951,-0.05657959,1.167939,2.6335878,-0.08396947,6
630,0.05126953,0.05041504,-0.06774902,0.740458,1.3358779,-1.4351145,6
631,0.059509277,0.04888916,-0.10418701,-1.129771,1.4045801,-0.73282444,6
632,0.045959473,0.054016113,-0.078125,-1.1603054,1.3206106,-6.6412215,6
633,0.049438477,0.05053711,-0.08300781,-1.6717557,0.60305345,-2.519084,6
634,0.05480957,0.050048828,-0.088012695,-1.4122137,-0.16030534,-3.946565,6
635,0.055786133,0.050598145,-0.055908203,-1.1145039,-0.39694658,-5.0305343,6
636,0.04949951,0.046813965,-0.07891846,-0.20610687,0.5801527,-3.351145,6
637,0.052246094,0.05218506,-0.05999756,0.030534351,0.8015267,-4.259542,6
638,0.055114746,0.04937744,-0.032165527,-0.259542,1.7328244,-3.6412213,6
639,0.054870605,0.050048828,-0.08306885,0.099236645,0.8854962,-3.1450381,6
640,0.05090332,0.04711914,-0.06072998,-1.2290076,0.48854962,-1.9312977,6
641,0.049926758,0.049072266,-0.07928467,-0.114503816,1.6259542,-4.145038,6
642,0.054748535,0.049194336,-0.070373535,0.32061067,1.29771,-3.221374,6
643,0.053771973,0.050720215,-0.039123535,0.32061067,0.7099237,-2.5648854,6
644,0.052978516,0.050109863,-0.05987549,-0.77862597,0.5801527,-3.7175572,6
645,0.052734375,0.048034668,-0.09082031,0.022900764,2.1755726,-4.335878,6
646,0.053466797,0.05114746,-0.021240234,-0.33587787,0.9847328,-3.0152671,6
647,0.053649902,0.051818848,-0.043518066,-0.16030534,0.27480915,-5.0458016,6
648,0.0524292,0.0501709,-0.05340576,2.389313,2.0839694,-4.2900763,6
649,0.054626465,0.050109863,-0.09710693,0.9541985,2.8931298,-6.2061067,6
650,0.05218506,0.05126953,-0.053222656,-0.32824427,1.5343511,-6.557252,6
651,0.05328369,0.04901123,-0.053955078,0.90839696,0.8244275,-6.4656487,6
652,0.053222656,0.047790527,-0.085754395,-1.832061,0.16793893,-5.625954,6
653,0.053344727,0.05102539,-0.041625977,-1.5954199,0.8778626,-3.6793892,6
654,0.053955078,0.04864502,-0.085998535,0.5801527,3.427481,-3.3587787,6
655,0.051635742,0.04840088,-0.062072754,-0.10687023,1.6946565,-3.5419848,6
656,0.050598145,0.05065918,-0.045654297,-1.4122137,2.389313,-1.6793894,6
657,0.054260254,0.051513672,-0.058166504,0.53435117,3.221374,-1.0152671,6
658,0.051940918,0.051574707,-0.077941895,0.07633588,0.8015267,-0.9847328,6
659,0.054382324,0.05078125,-0.05340576,-1.4427481,0.114503816,-3.6564887,6
660,0.05480957,0.051940918,-0.064941406,-0.8167939,-2.29771,-2.1755726,6
661,0.051757812,0.051330566,-0.06829834,-0.13740458,-0.9694657,-3.664122,6
662,0.052124023,0.050354004,-0.053344727,-0.8244275,-1.5648855,-3.8549619,6
663,0.05065918,0.046081543,-0.05810547,-1.6793894,-0.6335878,-3.4580152,6
664,0.051330566,0.049682617,-0.024414062,0.39694658,1.5343511,-3.740458,6
665,0.051208496,0.050964355,-0.016906738,1.221374,1.5725191,-2.5267177,6
666,0.053710938,0.04901123,-0.07116699,1.2519084,2.70229,-2.6335878,6
667,0.05419922,0.051635742,-0.04046631,1.1068702,3.1145039,-0.8854962,6
668,0.053527832,0.051696777,-0.06958008,0.18320611,2.4961832,-3.0305343,6
669,0.052978516,0.05090332,-0.07867432,-0.46564886,2.7480917,-5.8396945,6
670,0.0513916,0.0501709,-0.05883789,0.9847328,2.8931298,-5.8702292,6
671,0.05419922,0.047790527,-0.08148193,0.26717559,3.740458,-2.0305343,6
672,0.051757812,0.050598145,-0.08258057,1.351145,0.8854962,-5.442748,6
673,0.05328369,0.050842285,-0.07739258,-0.20610687,-0.5114504,-3.1450381,6
674,0.053527832,0.05114746,-0.064697266,-2.7175572,-0.90839696,-5.9770994,6
675,0.053222656,0.047973633,-0.050354004,-1.4274809,-2.2366412,-5.0229006,6
676,0.0524292,0.045959473,-0.07128906,-2.3969467,-1.4351145,-4.8396945,6
677,0.052734375,0.05102539,-0.06262207,-0.9389313,-0.6870229,-2.816794,6
678,0.05053711,0.04937744,-0.052856445,-0.5801527,1.5877863,-0.58778626,6
679,0.049987793,0.051086426,-0.084472656,-0.3816794,2.6717558,-1.8015267,6
680,0.050354004,0.051330566,-0.085632324,1.6641221,2.312977,-2.4503818,6
681,0.053649902,0.053833008,-0.06262207,-1.5114504,3.0610688,-1.740458,6
682,0.053833008,0.05316162,-0.082336426,0.519084,2.0839694,-2.9694657,6
683,0.049316406,0.05090332,-0.08917236,1.0229008,1.6335878,-6.8396945,6
684,0.054870605,0.049438477,-0.023132324,1.2290076,0.23664123,-6.4503818,6
685,0.055419922,0.05218506,-0.068725586,1,-1.2061069,-7.8778625,6
686,0.0569458,0.046691895,-0.057861328,-0.48854962,-0.32824427,-8.251908,6
687,0.055664062,0.04534912,-0.0680542,-2.4732823,-0.8854962,-7.0916033,6
688,0.052978516,0.04663086,-0.041503906,-1.5572519,-1.29771,-4.6106873,6
689,0.050476074,0.04638672,-0.077819824,-1.6564885,0.7480916,-2.1908398,6
690,0.05340576,0.048828125,-0.066589355,-2.221374,2.1145039,-1.648855,6
691,0.052856445,0.050048828,-0.05596924,-2.9541984,2.3664122,1.4122137,6
692,0.049682617,0.05657959,-0.08135986,1.9389313,3.312977,-3.648855,6
693,0.050354004,0.0501709,-0.09069824,2.4122138,3.3664122,-5.1679387,6
694,0.049438477,0.049743652,-0.059753418,-1.7938931,1.7557251,-2.038168,6
695,0.051818848,0.051879883,-0.08959961,-1.7251909,1.0534351,-5.1984735,6
696,0.051696777,0.052612305,-0.105773926,-0.90076333,0.6870229,-4.1755724,6
697,0.04937744,0.046020508,-0.06732178,-1.3969465,0.07633588,-5.9770994,6
698,0.051452637,0.047851562,-0.08154297,-2.870229,0.60305345,-6.5648856,6
699,0.056396484,0.049438477,-0.08648682,-1.1603054,0.9160305,-6.7328243,6
700,0.051879883,0.047058105,-0.08807373,-0.39694658,1.2824427,-4.8702292,6
701,0.052124023,0.04852295,-0.08996582,-0.41221374,1.5801526,-4.0152674,6
702,0.052978516,0.045043945,-0.09088135,-0.97709924,2.70229,-1.6183206,6
703,0.053894043,0.049621582,-0.07897949,-0.70229006,0.9465649,0.6946565,6
704,0.051757812,0.05407715,-0.0871582,0.49618322,1.1068702,-0.740458,6
705,0.05267334,0.051696777,-0.07519531,-0.14503817,2.5038168,-0.8854962,6
706,0.052856445,0.056152344,-0.091674805,-2,0.7557252,-3.1603053,6
707,0.055358887,0.05230713,-0.072631836,-0.22137405,0.86259544,-1.9160305,6
708,0.05090332,0.05078125,-0.068237305,1.2290076,0.46564886,-4.6946564,6
709,0.05126953,0.0524292,-0.058288574,1.0687023,0.24427481,-3.7480917,6
710,0.053527832,0.05041504,-0.082214355,0.5496183,1.740458,-2.5648854,6
711,0.055236816,0.050048828,-0.046936035,-0.53435117,1.6717557,-2.8549619,6
712,0.05340576,0.052856445,-0.05609131,0.48091602,1.0839695,-4.2061067,6
713,0.053344727,0.04864502,-0.09655762,0.7633588,2.8778627,-2.648855,6
714,0.057861328,0.04901123,-0.095336914,1.7175573,2.9389312,-3.8091602,6
715,0.053833008,0.048706055,-0.07849121,1.4427481,1.7175573,-4.1679387,6
716,0.053222656,0.048583984,-0.043945312,-0.4274809,1.9465649,-0.90076333,6
717,0.054748535,0.052124023,-0.058410645,0.3053435,0.23664123,-1.870229,6
718,0.052734375,0.048217773,-0.06341553,0.5038168,0.40458015,-1.5267175,6
719,0.052612305,0.0491333,-0.050964355,-0.77862597,1.9770992,-2.0610688,6
720,0.05456543,0.049682617,-0.050231934,0.27480915,2.2366412,-2.3053436,6
721,0.053894043,0.0491333,-0.07910156,1.3053435,4.0610685,-2.076336,6
722,0.053222656,0.04840088,-0.07458496,2.1603053,4.0458016,-2.29771,6
723,0.049072266,0.04925537,-0.07928467,1.9847329,4.4961834,-1.5954199,6
724,0.054626465,0.047546387,-0.08843994,3.961832,5.89313,-1.8778626,6
725,0.05303955,0.048828125,-0.061767578,1.091603,6.3053436,-0.7633588,6
726,0.053771973,0.045715332,-0.08929443,0.29007635,5.1984735,-0.5954198,6
727,0.05609131,0.04547119,-0.083984375,1.7099236,5.847328,-2.7480917,6
728,0.055236816,0.046081543,-0.08886719,-0.14503817,7.5648856,0.54198474,6
729,0.057373047,0.04724121,-0.08050537,0.053435113,5.2671757,0.55725193,6
730,0.05621338,0.047302246,-0.07373047,0.34351146,4.6183205,1.0610687,6
731,0.055786133,0.049438477,-0.037597656,1.0763359,4.6106873,3.1068702,6
732,0.05621338,0.047546387,-0.07720947,-0.79389316,3.9160306,0.83206105,6
733,0.056030273,0.045654297,-0.056152344,-1.9312977,3.7480917,0.03816794,6
734,0.05596924,0.04736328,-0.08087158,0.6259542,4.114504,0.22137405,6
735,0.058532715,0.04675293,-0.06665039,1.2519084,3.312977,0.97709924,6
736,0.057495117,0.048583984,-0.06359863,1.2519084,3.465649,-1.70229,6
737,0.05883789,0.047302246,-0.072509766,0.7480916,2.8091602,-0.46564886,6
738,0.061401367,0.045288086,-0.06378174,1.5725191,2.1984732,-0.54198474,6
739,0.06097412,0.046691895,-0.07623291,-0.17557251,1.9236641,-1.2671756,6
740,0.058776855,0.04510498,-0.07348633,1.3969465,0.5954198,-1.7633588,6
741,0.057861328,0.04486084,-0.08258057,0.18320611,0.48091602,-4.6183205,6
742,0.060424805,0.050231934,-0.07434082,-0.16030534,0.5954198,-4.3435116,6
743,0.05670166,0.045654297,-0.09082031,0.16030534,-1.4961832,-6.5725193,6
744,0.057922363,0.046325684,-0.07867432,-0.14503817,-2.4503818,-6.2290077,6
745,0.057800293,0.047424316,-0.08605957,-0.8244275,-3.1145039,-9,6
746,0.055786133,0.04699707,-0.079833984,-1.0687023,-1.8931298,-4.9923663,6
747,0.05621338,0.047790527,-0.040405273,0.03816794,-1.0839695,-5.9389315,6
748,0.052978516,0.046081543,-0.08276367,-1.4122137,0.22900763,-7.0229006,6
749,0.054382324,0.044921875,-0.047973633,-0.8854962,-2.312977,-5.923664,6
750,0.05493164,0.04663086,-0.08648682,-1.5038168,-1.5267175,-5.1603055,6
751,0.05291748,0.04559326,-0.082092285,-0.8396947,-1.7557251,-9.526717,6
752,0.056396484,0.043640137,-0.09466553,-3,-0.41984734,-4.7557254,6
753,0.057800293,0.044311523,-0.0647583,-0.18320611,-1.4885496,-7.7328243,6
754,0.057250977,0.047973633,-0.05822754,-0.030534351,-0.99236643,-6.664122,6
755,0.05230713,0.046020508,-0.06188965,0.18320611,-1.740458,-4.519084,6
756,0.058166504,0.047790527,-0.07678223,-0.46564886,-2.480916,-4.778626,6
757,0.049804688,0.04724121,-0.08465576,-1.0839695,0.6870229,-5.7480917,6
758,0.05279541,0.050964355,-0.08996582,1.7480916,2.4503818,-5.5648856,6
759,0.055358887,0.044311523,-0.085632324,3.7099237,3.29771,-2.1068702,6
760,0.054870605,0.045776367,-0.08081055,0.9389313,3.4351146,0.45801526,6
761,0.059631348,0.04626465,-0.09460449,1.129771,6.3587785,2.1908398,6
762,0.05480957,0.04638672,-0.07476807,2.687023,4.2061067,0.60305345,6
763,0.056030273,0.045043945,-0.08013916,2.534351,2.0229008,2.0687022,6
764,0.057800293,0.044189453,-0.06201172,1.6641221,2.5801528,2.2748091,6
765,0.058410645,0.048461914,-0.09008789,1.740458,0.5954198,0.053435113,6
766,0.057617188,0.048583984,-0.090270996,1.2442749,-0.007633588,-3.8625953,6
767,0.055419922,0.04663086,-0.07910156,-1.4351145,-0.9389313,-4.557252,6
768,0.05328369,0.046203613,-0.08984375,-1.3969465,-1.1755725,-5.3206105,6
769,0.056884766,0.046569824,-0.032348633,-2.5648854,-0.1908397,-8.923664,6
770,0.053955078,0.048583984,-0.07318115,-2.9847329,-1.038168,-7.1221375,6
771,0.053894043,0.044921875,-0.087524414,-3.8396947,0.8167939,-7.0152674,6
772,0.05633545,0.048095703,-0.06365967,-4.4274807,0.9389313,-7.2366414,6
773,0.052612305,0.04876709,-0.07122803,-2.29771,0.83206105,-8.183207,6
774,0.054504395,0.050109863,-0.07751465,-3.832061,0,-7.4961834,6
775,0.056152344,0.049865723,-0.05316162,-2.4580152,1.3282443,-9.198473,6
776,0.057128906,0.048583984,-0.034301758,-2.7480917,0.5648855,-7.961832,6
777,0.0569458,0.048339844,-0.07647705,-1.8931298,-0.21374045,-8.450381,6
778,0.057800293,0.048461914,-0.052978516,-3.6259542,0.08396947,-8.854961,6
779,0.054748535,0.04638672,-0.1003418,-3.0839694,0.14503817,-7.5496182,6
780,0.05529785,0.04724121,-0.030090332,-1.610687,-1.1221374,-6.40458,6
781,0.057739258,0.04827881,-0.07324219,-1.740458,-0.40458015,-4.4580154,6
782,0.055236816,0.048583984,-0.059692383,-3.40458,-0.35877863,-6.1679387,6
783,0.0546875,0.047668457,-0.083740234,-0.8854962,0.35877863,-5.587786,6
784,0.05126953,0.04736328,-0.06530762,0.4274809,0.45801526,-4.5725193,6
785,0.05291748,0.049072266,-0.0635376,-0.97709924,2.832061,-3.2748091,6
786,0.052612305,0.051452637,-0.07513428,0.129771,2.480916,-2.816794,6
787,0.052368164,0.050842285,-0.046691895,1.778626,1.2290076,-2.351145,6
788,0.051696777,0.049316406,-0.0960083,-0.77862597,2.5648854,-3.3969467,6
789,0.054382324,0.05065918,-0.068481445,-0.7480916,2.3816793,-3.9160306,6
790,0.055786133,0.04925537,-0.064697266,0.48854962,1.091603,-5.480916,6
791,0.055358887,0.047607422,-0.057617188,-0.83206105,1.7862595,-3.3435113,6
792,0.054138184,0.047302246,-0.09082031,-0.64122134,1.221374,-4.4351144,6
793,0.05328369,0.047790527,-0.08758545,0.54198474,2.167939,-3.0305343,6
794,0.054504395,0.049743652,-0.08001709,0.39694658,3.0305343,-1.7709924,6
795,0.053771973,0.047851562,-0.07147217,1.4274809,2.6412213,-2.7633588,6
796,0.054992676,0.048461914,-0.08709717,1.1603054,2.8473282,-2.2900763,6
797,0.053100586,0.047607422,-0.068359375,1.6717557,2.59542,-3.1221373,6
798,0.05529785,0.04724121,-0.09185791,0.8778626,2.5801528,-2.4961832,6
799,0.05480957,0.04864502,-0.058288574,1.1450381,1.6564885,-4.3969464,6
800,0.057922363,0.047912598,-0.094055176,0.16793893,1.5954199,-3.076336,6
801,0.053894043,0.047180176,-0.08874512,0.7633588,1.0229008,-4.778626,6
802,0.054138184,0.049804688,-0.068481445,-0.9847328,-0.38931298,-5.778626,6
803,0.055603027,0.0501709,-0.07165527,-1.3129771,-2.091603,-6.671756,6
804,0.055847168,0.050231934,-0.04626465,0.259542,-5.3511453,-7.038168,6
805,0.054260254,0.050964355,-0.08325195,0.35114503,-8.526717,-11.152672,6
806,0.051086426,0.04949951,-0.07318115,-0.49618322,-9.267176,-10.412213,6
807,0.05126953,0.05065918,-0.090148926,-2.1603053,-11.38168,-13.19084,6
808,0.053710938,0.05255127,-0.07476807,-2.465649,-13.473283,-17.312977,6
809,0.051879883,0.047424316,-0.037963867,7.2748094,-12.847328,-13.374045,6
810,0.04522705,0.047058105,-0.07519531,12.328244,-10.274809,-13.969465,6
811,0.0501709,0.044067383,-0.08270264,-0.64122134,-8.244275,-11.335877,6
812,0.05029297,0.051574707,-0.09112549,-0.89312977,-2.0839694,-12.832061,6
813,0.04876709,0.04675293,-0.08843994,0.35877863,-0.97709924,-11.587787,6
814,0.047729492,0.047546387,-0.08123779,6.183206,0.610687,-12.38168,6
815,0.043701172,0.046142578,-0.08453369,6.816794,-0.77099234,-10,6
816,0.045166016,0.04437256,-0.09698486,5.114504,0.2977099,-5.4580154,6
817,0.05267334,0.04852295,-0.092041016,4.931298,0.099236645,-6.6412215,6
818,0.047546387,0.04852295,-0.08862305,4.6870227,-2.29771,-4.480916,6
819,0.03845215,0.043945312,-0.0859375,4.2061067,-4.038168,-3.6412213,6
820,0.04284668,0.04699707,-0.08135986,3.5267177,-1.5572519,-1.1908396,6
821,0.047729492,0.047424316,-0.079956055,1.0076336,2.778626,1.8931298,6
822,0.0435791,0.0446167,-0.0703125,-0.78625953,2.5801528,5.671756,6
823,0.045166016,0.04827881,-0.07873535,9.877863,5.076336,7.480916,6
824,0.04638672,0.04437256,-0.08880615,7.5496182,7.1297708,4.3587785,6
825,0.045166016,0.04876709,-0.07684326,4.5343513,9.893129,7.5801525,6
826,0.048950195,0.04925537,-0.073791504,10.091603,8.664123,7.2290077,6
827,0.048706055,0.04827881,-0.1060791,9,6.0152674,2.3206108,6
828,0.051757812,0.044311523,-0.09777832,8.5801525,2.4351146,3.259542,6
829,0.050964355,0.041870117,-0.09423828,1.0687023,1.5114504,0.71755725,6
830,0.05078125,0.038208008,-0.09326172,0.83206105,-0.08396947,1.4045801,6
831,0.055541992,0.040222168,-0.09643555,2.9770992,-2.7480917,0.66412216,6
832,0.057678223,0.033569336,-0.09283447,0.9236641,-3.7175572,1.8625954,6
833,0.054870605,0.03564453,-0.091796875,0.6183206,-3.664122,2.740458,6
834,0.05432129,0.039245605,-0.081848145,0.22900763,-4.9541984,2.572519,6
835,0.055664062,0.041931152,-0.093933105,-0.35114503,-5.816794,3.7480917,6
836,0.04840088,0.037475586,-0.07196045,0.70229006,-4.7862597,6.412214,6
837,0.047180176,0.041259766,-0.0848999,-0.10687023,-4.4656487,1.7099236,6
838,0.04675293,0.042663574,-0.08917236,-1.8931298,-4.5419846,4.5801525,6
839,0.045288086,0.044128418,-0.068603516,-2.519084,-4.9847326,6.0458016,6
840,0.042541504,0.045532227,-0.07757568,-4.0916033,-6.59542,4.7938933,6
841,0.045654297,0.04522705,-0.064819336,-7.0076337,-6.4656487,0.8854962,6
842,0.04510498,0.046875,-0.04827881,-7.0152674,-8.312977,-5.0076337,6
843,0.047607422,0.044128418,-0.042907715,-7.9541984,-9.587787,-5.335878,6
844,0.049316406,0.044921875,-0.10632324,-6.4503818,-8.687023,-10.80916,6
845,0.048583984,0.0435791,-0.08013916,-8.175572,-5.2900763,-11.045801,6
846,0.046569824,0.046203613,-0.038330078,-6.0229006,-2.4961832,-12.366412,6
847,0.045410156,0.045166016,-0.058044434,-0.35877863,-0.6793893,-13.732824,6
848,0.04333496,0.044067383,-0.07751465,1.9541985,1.129771,-12.923664,6
849,0.045288086,0.045043945,-0.07696533,1.7251909,3.1984732,-10.992367,6
850,0.042419434,0.042907715,-0.08227539,1.8931298,5.9923663,-4.442748,6
851,0.045959473,0.041748047,-0.041137695,2.5038168,4.8396945,-5.152672,6
852,0.04333496,0.040405273,-0.09185791,1.3282443,5.6488547,-2.1450381,6
853,0.045837402,0.0423584,-0.086120605,1.8244275,5.3893127,-0.73282444,6
854,0.04284668,0.043273926,-0.08062744,2.1145039,6.2366414,-0.6259542,6
855,0.045288086,0.04486084,-0.08380127,2.8015268,5.442748,1.1526718,6
856,0.046325684,0.04626465,-0.08282471,1.5648855,2.0305343,0.5114504,6
857,0.047851562,0.044799805,-0.07489014,0.36641222,1.3282443,-1.9160305,6
858,0.04876709,0.043945312,-0.095336914,-2.0458016,-0.8091603,-1.1221374,6
859,0.04559326,0.04156494,-0.097717285,-2.206107,-3.0687022,-1.3358779,6
860,0.045532227,0.042663574,-0.08526611,-2.8931298,-5.4198475,-3.1908398,6
861,0.046081543,0.04272461,-0.08862305,-4.0305343,-7.4656487,-3.816794,6
862,0.043395996,0.03881836,-0.06097412,-4.4580154,-7.7709923,-6.6183205,6
863,0.046447754,0.04034424,-0.064575195,-6.931298,-6.0992365,-1.8473282,6
864,0.042663574,0.044555664,-0.09246826,-5.1679387,-5.8015265,-3.610687,6
865,0.039489746,0.042236328,-0.076049805,-4.0305343,-3.4961832,0.58778626,6
866,0.04248047,0.04272461,-0.08105469,-4.4732823,-1.908397,3.59542,6
867,0.04345703,0.043884277,-0.08996582,-5.114504,-1.9923664,5.0229006,6
868,0.045532227,0.047180176,-0.08062744,-3,-1.870229,6.89313,6
869,0.045959473,0.041992188,-0.082214355,1.9694656,-2.4198472,8.045801,6
870,0.05041504,0.04156494,-0.09692383,1.5648855,-2.793893,6.8625956,6
871,0.049804688,0.04071045,-0.08380127,1.2061069,-4.3969464,8.755725,6
872,0.0524292,0.04296875,-0.101501465,1.1450381,-7.9541984,8.679389,6
873,0.049804688,0.041931152,-0.09777832,-0.22137405,-9.732824,5.480916,6
874,0.04638672,0.03930664,-0.08300781,-3.7099237,-12.335877,4.4503818,6
875,0.04559326,0.043395996,-0.09069824,-8.183207,-12,0.007633588,6
876,0.042236328,0.04815674,-0.0871582,-7.7709923,-9.893129,-3.2442749,6
877,0.037902832,0.049865723,-0.08294678,-4.2137403,-7.625954,-2.7251909,6
878,0.034851074,0.047729492,-0.08239746,-3.312977,-6.0305343,-7.2748094,6
879,0.03112793,0.048828125,-0.0927124,-1.7480916,-2.6183207,-8.068703,6
880,0.028808594,0.049560547,-0.076171875,-0.7633588,-0.39694658,-11.312977,6
881,0.030151367,0.047180176,-0.08843994,0.24427481,1.7480916,-12.236641,6
882,0.028625488,0.047973633,-0.096069336,-0.15267175,2.1526718,-11.465649,6
883,0.038757324,0.046936035,-0.094055176,-0.22137405,6.519084,-13.7404585,6
884,0.039123535,0.044311523,-0.09863281,1.6870229,8.389313,-11.183207,6
885,0.042236328,0.041931152,-0.09411621,1.7633588,7.9847326,-11.320611,6
886,0.04345703,0.04321289,-0.09869385,3.2290077,8.633588,-8.236641,6
887,0.041992188,0.040649414,-0.09741211,3.6946564,9.061069,-8.625955,6
888,0.04333496,0.039978027,-0.09655762,2.183206,8.40458,-6.625954,6
889,0.04827881,0.04058838,-0.09490967,2.442748,7.259542,-2.1221373,6
890,0.04510498,0.03717041,-0.08453369,3.687023,6.5267177,0.71755725,6
891,0.04949951,0.039855957,-0.11254883,-1.0458015,5.8778625,3.259542,6
892,0.041931152,0.042053223,-0.08355713,-1.259542,4.3511453,2.389313,6
893,0.041381836,0.04034424,-0.09051514,-1.8854961,4.4198475,3.1221373,6
894,0.043273926,0.04559326,-0.033569336,-2.0839694,5.847328,3.9847329,6
895,0.03692627,0.043151855,-0.09283447,-1.9847329,7.152672,7.9465647,6
896,0.041625977,0.045837402,-0.08654785,-2.793893,4.9770994,6.5038166,6
897,0.04534912,0.047058105,-0.0592041,-1.9007634,4.6870227,3.4351146,6
898,0.045166016,0.044311523,-0.07659912,-0.73282444,5.4885497,3.0610688,6
899,0.046203613,0.046936035,-0.07775879,-0.030534351,6.2824426,-0.8549618,6
900,0.04724121,0.050048828,-0.07171631,0.99236643,5.5343513,-0.57251906,6
901,0.045959473,0.042419434,-0.091796875,4.8702292,5.4656487,-3.4580152,6
902,0.046142578,0.04333496,-0.093566895,4.9389315,5.89313,-4.7709923,6
903,0.046081543,0.04260254,-0.10058594,3.0305343,5.9389315,-4.2519083,6
904,0.045410156,0.04156494,-0.092041016,2.0839694,3.9312978,-5.9389315,6
905,0.04675293,0.039001465,-0.08325195,1.519084,3.1603053,-1.5801526,6
906,0.048828125,0.0390625,-0.081604004,-0.65648854,1.740458,-1.8778626,6
907,0.046936035,0.041931152,-0.074035645,-0.89312977,0.03816794,-1.4427481,6
908,0.047668457,0.040649414,-0.092163086,-3.0076337,-1.8778626,0.740458,6
909,0.046813965,0.03869629,-0.10876465,-4.152672,-5.183206,-2.1145039,6
910,0.044677734,0.043395996,-0.09350586,-6.152672,-4.5419846,-2.7633588,6
911,0.043701172,0.044677734,-0.08532715,-5.961832,-4.068702,-4.2061067,6
912,0.043029785,0.047607422,-0.064086914,-3.0229008,-5.2748094,-4.7175574,6
913,0.041809082,0.047302246,-0.076538086,-2.0305343,-2.961832,-6.7557254,6
914,0.038757324,0.048461914,-0.09185791,-2.6717558,-1.091603,-6.5343513,6
915,0.042785645,0.046203613,-0.0947876,-1.4274809,1.0458015,-9.297709,6
916,0.044677734,0.045410156,-0.0826416,1.2061069,2.5419848,-7.145038,6
917,0.04547119,0.04248047,-0.07696533,0.6870229,4.9389315,-6.7251906,6
918,0.045166016,0.04486084,-0.08605957,1.6793894,5.8625956,-5.9923663,6
919,0.04699707,0.0423584,-0.08453369,3.961832,6.3816795,-4.5267177,6
920,0.043945312,0.04119873,-0.09185791,3.465649,5.2900763,-1.5954199,6
921,0.04486084,0.040161133,-0.07476807,1.832061,4.1984735,-2.648855,6
922,0.04534912,0.040527344,-0.087890625,0.41984734,2.3587787,-2.2824428,6
923,0.0446167,0.04248047,-0.089904785,-1.8244275,1.8015267,-2.335878,6
924,0.045959473,0.042541504,-0.094055176,-1.961832,1.3969465,-2.335878,6
925,0.04724121,0.043273926,-0.08734131,-1.6259542,0.17557251,-3.167939,6
926,0.046325684,0.04119873,-0.09777832,-2.0305343,-0.06870229,-0.90839696,6
927,0.042663574,0.044555664,-0.09765625,-2.2748091,-0.84732825,-3.6335878,6
928,0.044555664,0.040771484,-0.08581543,-3.4503818,-0.17557251,-3.70229,6
929,0.048461914,0.042114258,-0.0892334,-3.7862597,-0.45801526,-1.870229,6
930,0.04345703,0.039978027,-0.08203125,-2.59542,-0.99236643,-2.167939,6
931,0.044311523,0.03955078,-0.080444336,-2.1450381,-0.22900763,-2.1145039,6
932,0.042907715,0.043029785,-0.084228516,-1.0534351,1.1145039,-4.7633586,6
933,0.046325684,0.045959473,-0.0871582,-0.77099234,-0.06870229,-1.8778626,6
934,0.044433594,0.043945312,-0.084228516,0.70229006,1.5648855,-3.8015268,6
935,0.044128418,0.046936035,-0.09326172,0.29007635,2.3282442,-4.183206,6
936,0.040161133,0.041625977,-0.08660889,1.6259542,2.0229008,-2.091603,6
937,0.042175293,0.04058838,-0.070129395,0.8549618,3.4885497,-2.2442749,6
938,0.045715332,0.040527344,-0.07720947,0.3816794,1.740458,-1.5343511,6
939,0.041625977,0.04321289,-0.09265137,0.65648854,2.221374,-2.4351146,6
940,0.046813965,0.0413208,-0.087402344,0.33587787,1.8396946,0.26717559,6
941,0.04333496,0.044067383,-0.07092285,-0.114503816,2.7175572,-0.1908397,6
942,0.045288086,0.042541504,-0.093444824,0.07633588,2.3282442,0.7633588,6
943,0.045776367,0.04321289,-0.0914917,1.1984733,1.480916,-1.038168,6
944,0.0435791,0.044006348,-0.089782715,-0.20610687,0.97709924,-2.4503818,6
945,0.04272461,0.038330078,-0.07104492,-0.38931298,3.6564887,-1.7251909,6
946,0.043884277,0.042236328,-0.09472656,-0.8091603,3.923664,-1.9007634,6
947,0.04486084,0.042297363,-0.097839355,0.13740458,5.7175574,-1.7328244,6
948,0.044067383,0.042907715,-0.079833984,1.3129771,7.6870227,-1.1145039,6
949,0.045837402,0.041137695,-0.09954834,3.3816793,6.7633586,0.7099237,6
950,0.049072266,0.042907715,-0.09643555,1.8015267,5.0152674,-1.0305344,6
951,0.046203613,0.03753662,-0.09918213,0.79389316,3.3206108,-3.221374,6
952,0.045410156,0.03930664,-0.097229004,-0.45801526,1.1832061,-1.4198474,6
953,0.04626465,0.03967285,-0.10272217,-0.78625953,0.65648854,-1.1068702,6
954,0.049438477,0.041259766,-0.09875488,-0.3740458,0.3816794,-1.5267175,6
955,0.04559326,0.04071045,-0.09350586,-1.2137405,0.5496183,0.22900763,6
956,0.04864502,0.043823242,-0.11004639,-4.8396945,0.24427481,3.519084,6
957,0.048828125,0.041259766,-0.09423828,-2.0305343,0.9160305,0.3740458,6
958,0.04547119,0.04309082,-0.0947876,-1.9541985,-1.1984733,-3.6946564,6
959,0.04345703,0.0423584,-0.09643555,-3.167939,0.32061067,-1.091603,6
960,0.047424316,0.045959473,-0.09918213,-2.5038168,0.08396947,-5.3816795,6
961,0.047607422,0.046447754,-0.07067871,-0.18320611,0.60305345,-3.923664,6
962,0.045776367,0.046142578,-0.07733154,-0.83206105,1.648855,-4.9847326,6
963,0.045288086,0.047424316,-0.089416504,-0.610687,2.5038168,-7.7633586,6
964,0.042297363,0.04333496,-0.08502197,1.2748091,3.4732823,-6.8625956,6
965,0.04736328,0.042175293,-0.072387695,0.71755725,3.648855,-3.5648854,6
966,0.04736328,0.04168701,-0.07385254,1.3053435,4.19084,-3.7480917,6
967,0.048339844,0.042907715,-0.07940674,2.0152671,5.1297708,-4.0458016,6
968,0.048583984,0.04071045,-0.07043457,1.5419847,6.9083967,-3.5496182,6
969,0.04534912,0.039794922,-0.08087158,1.1526718,8.106871,-1.4351145,6
970,0.046142578,0.043395996,-0.09838867,2.7557251,6.740458,-1.4274809,6
971,0.045776367,0.041809082,-0.067993164,4.0610685,5.9465647,-2.70229,6
972,0.05065918,0.042053223,-0.0949707,2.1526718,7.1755724,-4.633588,6
973,0.048828125,0.043273926,-0.09136963,0.45801526,5.7328243,-6.4580154,6
974,0.05267334,0.043640137,-0.106933594,3.0839694,4.6030536,-8.229008,6
975,0.05053711,0.039489746,-0.08502197,1.389313,4.4503818,-5.4885497,6
976,0.05065918,0.04272461,-0.1003418,0.57251906,3.2824428,-3.6183207,6
977,0.048095703,0.040405273,-0.10107422,2.3816793,3.8473282,-2.6793892,6
978,0.051635742,0.039794922,-0.10229492,1.3816794,2.1145039,-1.7709924,6
979,0.04937744,0.0390625,-0.097351074,-0.23664123,0.2977099,-3.3206108,6
980,0.05126953,0.037719727,-0.1027832,-2.0992367,-2.29771,-4.0305343,6
981,0.047607422,0.03942871,-0.09246826,-4.145038,-4.519084,-3.9160306,6
982,0.049743652,0.039978027,-0.09118652,-4.9465647,-6.2442746,-6.412214,6
983,0.046142578,0.042785645,-0.10131836,-4.9923663,-6.9389315,-5.259542,6
984,0.048339844,0.044555664,-0.09063721,-6.0610685,-8.847328,-4.3511453,6
985,0.04638672,0.041809082,-0.09057617,-5.5496182,-11.175572,-5.145038,6
986,0.045532227,0.04321289,-0.08959961,-6.259542,-11.908397,-5.8396945,6
987,0.045166016,0.04309082,-0.09661865,-7.1755724,-11.824428,-4.9465647,6
988,0.043273926,0.041625977,-0.08111572,-6.0458016,-10.152672,-2.2900763,6
989,0.04425049,0.04333496,-0.09716797,-3.5877862,-9.152672,1.1374046,6
990,0.045959473,0.042236328,-0.09588623,-4.1755724,-8.389313,2.076336,6
991,0.03918457,0.039245605,-0.091430664,-4.7709923,-5.9541984,6.0534353,6
992,0.044128418,0.04107666,-0.08685303,-6.2137403,-5.1297708,9.625955,6
993,0.039916992,0.042663574,-0.09173584,-4.7099237,-1.7480916,10.824428,6
994,0.039001465,0.0423584,-0.09313965,-1.4580153,1.129771,11.648855,6
995,0.04046631,0.041137695,-0.07672119,0.28244275,6.1374044,12.908397,6
996,0.043701172,0.0390625,-0.08868408,-3.7709923,8.198473,18.725191,6
997,0.043701172,0.0413208,-0.079589844,-6.1603055,10.9007635,21.709923,6
998,0.04748535,0.04095459,-0.089660645,-1.7557251,10.152672,21.93893,6
999,0.047790527,0.03942871,-0.10028076,0.045801528,10.320611,22.519083,6
1000,0.047851562,0.038330078,-0.091552734,-2.312977,10.145039,22.74809,6
1001,0.053588867,0.03955078,-0.09484863,-2.3053436,8.717557,20.213741,6
1002,0.05407715,0.036499023,-0.0892334,-5.442748,4.366412,22.442749,6
1003,0.05407715,0.036743164,-0.09918213,-12.717557,2.793893,25.450382,6
1004,0.05731201,0.037475586,-0.1015625,-17.48855,-1.648855,29.496183,6
1005,0.060913086,0.038269043,-0.09173584,-17.877863,-3.167939,32.969467,6
1006,0.0637207,0.03741455,-0.097351074,-22.496183,-6.259542,32.160305,6
1007,0.068359375,0.03765869,-0.080078125,-27.480917,-10.053435,29.656488,6
1008,0.06085205,0.042907715,-0.09539795,-27.603054,-15.908397,24.29771,6
1009,0.060791016,0.04724121,-0.08496094,-24.984734,-22.70229,13.267176,6
1010,0.05340576,0.05267334,-0.099609375,-20.305344,-29.145039,4.2671757,6
1011,0.051757812,0.050109863,-0.103881836,-13.824428,-33.328243,-10.633588,6
1012,0.04724121,0.05493164,-0.09375,-14.0992365,-37.099236,-23.137405,6
1013,0.039001465,0.055725098,-0.09741211,-11.4198475,-40.35878,-31.89313,6
1014,0.036071777,0.050720215,-0.095336914,-8.129771,-40.290077,-41.38168,6
1015,0.03137207,0.05102539,-0.091674805,-9.610687,-41.587788,-44.862595,6
1016,0.031982422,0.04437256,-0.09710693,-14.374045,-40,-40.908398,6
1017,0.027709961,0.044433594,-0.091430664,-19.183207,-33.603054,-34.25954,6
1018,0.020996094,0.04559326,-0.09069824,-25.122137,-29.709923,-27.015266,6
1019,0.022216797,0.039611816,-0.08929443,-24.068703,-26.175573,-18.06107,6
1020,0.023376465,0.04675293,-0.089416504,-17.770992,-20.48855,-9.38168,6
1021,0.022155762,0.04699707,-0.10021973,-12.114504,-17.610687,-0.27480915,6
1022,0.020568848,0.048034668,-0.10101318,-6,-14.793893,2.7328243,6
1023,0.018310547,0.051208496,-0.09631348,-5.9923663,-11.343512,8.427481,6
1024,0.020690918,0.06036377,-0.1081543,-7.0839696,-9.938931,9.564885,6
1025,0.020568848,0.06329346,-0.091918945,-3.923664,-10.770992,8.61832,6
1026,0.017211914,0.06616211,-0.08013916,1.038168,-10.61832,4.1221375,6
1027,0.017089844,0.06323242,-0.090270996,4.1603055,-9.473283,1.8625954,6
1028,0.018676758,0.057495117,-0.08062744,-2.0687022,-3.923664,-1.519084,6
1029,0.019165039,0.061462402,-0.103515625,-12.832061,-1.9923664,-3.5877862,6
1030,0.021240234,0.06591797,-0.066467285,-11.78626,-0.45038167,-1.4961832,6
1031,0.021728516,0.06536865,-0.09503174,-3.3969467,2.793893,-3.8015268,6
1032,0.018981934,0.062927246,-0.07110596,4.7175574,4.3129773,-7.4351144,6
1033,0.017700195,0.06048584,-0.08013916,6.5038166,6.923664,-7.1755724,6
1034,0.018493652,0.05895996,-0.0814209,6.6183205,12.885496,-6.5267177,6
1035,0.021972656,0.055114746,-0.07800293,8.068703,13,-6.5114503,6
1036,0.022705078,0.055664062,-0.092163086,5.038168,12.587787,-5.221374,6
1037,0.027404785,0.052246094,-0.075683594,5.5267177,14.175572,-1.7862595,6
1038,0.027770996,0.051513672,-0.07055664,4.7557254,16.213741,-0.28244275,6
1039,0.03112793,0.047302246,-0.09326172,0.29007635,13.893129,1.2824427,6
1040,0.031799316,0.051818848,-0.088378906,0.96183205,13.274809,2.4122138,6
1041,0.03186035,0.053466797,-0.10760498,3.816794,11.236641,5.9847326,6
1042,0.030822754,0.052978516,-0.1015625,3.648855,10.526717,5.3206105,6
1043,0.032287598,0.053527832,-0.10192871,0.5038168,6.6488547,4.9083967,6
1044,0.034484863,0.05432129,-0.096191406,-2.3664122,3.167939,4.183206,6
1045,0.032470703,0.058288574,-0.06542969,-6.923664,-1.6259542,-1.1755725,6
1046,0.03161621,0.05493164,-0.06616211,-8.770992,-3.6793892,-1.5725191,6
1047,0.02923584,0.054260254,-0.103271484,-7.0916033,-4.19084,-4.3053436,6
1048,0.02508545,0.057556152,-0.10357666,-6.9465647,-4.885496,-2.9847329,6
1049,0.027282715,0.0579834,-0.10290527,-4.7709923,-4.5419846,-4.4656487,6
1050,0.028808594,0.054260254,-0.09069824,-7.2748094,-3.5496182,-5.328244,6
1051,0.023742676,0.056518555,-0.09576416,-5.70229,-2.29771,-5.89313,6
1052,0.024841309,0.057006836,-0.09851074,-1.1450381,-0.5801527,-5.6412215,6
1053,0.026245117,0.05340576,-0.081604004,1.0992366,1.5877863,-5.7251906,6
1054,0.028564453,0.053344727,-0.083984375,1.9770992,4.0152674,-3.648855,6
1055,0.025634766,0.053833008,-0.0970459,0.2977099,3.6030533,-1.5038168,6
1056,0.026245117,0.052612305,-0.09710693,1.259542,4.1679387,-1.3435115,6
1057,0.02911377,0.054138184,-0.087646484,0.8854962,4.2900763,-1.3435115,6
1058,0.030090332,0.056396484,-0.089416504,-0.2519084,2.9770992,-1.2061069,6
1059,0.027770996,0.055725098,-0.08935547,-1.1832061,2.4503818,-2.793893,6
1060,0.030883789,0.05731201,-0.09411621,0.259542,0.3740458,-0.57251906,6
1061,0.025024414,0.05493164,-0.09869385,-1.9541985,-0.015267176,-2.4580152,6
1062,0.025817871,0.05908203,-0.08526611,-2.1450381,-1.2824427,-3.687023,6
1063,0.028686523,0.05596924,-0.09967041,-1.2061069,0.6259542,-3.4122138,6
1064,0.02758789,0.055480957,-0.09448242,0.71755725,0.77862597,-3.610687,6
1065,0.025878906,0.05303955,-0.081604004,-0.091603056,0.8396947,-3.6183207,6
1066,0.030090332,0.054504395,-0.097595215,-1.6564885,0.34351146,-2.335878,6
1067,0.027282715,0.056762695,-0.10144043,-1.4503816,0.23664123,-3.6259542,6
1068,0.02746582,0.057678223,-0.101623535,-2.7251909,-1.7633588,-3.1755726,6
1069,0.024597168,0.058288574,-0.0982666,-4.4503818,-2.2366412,-3.1374047,6
1070,0.029663086,0.060302734,-0.09466553,-3.206107,-2.9007633,-4.2442746,6
1071,0.02746582,0.0569458,-0.09741211,-2.534351,-2.923664,-2.946565,6
1072,0.024414062,0.059753418,-0.09197998,-2.9847329,-2.664122,-2.648855,6
1073,0.026794434,0.057006836,-0.09240723,-2.2748091,-2.3206108,-3.6564887,6
1074,0.023498535,0.059326172,-0.095825195,-2.0076337,-0.73282444,-5.1755724,6
1075,0.02722168,0.06072998,-0.093444824,-0.9694657,-1.4274809,-4.259542,6
1076,0.025024414,0.057678223,-0.09887695,-1.3664122,-0.08396947,-2.7633588,6
1077,0.028198242,0.05731201,-0.09643555,-1.9541985,0.099236645,-2.3587787,6
1078,0.02911377,0.0569458,-0.09564209,-2.7633588,-0.9160305,-5.8320613,6
1079,0.026916504,0.058410645,-0.09863281,-0.99236643,-0.6793893,-4.374046,6
1080,0.028320312,0.057617188,-0.09753418,-1.8854961,-0.9541985,-2.5801528,6
1081,0.027770996,0.054504395,-0.09857178,-1.3816794,-0.4427481,-4.4580154,6
1082,0.026916504,0.054748535,-0.09863281,-1.4503816,-2.1755726,-4.2061067,6
1083,0.027893066,0.05871582,-0.09564209,-3.3587787,-1.6259542,-3.9923663,6
1084,0.026794434,0.060180664,-0.09729004,-4.5267177,-0.022900764,-5.10687,6
1085,0.027404785,0.06213379,-0.09991455,-2.7328243,-1.167939,-3.3740458,6
1086,0.024719238,0.05609131,-0.11242676,-2.2748091,-1.1526718,-2.7480917,6
1087,0.025756836,0.05621338,-0.09472656,-1.5801526,-0.6946565,-5.2290077,6
1088,0.023498535,0.059753418,-0.09069824,-3.2137403,0.27480915,-4.854962,6
1089,0.024047852,0.05908203,-0.08068848,-0.77099234,0.114503816,-4.9923663,6
1090,0.025390625,0.06011963,-0.07550049,0.2977099,-0.5496183,-5.0916033,6
1091,0.026367188,0.059326172,-0.10662842,-0.20610687,0.5496183,-3.961832,6
1092,0.025268555,0.058532715,-0.08081055,-0.78625953,0.27480915,-2.3053436,6
1093,0.026489258,0.058166504,-0.10662842,1.0458015,1.4732825,-0.15267175,6
1094,0.02911377,0.05883789,-0.10308838,2.9007633,1.2290076,-2.7251909,6
1095,0.026916504,0.057006836,-0.0947876,2.221374,-1.9541985,-2.0076337,6
1096,0.027709961,0.05908203,-0.09838867,-2,-3.610687,-1.0763359,6
1097,0.026428223,0.056152344,-0.09613037,-1.6793894,-5.0152674,-2.6793892,6
1098,0.02508545,0.053833008,-0.10510254,-1.9007634,-5.9770994,-2.076336,6
1099,0.023742676,0.056274414,-0.10064697,-6.2519083,-6.2748094,-2.4198472,6
1100,0.021728516,0.05633545,-0.09661865,-6.3587785,-7.0152674,-1.8244275,6
1101,0.022216797,0.05883789,-0.09680176,-5.1755724,-6.412214,-2.7709923,6
1102,0.020202637,0.059326172,-0.088012695,-4.519084,-6.2519083,-3.4732823,6
1103,0.022460938,0.060546875,-0.09979248,-3.0458016,-3.9770992,-2.1374047,6
1104,0.018554688,0.059631348,-0.056884766,-5.7709923,-5.221374,0.07633588,6
1105,0.01574707,0.064819336,-0.10144043,-4.633588,-4.328244,0.3740458,6
1106,0.018310547,0.06311035,-0.080200195,-2.9160306,-3.259542,3.0076337,6
1107,0.018066406,0.06329346,-0.09954834,-4.5114503,-1.9847329,0.053435113,6
1108,0.01928711,0.06530762,-0.089416504,-1.908397,2.091603,-2.0152671,6
1109,0.021606445,0.061767578,-0.09124756,4.0992365,4.145038,-1.4885496,6
1110,0.018676758,0.05822754,-0.076416016,3.1603053,4.8778625,-1.0076336,6
1111,0.024597168,0.061401367,-0.082336426,3.7633588,9.267176,-2.1374047,6
1112,0.021850586,0.060180664,-0.087890625,4.4274807,9.977099,-1.2366412,6
1113,0.021240234,0.05999756,-0.085754395,6.4961834,12.053435,-0.099236645,6
1114,0.018432617,0.061157227,-0.08905029,11.465649,13.923664,-2.0992367,6
1115,0.018676758,0.061584473,-0.10571289,10.969465,15.59542,-2.793893,6
1116,0.025756836,0.057739258,-0.0793457,8.19084,16.450382,-0.26717559,6
1117,0.024108887,0.0569458,-0.09069824,5.480916,16.847328,0.053435113,6
1118,0.027038574,0.056762695,-0.099487305,7.4198475,16.374046,0.045801528,6
1119,0.02923584,0.054992676,-0.08441162,8.022901,16.458015,-0.5038168,6
1120,0.027954102,0.053649902,-0.099243164,7.633588,16.648855,0.17557251,6
1121,0.028503418,0.05407715,-0.09613037,5.4503818,16.900763,2.908397,6
1122,0.030029297,0.05493164,-0.10180664,6.4351144,17.328245,0.32061067,6
1123,0.032104492,0.05633545,-0.09899902,4.9694657,17.198473,-0.6259542,6
1124,0.03387451,0.052001953,-0.09777832,6.442748,17.450382,0.259542,6
1125,0.030578613,0.051696777,-0.09643555,5.5725193,17.374046,-0.70229006,6
1126,0.036865234,0.052734375,-0.08984375,5.412214,18.816793,-1.6030535,6
1127,0.035339355,0.053466797,-0.09710693,6.4656487,18.175573,0.4274809,6
1128,0.03668213,0.05505371,-0.0904541,9.229008,19.305344,-2.389313,6
1129,0.033691406,0.060791016,-0.09094238,12.4198475,19.366413,-3.59542,6
1130,0.036071777,0.0569458,-0.10235596,14.4198475,18.961832,-6.7251906,6
1131,0.03869629,0.055419922,-0.099975586,14.068703,19.08397,-8.488549,6
1132,0.041748047,0.051635742,-0.09838867,13.305344,19.038168,-9.679389,6
1133,0.04333496,0.049804688,-0.09765625,14.610687,17.89313,-12.251908,6
1134,0.03930664,0.04827881,-0.097717285,15.122137,15.824428,-13.374045,6
1135,0.039733887,0.044921875,-0.10211182,14.0992365,15.572519,-15.946565,6
1136,0.03894043,0.044799805,-0.10241699,12.145039,12.992367,-13.687023,6
1137,0.040039062,0.044006348,-0.10418701,8.4198475,9.442748,-12.374045,6
1138,0.04534912,0.04119873,-0.099121094,6.183206,9.19084,-13.106871,6
1139,0.046142578,0.042907715,-0.10028076,3.1450381,6.6793895,-11.137404,6
1140,0.044311523,0.041503906,-0.103027344,3.1374047,5.7175574,-11.251908,6
1141,0.043151855,0.043151855,-0.1015625,1.4427481,3.4198472,-10.526717,6
1142,0.045410156,0.044555664,-0.055603027,-2.7862597,0.71755725,-9.091603,6
1143,0.039001465,0.043151855,-0.10058594,-3.557252,0.6946565,-8.091603,6
1144,0.044128418,0.045898438,-0.088256836,-4.4656487,-1.8396946,-7.7251906,6
1145,0.041503906,0.043518066,-0.099365234,-4.221374,-3.1908398,-8.068703,6
1146,0.042663574,0.044799805,-0.09509277,-5.9541984,-3.9160306,-6.1679387,6
1147,0.042541504,0.05218506,-0.093566895,-4.6564884,-3.8091602,-7.847328,6
1148,0.03967285,0.053588867,-0.09686279,-4.9770994,-3.312977,-8.793893,6
1149,0.041137695,0.053222656,-0.1038208,-4.183206,-2.091603,-11.656488,6
1150,0.033325195,0.050842285,-0.095336914,-5.3969464,-0.34351146,-8.748092,6
1151,0.038391113,0.05029297,-0.09851074,-4.5267177,-0.8778626,-7.816794,6
1152,0.037719727,0.054260254,-0.09466553,-1.5954199,0.2977099,-8.007633,6
1153,0.039123535,0.05114746,-0.07836914,-0.17557251,1.4427481,-9.854961,6
1154,0.038208008,0.051574707,-0.09240723,-1.8396946,2.793893,-7.6488547,6
1155,0.038085938,0.05114746,-0.09655762,-0.5954198,1.70229,-6.9160304,6
1156,0.038879395,0.0501709,-0.097229004,-0.78625953,1.7480916,-8.007633,6
1157,0.041503906,0.048461914,-0.09967041,-0.022900764,2.7862597,-7.816794,6
1158,0.03955078,0.05114746,-0.10675049,0.18320611,2.6030533,-7.2061067,6
1159,0.03668213,0.052490234,-0.09509277,-1.9007634,1.908397,-6.19084,6
1160,0.03741455,0.051513672,-0.10266113,-0.78625953,0.23664123,-4.5419846,6
1161,0.039855957,0.05102539,-0.109680176,0.030534351,2.9694657,-5.0916033,6
1162,0.04046631,0.052001953,-0.10559082,-0.35877863,1.8091604,-2.9160306,6
1163,0.039916992,0.053771973,-0.103515625,1.2290076,2.29771,-4.854962,6
1164,0.04046631,0.05206299,-0.08276367,1.6183206,1.8549619,-3.6412213,6
1165,0.03692627,0.051818848,-0.101989746,2.908397,4.3893127,-5.557252,6
1166,0.0390625,0.05316162,-0.100097656,2.572519,4.9770994,-3.8396947,6
1167,0.040527344,0.050476074,-0.10192871,5.5038166,5.4732823,-3.923664,6
1168,0.039123535,0.051696777,-0.1048584,4.4503818,5.9083967,-3.6564887,6
1169,0.04119873,0.051452637,-0.043884277,0.77862597,6.3206105,-5.9541984,6
1170,0.038635254,0.051208496,-0.084228516,-0.091603056,5.0534353,-5.9389315,6
1171,0.043762207,0.049194336,-0.06817627,1.2442749,4.0229006,-5.2824426,6
1172,0.039611816,0.0513916,-0.10253906,0.48854962,2.7709923,-3.335878,6
1173,0.041137695,0.048828125,-0.080078125,-1.389313,0.89312977,-2.7175572,6
1174,0.040100098,0.051086426,-0.085510254,-0.35114503,0.648855,-4.5038166,6
1175,0.04309082,0.0491333,-0.103759766,1.2519084,0.259542,0.34351146,6
1176,0.040161133,0.04937744,-0.095458984,-0.4351145,1.7175573,0.35877863,6
1177,0.04144287,0.054504395,-0.09454346,-1.1221374,2.5648854,-0.66412216,6
1178,0.041809082,0.050720215,-0.073791504,0.4274809,2.70229,-2.1603053,6
1179,0.042114258,0.054504395,-0.09625244,0.8244275,1.5267175,-2.167939,6
1180,0.040161133,0.049926758,-0.103637695,1.0458015,2.7251909,-3.4503818,6
1181,0.042297363,0.050354004,-0.087890625,1.1755725,1.9389313,-4.1297708,6
1182,0.040527344,0.050048828,-0.0871582,0.7251908,1.259542,-5.9694657,6
1183,0.03704834,0.049804688,-0.1015625,0.49618322,2.0229008,-4.4885497,6
1184,0.03955078,0.050720215,-0.0993042,-2.2671757,0.34351146,-3.8396947,6
1185,0.03967285,0.053222656,-0.101501465,0.26717559,1.2824427,-4.4580154,6
1186,0.040222168,0.047790527,-0.101623535,-0.7557252,0.46564886,-5.0916033,6
1187,0.041015625,0.05053711,-0.10357666,-2.3053436,1.3053435,-5.3435116,6
1188,0.040100098,0.050109863,-0.101379395,-1.4580153,1.2671756,-4.152672,6
1189,0.04284668,0.051940918,-0.06604004,-1.4885496,1.4732825,-3.167939,6
1190,0.042785645,0.05090332,-0.09362793,-1.1755725,-0.114503816,-2.2290077,6
1191,0.037109375,0.04827881,-0.097229004,-2.480916,0.7251908,0.13740458,6
1192,0.045654297,0.047790527,-0.10028076,-4.2061067,0.86259544,-1.7938931,6
1193,0.03869629,0.047668457,-0.09301758,-5.0305343,0.41984734,-0.54198474,6
1194,0.04095459,0.05206299,-0.08917236,-5.0916033,0.22900763,-0.9389313,6
1195,0.04333496,0.050354004,-0.09277344,-4.3969464,-0.18320611,1.9694656,6
1196,0.040222168,0.051757812,-0.10131836,-4.152672,-1.9465649,-0.061068702,6
1197,0.039855957,0.049560547,-0.08508301,-1.1068702,-1.8396946,1.29771,6
1198,0.042541504,0.05255127,-0.09564209,-2.9847329,-0.7099237,-1.3206106,6
1199,0.04260254,0.051574707,-0.09863281,-5.2366414,-0.16793893,-1.519084,6
1200,0.0390625,0.05432129,-0.08581543,-3.8091602,0.45801526,-0.610687,6
1201,0.03942871,0.053771973,-0.093811035,-2.1908398,1.4503816,-3.3282442,6
1202,0.042297363,0.04901123,-0.08728027,0.6183206,3.5877862,-4.1679387,6
1203,0.0390625,0.052978516,-0.088012695,0.5648855,5.10687,1.0839695,6
1204,0.038513184,0.054870605,-0.09887695,4.076336,4.0610685,-2.572519,6
1205,0.04284668,0.050048828,-0.09436035,4.3816795,3.3740458,1.7557251,6
1206,0.03930664,0.04827881,-0.09655762,0.8854962,3.1450381,0.9389313,6
1207,0.04449463,0.0501709,-0.036621094,5.7633586,3.6183207,2.7633588,6
1208,0.041381836,0.046813965,-0.10076904,3.29771,6.0152674,6.0534353,6
1209,0.04498291,0.042907715,-0.09631348,-5.9694657,4.6412215,7.9465647,6
1210,0.042419434,0.052734375,-0.09918213,-3.4885497,2.2366412,8.152672,6
1211,0.03363037,0.049621582,-0.09899902,5.0610685,0.045801528,8.106871,6
1212,0.04449463,0.05041504,-0.10992432,0.24427481,0.52671754,7.8320613,6
1213,0.055786133,0.05444336,-0.09515381,-5.625954,0.015267176,7.5419846,6
1214,0.0423584,0.059265137,-0.105895996,8.587787,-7.816794,-3.0305343,6
1215,0.041870117,0.047973633,-0.10333252,2.9770992,-5.671756,-6.3129773,6
1216,0.03515625,0.049072266,-0.10345459,-9.129771,-8.152672,-6.7480917,6
1217,0.04144287,0.05279541,-0.094177246,-3.2442749,-5.5038166,-7.259542,6
1218,0.039489746,0.045654297,-0.10308838,0.099236645,-3.9007633,-10.847328,6
1219,0.037963867,0.049743652,-0.09777832,-8.343512,-2.427481,-5.9923663,6
1220,0.034301758,0.05206299,-0.101867676,1.7557251,1.1908396,-4.6183205,6
1221,0.037963867,0.047851562,-0.094055176,-0.091603056,3.427481,-3.4503818,6
1222,0.042114258,0.05206299,-0.07562256,-2.6564887,2.7557251,-3.8778627,6
1223,0.04034424,0.052490234,-0.09906006,-1.9312977,0.65648854,-6.0229006,6
1224,0.04107666,0.052368164,-0.108947754,-3.3816793,1.5419847,-7.8320613,6
1225,0.040222168,0.0546875,-0.066711426,-2.7328243,0.45801526,-9.847328,6
1226,0.040161133,0.053527832,-0.09832764,-0.6335878,-0.36641222,-9.450381,6
1227,0.037231445,0.05102539,-0.07531738,2.0152671,-0.70229006,-6.0305343,6
1228,0.03955078,0.0513916,-0.101745605,6.961832,3.8854961,-10.465649,6
1229,0.040405273,0.045776367,-0.09643555,-0.6259542,7.8320613,-7.9083967,6
1230,0.040283203,0.050720215,-0.10046387,-3.1908398,7.4351144,-4.8244276,6
1231,0.041625977,0.050842285,-0.10430908,4.923664,6.442748,-5.7251906,6
1232,-0.09063721,-0.015136719,-0.047180176,19.694656,-60.21374,96.87023,6
1233,0.070739746,0.10772705,-0.07733154,38,41.931297,123.52672,6
1234,0.07495117,0.040527344,-0.07977295,123.76336,109.25191,24.969465,6
1235,0.08459473,0.0036621094,-0.07977295,41.46565,24.091602,-50.580154,6
1236,0.07623291,-0.026062012,-0.1295166,-51.549618,-52.610687,-75.51908,6
1237,0.026977539,0.064941406,-0.11608887,-57.305344,9.236641,-130.50381,6
1238,0.060058594,0.035827637,-0.107177734,-14.114504,-2.7862597,9.442748,6
1239,0.053100586,0.04473877,-0.089904785,-17.877863,-6.4961834,-21.580153,6
1240,0.04736328,0.042053223,-0.09625244,9.312977,-13.297709,8.854961,6
1241,0.039611816,0.042541504,-0.068603516,29.068703,-14.61832,34.923664,6
1242,0.04144287,0.032470703,-0.092163086,1.8625954,1.1603054,1.610687,6
1243,0.02319336,0.06518555,-0.08258057,-16.396946,2.3587787,26.625954,6
1244,0.0713501,0.014465332,-0.070373535,34.564884,-4.3511453,114.94656,6
1245,0.0357666,0.048828125,-0.10736084,-5.3511453,18.099237,-69.57252,6
1246,0.014038086,0.062805176,-0.06237793,28.25191,27.87023,-48.717556,6
1247,-0.08166504,0.043701172,-0.12335205,40.251907,41.908398,-6.633588,6
1248,0.057373047,0.023071289,-0.10687256,4.038168,14.984733,-71.99236,6
1249,0.070373535,0.038879395,-0.10345459,-36.53435,17.603054,25.91603,6
1250,0.032592773,0.05517578,-0.13348389,-30.091602,18.145039,-36.633587,6
1251,0.04736328,0.044311523,-0.12976074,-20.610687,28.160305,86,6
1252,0.052124023,0.02557373,-0.08331299,-52.801525,19.038168,33.87786,6
1253,0.06604004,0.044067383,-0.08782959,-23.396946,7.587786,0.77099234,6
1254,0.059936523,0.042419434,-0.0736084,12.396947,-2.9694657,-24.832062,6
1255,0.064331055,0.04321289,-0.10949707,34.328243,-3.2824428,-53.89313,6
1256,0.04699707,0.030212402,-0.093688965,19.450382,-10.541985,-29.404581,6
1257,0.048217773,0.039794922,-0.08880615,-10.557252,-4.221374,2.389313,6
1258,0.05316162,0.045898438,-0.09753418,-9.702291,-0.5801527,-2,6
1259,0.054626465,0.045898438,-0.08135986,-2.610687,3.3053436,-8.160305,6
1260,0.051635742,0.04638672,-0.09667969,4.6412215,3.3206108,-1.3206106,6
1261,0.0524292,0.043823242,-0.09094238,4.5343513,6.961832,-5.5648856,6
1262,0.047302246,0.04284668,-0.09472656,0.114503816,7,-5.145038,6
1263,0.053588867,0.047851562,-0.08392334,3.1145039,3.9160306,-4.442748,6
1264,0.051635742,0.044006348,-0.101379395,2.7175572,3.8091602,-6.3206105,6
1265,0.05291748,0.043945312,-0.087768555,2.0992367,3.3664122,-2.5267177,6
1266,0.051513672,0.04248047,-0.10003662,-1.6412214,1.610687,-4.1374044,6
1267,0.053955078,0.04107666,-0.078552246,-2.1374047,0.39694658,-4.587786,6
1268,0.053222656,0.039367676,-0.0949707,-3.1755726,-1.9847329,-2.8473282,6
1269,0.05432129,0.040527344,-0.07373047,-4.6564884,-3.9770992,-2.7251909,6
1270,0.05621338,0.04095459,-0.09674072,-4.0305343,-2.8854961,-0.740458,6
1271,0.051635742,0.045166016,-0.09753418,-3.1526718,-3.8473282,-1.3740458,6
1272,0.059387207,0.044799805,0.0051879883,-1.7099236,-7.0610685,-2.1526718,6
1273,0.05090332,0.041381836,-0.09741211,-1.0152671,-6.671756,-4.9770994,6
1274,0.052856445,0.043823242,-0.09802246,-4.259542,-6.70229,-4.6488547,6
1275,0.046020508,0.04876709,-0.058776855,-15.755725,8.465649,-11.38168,6
1276,0.053833008,0.05633545,-0.084106445,-9.297709,13.992367,-4.5725193,6
1277,0.057373047,0.045532227,-0.099243164,38.20611,13.763359,-8.908397,6
1278,0.046081543,0.030334473,-0.10479736,32.610687,10.366412,-1.1755725,6
1279,0.052124023,0.032104492,-0.09552002,-16.969465,6.8625956,-5.9770994,6
1280,0.05657959,0.040527344,-0.10046387,-22.557251,0.6793893,-5.740458,6
1281,0.056030273,0.041809082,-0.10296631,-21.473282,-6.7557254,-2.9541984,6
1282,0.05267334,0.047851562,-0.070617676,-8.938931,-0.66412216,-1.9541985,6
1283,0.05328369,0.043701172,-0.05718994,5.4732823,7.519084,-9.763359,6
1284,0.054992676,0.042053223,-0.105651855,10.496183,-0.47328246,-0.19847329,6
1285,0.05670166,0.049621582,-0.11022949,4.3816795,-3.3435113,3.2824428,6
1286,0.05419922,0.036376953,-0.11071777,0.8091603,-8.679389,-3.6412213,6
1287,0.053833008,0.04071045,-0.099365234,-7.80916,-8.083969,-1.4580153,6
1288,0.04510498,0.045837402,-0.097595215,-10.61832,-7.0076337,-3.9160306,6
1289,0.05102539,0.043395996,-0.060791016,-5.183206,1.0763359,-0.7251908,6
1290,0.04925537,0.04901123,-0.016784668,2.6259542,4.335878,0.9389313,6
1291,0.055358887,0.046447754,-0.07739258,17.175573,8.732824,-0.53435117,6
1292,0.052368164,0.04260254,-0.105651855,3.2290077,8.977099,-2.3587787,6
1293,0.060668945,0.048217773,-0.095581055,-4.5725193,6.923664,-7.9923663,6
1294,0.05053711,0.045898438,-0.099853516,4.5496182,6.2900763,-7.8702292,6
1295,0.05267334,0.042053223,-0.055603027,6.3206105,5.6488547,-8.21374,6
1296,0.055236816,0.040161133,-0.099853516,7.9847326,7.221374,-6,6
1297,0.05102539,0.038024902,-0.10021973,7.5419846,3.8931298,-4.4503818,6
1298,0.053955078,0.0413208,-0.09863281,2.908397,2.0152671,2.335878,6
1299,0.059570312,0.05291748,-0.0446167,0.8549618,2.259542,0.06870229,6
1300,0.05303955,0.046081543,-0.08850098,9.435115,4.4961834,-0.8015267,6
1301,0.04840088,0.044799805,-0.07702637,15.122137,5.1603055,-0.870229,6
1302,0.051635742,0.04272461,-0.10205078,12.984733,3.8396947,-3.59542,6
1303,0.05529785,0.036376953,-0.09918213,5.89313,2.816794,0.20610687,6
1304,0.051086426,0.035583496,-0.10021973,-6.6412215,2.687023,-0.66412216,6
1305,0.054382324,0.035583496,-0.074645996,-10.175572,6.40458,-0.5648855,6
1306,0.05596924,0.034851074,-0.09240723,-3.4351146,9.145039,1.9847329,6
1307,0.056396484,0.036376953,-0.06890869,11.007633,15.908397,7.4198475,6
1308,0.05682373,0.038269043,-0.057617188,8.641221,19.709923,4.70229,6
1309,0.061645508,0.041259766,-0.09106445,7.1221375,19.480917,4.9465647,6
1310,0.0602417,0.045898438,-0.09649658,10.053435,15.358779,0.9541985,6
1311,0.066833496,0.04437256,-0.10119629,9.068703,10.152672,-7.1984735,6
1312,0.062683105,0.041503906,-0.10272217,2.1068702,3.076336,-12.152672,6
1313,0.05291748,0.02911377,-0.08703613,-8.938931,1.7175573,-16.709923,6
1314,0.058044434,0.03869629,-0.05682373,-27.160305,-0.9847328,-22.877863,6
1315,0.059692383,0.050354004,-0.092163086,-28.908398,-0.41984734,-22.931297,6
1316,0.054870605,0.05230713,-0.07702637,-32.12214,-0.8549618,-28.328245,6
1317,0.060302734,0.048583984,-0.08300781,-26.458015,-3.0687022,-24.259542,6
1318,0.06048584,0.047851562,-0.09100342,-24.374046,-0.97709924,-28.12977,6
1319,0.056640625,0.047668457,-0.08227539,-22.709923,1.4045801,-28.877863,6
1320,0.05645752,0.046020508,-0.07318115,-6.3511453,0.129771,-23.603054,6
1321,0.055480957,0.046875,-0.035583496,11.511451,0.24427481,-17.496183,6
1322,0.052246094,0.045654297,-0.07946777,18.389313,0.5954198,-12.366412,6
1323,0.052368164,0.04510498,-0.0859375,9.396947,4.2366414,-12.78626,6
1324,0.04840088,0.048461914,-0.08862305,1.8854961,7.4274807,-9.824428,6
1325,0.049926758,0.047424316,-0.08959961,-5.6946564,11.351145,-7.038168,6
1326,0.049621582,0.049987793,-0.066467285,-4.816794,15.954199,-2.2748091,6
1327,0.05218506,0.04864502,-0.07684326,-6.3053436,19.137405,-1,6
1328,0.049560547,0.04675293,-0.051330566,-6.847328,23.76336,10.335877,6
1329,0.04864502,0.04510498,-0.08630371,-4.19084,24.160305,13.763359,6
1330,0.05670166,0.04437256,-0.062927246,5.885496,20.114504,21.694656,6
1331,0.06896973,0.044067383,-0.07751465,13.305344,7.2137403,25.366413,6
1332,0.067993164,0.039489746,-0.093322754,24.885496,-0.9465649,16.664122,6
1333,0.064208984,0.039245605,-0.0791626,39.664124,-4.9389315,-6.152672,6
1334,0.05859375,0.03503418,-0.074279785,49.50382,-2.2824428,-6.3893127,6
1335,0.06707764,0.040161133,-0.103759766,45.23664,-4.4961834,-7.1603055,6
1336,0.066711426,0.034362793,-0.09631348,29.183207,-7.4503818,0.21374045,6
1337,0.06726074,0.043701172,-0.015197754,1.1984733,-15.053435,-1.610687,6
1338,0.06951904,0.043029785,-0.061828613,-19.396946,-13.625955,-10.335877,6
1339,0.056518555,0.03338623,-0.09362793,-47.137405,-20.61832,35.572517,6
1340,0.06097412,0.046020508,-0.07897949,-70.76336,-18.022902,23.549618,6
1341,0.06414795,0.06561279,-0.08355713,-19.778625,-18.328245,-18.76336,6
1342,0.04852295,0.04071045,-0.09106445,11.305344,-17.89313,-8.206107,6
1343,0.060424805,0.03918457,-0.05493164,-10.358779,-13.885496,-12.480916,6
1344,0.05480957,0.046691895,-0.09893799,-2.7633588,-11.832061,-8.045801,6
1345,0.05645752,0.043701172,-0.10131836,-3.2290077,-6.4503818,-14.755725,6
1346,0.05090332,0.05316162,-0.10046387,-8.679389,0.77099234,-4.923664,6
1347,0.055603027,0.05480957,-0.06744385,0.5114504,3.8091602,-12.244275,6
1348,0.05505371,0.051635742,-0.037963867,7.3435116,5.8244276,-11.694656,6
1349,0.057617188,0.04321289,-0.080566406,-3.0152671,8.648855,-10.244275,6
1350,0.055786133,0.044799805,-0.08514404,-20.145039,13.175572,-10.175572,6
1351,0.05895996,0.04815674,-0.06854248,-29.74809,14.717557,-5.152672,6
1352,0.0625,0.060913086,-0.047546387,-30.984734,10.847328,-1.6259542,6
1353,0.06213379,0.06188965,-0.072143555,-16.74809,4.221374,-5.5343513,6
1354,0.058776855,0.05218506,-0.089538574,3.9007633,-2.0076337,-5.885496,6
1355,0.056152344,0.043029785,-0.04827881,12.793893,-6.9465647,-3.3664122,6
1356,0.04827881,0.035339355,-0.08288574,7.9389315,-9.679389,-5.9847326,6
1357,0.044677734,0.032287598,-0.087890625,-1.8244275,-7.6106873,-1.1526718,6
1358,0.041137695,0.039123535,-0.07501221,-7.6030536,-9.290076,-5.9770994,6
1359,0.04321289,0.047668457,-0.10101318,1.2900764,-8.854961,-5.0610685,6
1360,0.044311523,0.048095703,-0.0947876,19.946566,-12.992367,-1.2671756,6
1361,0.04638672,0.04650879,-0.08453369,36.007633,-15.59542,3.4580152,6
1362,0.0546875,0.048461914,-0.09710693,43.78626,-20.08397,9.183207,6
1363,0.055603027,0.039855957,-0.08483887,40.732826,-18.374046,6.7557254,6
1364,0.055786133,0.038330078,-0.04156494,16.74809,-16.312977,8.488549,6
1365,0.05871582,0.036987305,-0.09082031,-11.893129,-12.458015,0.34351146,6
1366,0.05670166,0.04827881,-0.028747559,-25.534351,-10.274809,-0.86259544,6
1367,0.051574707,0.05529785,-0.06951904,-27.175573,-10.877863,-1.1908396,6
1368,0.05444336,0.066833496,-0.074401855,-17.61832,-7.885496,-10.0992365,6
1369,0.051574707,0.062927246,-0.034301758,4.2519083,-3.7633588,-15.641221,6
1370,0.04736328,0.048583984,-0.066467285,14.9007635,2.5877862,-21.580153,6
1371,0.038513184,0.035095215,-0.07965088,7.923664,8.328244,-14.709924,6
1372,0.039245605,0.028869629,-0.09680176,-11.534351,13.244275,-9.893129,6
1373,0.043151855,0.034606934,-0.036499023,-23.404581,15.977099,-0.58778626,6
1374,0.048461914,0.043518066,-0.08886719,-15.984733,17.08397,11.022901,6
1375,0.045166016,0.04815674,-0.08862305,1.0687023,12.305344,13.603053,6
1376,0.052124023,0.05255127,-0.058166504,8.854961,9.045801,11.122137,6
1377,0.050720215,0.04864502,-0.07385254,6.633588,2.0992367,7.9847326,6
1378,0.05596924,0.04650879,-0.09136963,0.4427481,-3.4503818,3.4503818,6
1379,0.054260254,0.048339844,-0.08392334,-3.0687022,-5.183206,-5.80916,6
1380,0.051696777,0.04663086,-0.07067871,-5.038168,-7.4198475,-9.732824,6
1381,0.045654297,0.045532227,-0.056030273,-8.251908,-4.671756,-11.969465,6
1382,0.04815674,0.045288086,-0.06738281,-12.694656,2.59542,-15.862596,6
1383,0.04498291,0.054382324,-0.090148926,-22.213741,7.0229006,-19.06107,6
1384,0.051635742,0.051208496,-0.02520752,-21.87023,15.511451,-22.564886,6
1385,0.04949951,0.055847168,-0.06652832,-30.229008,12.0992365,-21.564886,6
1386,0.04888916,0.05822754,-0.07397461,-20.595419,10.717557,-15.106871,6
1387,0.049072266,0.051818848,-0.05218506,-14.893129,7.480916,-18.732824,6
1388,0.047790527,0.04449463,-0.09136963,-15.122137,4.1984735,-12.702291,6
1389,0.047790527,0.04663086,-0.09197998,-25.671755,2.8931298,-14.908397,6
1390,0.048706055,0.056762695,-0.06695557,-25.76336,2.8396947,-9.862596,6
1391,0.050109863,0.06311035,-0.08630371,-27.961832,1.9694656,-6.374046,6
1392,0.05267334,0.066833496,-0.083618164,-17.801527,-0.64122134,-7.0076337,6
1393,0.05480957,0.064331055,-0.07232666,-12.145039,0.33587787,-10.351145,6
1394,0.046325684,0.061828613,-0.06109619,-15.435115,0.58778626,-10.480916,6
1395,0.049194336,0.07043457,-0.052124023,-16.778625,0.36641222,-9.801527,6
1396,0.044433594,0.06512451,-0.07598877,-14.297709,2.9770992,-11.427481,6
1397,0.04626465,0.06549072,-0.04510498,-16.656488,3.7328243,-14.908397,6
1398,0.043029785,0.066467285,-0.06536865,-17.152672,4.0458016,-9.526717,6
1399,0.04248047,0.06390381,-0.03967285,-8.977099,3.5267177,-6.366412,6
1400,0.049316406,0.06866455,-0.07385254,7.80916,4.6106873,-3.2671757,6
1401,0.047790527,0.062805176,-0.05102539,11.389313,6.3435116,-4.328244,6
1402,0.048950195,0.06719971,-0.023376465,7.10687,6.5343513,-1.7175573,6
1403,0.055236816,0.064331055,-0.07122803,3.9160306,6.0610685,0.15267175,6
1404,0.048217773,0.063964844,-0.039794922,11.61832,5.0992365,3.6030533,6
1405,0.04638672,0.06213379,-0.06323242,21.91603,3.7175572,6.778626,6
1406,0.051086426,0.061279297,-0.06896973,24.908398,5.259542,9.992367,6
1407,0.053771973,0.05871582,-0.07342529,22.274809,2.832061,11.9007635,6
1408,0.051940918,0.05834961,-0.04522705,18.122137,2.29771,11.0992365,6
1409,0.052001953,0.060546875,-0.0814209,17.755726,-1.7709924,11.641221,6
1410,0.050048828,0.05987549,-0.097595215,18.610687,-2.8931298,11.122137,6
1411,0.056396484,0.053466797,-0.0881958,18.89313,-3,12.938931,6
1412,0.05529785,0.05505371,-0.061157227,18.404581,-4.29771,11.442748,6
1413,0.053100586,0.058898926,-0.07861328,16.580153,-7.6946564,6.6488547,6
1414,0.05230713,0.06390381,-0.055847168,2.1984732,-6.3893127,-5.2061067,6
1415,0.0501709,0.06286621,-0.045043945,-14.755725,-6.3511453,-16.709923,6
1416,0.049926758,0.057006836,-0.06982422,-29.832062,-2.5419848,-24.549618,6
1417,0.0501709,0.05114746,-0.076660156,-38.29771,5.7251906,-25.244274,6
1418,0.047668457,0.045166016,-0.04425049,-51.076336,12.519084,-23.603054,6
1419,0.051208496,0.044006348,-0.04425049,-83.770996,15.083969,-25.648855,6
1420,0.04437256,0.061767578,-0.03918457,-124.259544,15.664123,-15.21374,6
1421,0.0513916,0.07965088,-0.013183594,-136.7481,14.091603,-16.671755,6
1422,0.060791016,0.10437012,-0.035095215,-78.62595,1.2061069,-4.9083967,6
1423,0.05114746,0.093811035,-0.04827881,14.770992,-0.23664123,-6.9923663,6
1424,0.051452637,0.06774902,-0.04107666,33.15267,0.08396947,-1.3206106,6
1425,0.04626465,0.07495117,-0.07086182,1.1984733,-0.16793893,2.5267177,6
1426,0.047546387,0.0758667,-0.044067383,-3.8778627,2.8091602,6.335878,6
1427,0.054504395,0.080566406,-0.025939941,-5.8244276,5.854962,1.5572519,6
1428,0.05407715,0.08001709,-0.057739258,-2.3206108,8.091603,1.8396946,6
1429,0.053649902,0.080444336,-0.008911133,2.6259542,4.7862597,2.3816793,6
1430,0.05444336,0.08288574,-0.06677246,6.0839696,3.167939,1.8854961,6
1431,0.051879883,0.08001709,-0.035827637,5.6946564,1.8931298,-0.29007635,6
1432,0.053649902,0.08428955,-0.05053711,5.0916033,0.091603056,1.3358779,6
1433,0.051818848,0.08703613,-0.05078125,1.870229,1.8625954,-4.5267177,6
1434,0.05218506,0.084350586,-0.04748535,10.755725,0.9465649,-4.4885497,6
1435,0.051208496,0.077819824,-0.044433594,25.89313,3.4885497,-1.5419847,6
1436,0.05303955,0.07879639,-0.03491211,37.190838,5.2290077,0.9312977,6
1437,0.053771973,0.071899414,-0.043518066,45.717556,4.8778625,-0.08396947,6
1438,0.058288574,0.066589355,-0.019165039,48.572517,4.1297708,-2.053435,6
1439,0.049560547,0.06304932,-0.018188477,33.50382,5.931298,-2.6259542,6
1440,0.050720215,0.06439209,0.018005371,13.938931,9.458015,-2.778626,6
1441,0.05419922,0.068481445,-0.015686035,5.7633586,5.664122,-0.740458,6
1442,0.054260254,0.0690918,0.024963379,8.366412,5.2366414,-0.5496183,6
1443,0.05444336,0.070007324,-0.0657959,16.946566,0.48854962,0.8167939,6
1444,0.051757812,0.06439209,-0.047546387,33.34351,-4.8244276,9.770992,6
1445,0.055664062,0.064086914,-0.05731201,42.809162,-9.0992365,12.7786255,6
1446,0.054016113,0.06329346,-0.020202637,47.61832,-6.557252,9.671756,6
1447,0.053100586,0.057128906,-0.06878662,37.76336,-5.7480917,7.40458,6
1448,0.05230713,0.055358887,-0.043701172,16.030535,-2.0610688,3.961832,6
1449,0.05633545,0.056030273,-0.016723633,-1.4580153,1.3206106,-0.7480916,6
1450,0.051757812,0.06048584,-0.024963379,-6.183206,1.29771,-2.351145,6
1451,0.05505371,0.0602417,-0.045532227,-2.816794,0.67175573,-7.152672,6
1452,0.05279541,0.05731201,-0.06903076,2.534351,1.740458,-9.541985,6
1453,0.055725098,0.05505371,-0.03277588,3.335878,2.8091602,-7.0076337,6
1454,0.052124023,0.05065918,-0.06011963,2.5267177,2.9694657,-5.5267177,6
1455,0.051696777,0.05230713,-0.07348633,-0.5114504,-0.6946565,-0.32061067,6
1456,0.052368164,0.05053711,-0.03186035,-0.519084,-0.77099234,-0.27480915,6
1457,0.05267334,0.057678223,-0.02520752,-0.22137405,-0.84732825,1.5801526,6
1458,0.052001953,0.05987549,-0.03845215,2.687023,-1.4274809,0.030534351,6
1459,0.05328369,0.059143066,-0.036987305,-2.2442749,0.14503817,0.4351145,6
1460,0.047851562,0.05718994,-0.038024902,-5.7938933,2.6564887,0.24427481,6
1461,0.054870605,0.059265137,-0.07299805,-6.1755724,2.1450381,-1.0839695,6
1462,0.05407715,0.058654785,-0.038513184,0.8854962,2.038168,-1.3129771,6
1463,0.05706787,0.055419922,-0.035461426,6.557252,0.65648854,-3.70229,6
1464,0.056396484,0.057373047,-0.024475098,6.6412215,4.0534353,-0.9236641,6
1465,0.059814453,0.054504395,-0.0637207,5.1374044,1.7557251,-0.15267175,6
1466,0.052612305,0.05731201,-0.07043457,7.1679387,0.35877863,1.3053435,6
1467,0.051879883,0.055603027,-0.09698486,9.961832,-0.519084,2.0458016,6
1468,0.05621338,0.059814453,-0.03149414,13.923664,-1.0305344,3.0229008,6
1469,0.056030273,0.054626465,-0.044433594,13.412213,-1.6030535,0.78625953,6
1470,0.0592041,0.052124023,-0.020629883,7.4274807,2.1221373,-3.29771,6
1471,0.06451416,0.05432129,-0.08001709,-3.0305343,-1.6183206,-2.9389312,6
1472,0.054260254,0.056274414,-0.0546875,-5.6412215,4.0229006,-6.038168,6
1473,0.055786133,0.052001953,-0.0036621094,-2.1526718,2.480916,-20.053434,6
1474,0.05255127,0.05682373,-0.014404297,-1.8167939,3.0305343,-16.816793,6
1475,0.050842285,0.054992676,-0.0569458,-6.4656487,11.358779,-7.3511453,6
1476,0.059143066,0.05999756,-0.09088135,-14.687023,12.083969,-4.1755724,6
1477,0.054992676,0.057556152,-0.042297363,-8.335877,11.832061,-1.5267175,6
1478,0.05645752,0.057434082,-0.010986328,1.6335878,7.259542,5.8320613,6
1479,0.05834961,0.0579834,-0.0713501,-0.9312977,4.6793895,-14.045801,6
1480,0.058288574,0.04925537,-0.023864746,7.145038,0.52671754,-0.41984734,6
1481,0.060791016,0.055603027,-0.056030273,3.3969467,-1.0458015,-0.8549618,6
1482,0.06072998,0.057128906,-0.0107421875,2.8931298,-0.061068702,-3.038168,6
1483,0.053100586,0.05859375,-0.022949219,8.427481,-3.2366412,-0.22137405,6
1484,0.05871582,0.05267334,-0.055603027,-3.427481,-2.0152671,9.870229,6
1485,0.05529785,0.0657959,-0.020385742,-8.229008,2.7328243,-1.0687023,6
1486,0.05279541,0.059387207,-0.05041504,7.038168,3.129771,1.4427481,6
1487,0.053344727,0.051940918,-0.025146484,-1.2061069,2.0305343,-7.0534353,6
1488,0.05871582,0.053955078,-0.052001953,0.8549618,-1.221374,-1.0839695,6
1489,0.06097412,0.05407715,-0.0072021484,-3.7557251,-0.259542,-3.7328243,6
1490,0.055603027,0.05834961,-0.003540039,1.1984733,1.778626,-2.8625953,6
1491,0.05895996,0.053344727,-0.068237305,0.06870229,3.3587787,1.7099236,6
1492,0.055358887,0.052490234,-0.023254395,0.3740458,0.3816794,-2.8549619,6
1493,0.055664062,0.056152344,-0.028320312,0.007633588,0.26717559,-0.96183205,6
1494,0.05340576,0.05657959,-0.012329102,-0.36641222,1.167939,-3.0229008,6
1495,0.05871582,0.060302734,-0.026489258,-2.0839694,2.3206108,-1.5038168,6
1496,0.05731201,0.059326172,-0.0001831055,0,3.7328243,-4.8778625,6
1497,0.058410645,0.055541992,-0.026123047,2.4122138,3.7328243,-4.2061067,6
1498,0.05895996,0.050842285,0.0021362305,3.1755726,3.1145039,0.16793893,6
1499,0.05621338,0.04864502,-0.06402588,-2.9389312,-0.48854962,1.091603,6
1500,0.059387207,0.053833008,-0.0049438477,-5.038168,-2.519084,2.076336,6
1501,0.055236816,0.0546875,-0.04296875,-2.6335878,-2.1145039,0.27480915,6
1502,0.05871582,0.056518555,-0.0012207031,2.9007633,-1.1526718,2.687023,6
1503,0.059387207,0.056640625,-0.032104492,2.2900763,-1.5114504,-0.47328246,6
1504,0.057250977,0.053222656,-0.0021972656,12.2595415,-3.6259542,4.2442746,6
1505,0.056152344,0.05065918,-0.023925781,1.5114504,-0.45038167,0.9847328,6
1506,0.05718994,0.052001953,-0.0099487305,1.1374046,-1.7709924,3.8015268,6
1507,0.055847168,0.05340576,-0.026489258,1.8473282,-0.10687023,2.129771,6
1508,0.057556152,0.054870605,-0.018310547,3.572519,-1.5343511,1.4732825,6
1509,0.05822754,0.052001953,-0.009033203,4.5343513,-0.48091602,-0.45038167,6
1510,0.059753418,0.051696777,-0.019226074,0.29007635,-0.58778626,1.2748091,6
1511,0.054870605,0.05267334,-0.05480957,-1.5496184,-1.7709924,-1.8778626,6
1512,0.054504395,0.0513916,-0.005432129,-1.167939,-0.35114503,-3.557252,6
1513,0.053894043,0.052368164,-0.02178955,-0.9847328,0.03816794,-2.2366412,6
1514,0.05291748,0.056152344,-0.024475098,2.3053436,-0.7557252,-6.885496,6
1515,0.058776855,0.05419922,0.01574707,-2.923664,0.6183206,-10.908397,6
1516,0.053894043,0.055725098,0.0021362305,5.2442746,1.129771,-14.435115,6
1517,0.051635742,0.04724121,-0.044921875,-8.038168,1.1450381,-5.3893127,6
1518,0.05999756,0.048828125,-0.0028076172,-20.877863,1.389313,-3.793893,6
1519,0.055236816,0.052246094,-0.023986816,-14.122137,0.73282444,-10.816793,6
1520,0.058898926,0.053955078,-0.03137207,-3.40458,0.83206105,-13.946565,6
1521,0.05645752,0.052612305,-0.0049438477,5.4274807,2.534351,-23.48855,6
1522,0.047729492,0.05609131,0.006652832,6.7633586,8.167939,-6.519084,6
1523,0.05419922,0.058410645,-0.012756348,-0.55725193,9.2213745,3,6
1524,0.052001953,0.058044434,-0.037902832,-2.870229,5.1603055,5.6412215,6
1525,0.05419922,0.053894043,-0.008239746,-7.442748,4.2366414,-0.8549618,6
1526,0.057556152,0.050964355,-0.038085938,-16.473282,4.328244,-6.1984735,6
1527,0.053649902,0.051574707,-0.010070801,-16.358778,3.183206,-5.8244276,6
1528,0.057739258,0.059570312,-0.015808105,-7.80916,1.4503816,-3.6946564,6
1529,0.05718994,0.060302734,-0.035705566,-1.0534351,1.4198474,-1.221374,6
1530,0.056274414,0.05682373,-0.010620117,1.9007634,0.9465649,-3.1984732,6
1531,0.05822754,0.055480957,-0.06359863,-0.54198474,2.0305343,-1.6641221,6
1532,0.054504395,0.053344727,-0.014709473,-0.52671754,3.3587787,-2.3740458,6
1533,0.057739258,0.05895996,-0.009033203,-0.06870229,2.0152671,-5.0305343,6
1534,0.056640625,0.05432129,-0.0065307617,-0.64122134,1.389313,-5.5801525,6
1535,0.06488037,0.0569458,-0.03137207,-3.4580152,2.3053436,-2.557252,6
1536,0.05493164,0.057006836,-0.047729492,-4.587786,4.328244,-2.442748,6
1537,0.06085205,0.05633545,-0.022155762,-5.7557254,2.465649,-5.9160304,6
1538,0.056396484,0.056518555,0.0017089844,-4.633588,3.70229,-5.9541984,6
1539,0.059814453,0.05706787,-0.0126953125,-1.8473282,3.1755726,-5.29771,6
1540,0.05871582,0.058044434,-0.041381836,2.6946564,0.2977099,-3.0305343,6
1541,0.058044434,0.049682617,-0.09106445,-0.648855,0.8778626,-1.7709924,6
1542,0.059753418,0.060058594,0.03564453,-1.5114504,2.1450381,-4.1603055,6
1543,0.057128906,0.057922363,0.013244629,-0.8167939,2.5877862,-3.0305343,6
1544,0.057006836,0.057739258,-0.02746582,0.015267176,0.29007635,-1.7633588,6
1545,0.05633545,0.057006836,-0.031311035,0.48091602,0.46564886,-0.022900764,6
1546,0.057250977,0.058532715,0.008728027,-1.29771,0.96183205,-1.9312977,6
1547,0.058654785,0.058776855,0.015258789,0.99236643,1.4122137,-13.198473,6
1548,0.05517578,0.053771973,-0.042907715,4.3053436,-0.4427481,-4.89313,6
1549,0.053833008,0.060180664,-0.015075684,-2.053435,1.0076336,-5.7633586,6
1550,0.057373047,0.056518555,0.0071411133,0.6870229,1.1221374,-9.496183,6
1551,0.05987549,0.053955078,-0.0256958,-0.099236645,0.6183206,-5.671756,6
1552,0.057128906,0.055725098,0.0036621094,-0.96183205,0.10687023,-7.114504,6
1553,0.05895996,0.05834961,-0.011230469,-0.06870229,0.66412216,-4.7938933,6
1554,0.056762695,0.055114746,0.01171875,0.79389316,0.610687,-6.625954,6
1555,0.056884766,0.055847168,-0.030761719,0.6870229,0.9236641,-2.534351,6
1556,0.057556152,0.05718994,0.01184082,1.6412214,1.4122137,-5.4885497,6
1557,0.056762695,0.05633545,-0.018005371,1.4045801,3.534351,-4.740458,6
1558,0.0579834,0.061401367,0.009460449,2.572519,1.3206106,-2.4503818,6
1559,0.057739258,0.0602417,0.031677246,2.29771,0.46564886,-4.1221375,6
1560,0.05657959,0.055114746,0.031433105,2.8244274,0.22137405,-2.832061,6
1561,0.05718994,0.056396484,0.016174316,1.1984733,-0.19847329,-2.7480917,6
1562,0.05657959,0.05670166,-0.018737793,-0.36641222,0.519084,-3.664122,6
1563,0.05480957,0.057373047,0.009765625,0.20610687,-0.5801527,-5.076336,6
1564,0.053894043,0.051635742,0.000793457,1.4122137,0.20610687,-5.3053436,6
1565,0.055236816,0.055603027,-0.025512695,-3.946565,2.1984732,-3.9770992,6
1566,0.055847168,0.0592041,-0.020202637,-0.16030534,1.610687,-4.8320613,6
1567,0.055541992,0.054626465,0.008728027,2.2671757,0.8549618,-4.89313,6
1568,0.056152344,0.058166504,0.002746582,0.3129771,2.740458,-4.89313,6
1569,0.05645752,0.05895996,0.015991211,-2.6412213,2.167939,-2.8549619,6
1570,0.056396484,0.059326172,0.06262207,-0.67175573,2.335878,-3.9847329,6
1571,0.057128906,0.055114746,0.006225586,-1.6259542,1.4580153,-7.076336,6
1572,0.05822754,0.05682373,0.010559082,-0.26717559,0.39694658,-5.885496,6
1573,0.05480957,0.055541992,-0.023864746,0.015267176,1.8549619,-4.1984735,6
1574,0.057250977,0.0546875,0.013061523,-1.2442749,1.6946565,-5.847328,6
1575,0.05456543,0.055114746,-0.0002441406,-0.4427481,0.84732825,-4.5648856,6
1576,0.059387207,0.056396484,0.045166016,0.20610687,1.1603054,-3.3664122,6
1577,0.058166504,0.056884766,-0.018188477,-2.3664122,1.2290076,-4.2900763,6
1578,0.057922363,0.05505371,-0.041748047,-1.0152671,1.6335878,-5.5267177,6
1579,0.05883789,0.05621338,-0.0018310547,-2.312977,2.687023,-2.0076337,6
1580,0.057006836,0.0579834,0.01727295,1.1603054,1.6412214,-0.4274809,6
1581,0.057495117,0.056274414,-0.025817871,-0.8396947,2.076336,-1.0839695,6
1582,0.052368164,0.056640625,0.007080078,-0.8854962,-0.091603056,-3.9847329,6
1583,0.05987549,0.05810547,-0.047729492,-1.9694656,-0.7633588,-5.1374044,6
1584,0.059143066,0.05718994,-0.029846191,-1.648855,0.35114503,-3.5648854,6
1585,0.051879883,0.059326172,0.009033203,-1.5572519,0.015267176,-2.8396947,6
1586,0.059448242,0.059936523,-0.0126953125,-0.64122134,-0.41984734,-5.3587785,6
1587,0.052368164,0.057556152,-0.027954102,-0.54198474,-1.351145,-6.2442746,6
1588,0.05267334,0.056152344,0.054992676,-2.8396947,-0.7557252,-7.7175574,6
1589,0.05517578,0.057434082,-0.0010986328,-3.870229,0.57251906,-2.908397,6
1590,0.056762695,0.06036377,0.010803223,-1.0763359,0.6793893,-5.038168,6
1591,0.055114746,0.05419922,-0.0036621094,0.45038167,2.1984732,-5.3969464,6
1592,0.053100586,0.057495117,-0.036987305,-1.7175573,0.90076333,-2.7633588,6
1593,0.052001953,0.057678223,-0.014465332,-1.832061,1.1450381,-1.389313,6
1594,0.058044434,0.05609131,-0.019226074,-1.519084,1.3969465,-2.2519083,6
1595,0.059265137,0.056152344,-0.0015258789,-0.3740458,0.89312977,-3.335878,6
1596,0.060302734,0.055480957,-0.0146484375,-1.1068702,0.7099237,-5.2519083,6
1597,0.05407715,0.061340332,-0.058898926,0.16030534,2.8015268,-0.648855,6
1598,0.053527832,0.059020996,0.03253174,-1.6870229,2.0152671,-3.8931298,6
1599,0.05670166,0.060913086,0.01739502,-1.2366412,0.870229,-2.1755726,6
1600,0.055908203,0.05517578,0.023742676,-0.99236643,0.9847328,-3.2442749,6
1601,0.057617188,0.06011963,0.016479492,-0.8167939,1.6717557,-3.2824428,6
1602,0.059020996,0.059509277,-0.027770996,-1.1221374,2.2900763,-5.961832,6
1603,0.059692383,0.057495117,0.026123047,-1.9694656,2.167939,-4.3816795,6
1604,0.05517578,0.055725098,-0.032287598,4.4580154,-3.3587787,-3.9160306,6
1605,0.055480957,0.051208496,-0.023376465,9.625955,-4,-0.84732825,6
1606,0.052612305,0.05517578,-0.09564209,20.709923,-9.977099,10.274809,6
1607,0.050048828,0.05218506,0.009155273,30.229008,-10.076336,12.816793,6
1608,0.061706543,0.057434082,0.033569336,23.32061,-9.549619,18.160305,6
1609,0.0625,0.056762695,-0.028747559,24.206106,-10.587787,11.061069,6
1610,0.06048584,0.04736328,-0.0036010742,15.648855,-7.038168,4.3129773,6
1611,0.056152344,0.04522705,0.0029296875,-2.129771,-6.412214,2.7328243,6
1612,0.052124023,0.053649902,0.015197754,-10.541985,-1.5954199,3.1755726,6
1613,0.050598145,0.05645752,-0.030822754,-9.061069,4.0534353,-3.1755726,6
1614,0.051330566,0.056030273,0.051757812,1.0229008,6.80916,-0.9312977,6
1615,0.059448242,0.052001953,-0.024414062,9.572519,6.854962,-3.389313,6
1616,0.053527832,0.047729492,-0.0099487305,15.610687,7.519084,-4.70229,6
1617,0.053710938,0.04437256,0.008666992,6.4198475,5.1984735,-5.961832,6
1618,0.053894043,0.044555664,-6.1035156E-05,0.33587787,1.129771,-4.2442746,6
1619,0.057556152,0.049682617,0.011352539,-3.4122138,-0.79389316,-4.6946564,6
1620,0.061157227,0.0491333,-0.021240234,-1.870229,-2.4732823,-5.633588,6
1621,0.061462402,0.04638672,0.012329102,-1.1145039,-3.4732823,-6.7938933,6
1622,0.06011963,0.048950195,-0.0018310547,-0.2977099,-3.1755726,-6.2290077,6
1623,0.055603027,0.04949951,-0.008422852,0.091603056,-0.54198474,-5.0839696,6
1624,0.054138184,0.044921875,0.036315918,2.1526718,4.1374044,-3.923664,6
1625,0.05657959,0.05126953,0.03692627,3.7175572,7.5419846,1.8015267,6
1626,0.054016113,0.052856445,0.021118164,10.503817,5.1984735,4.183206,6
1627,0.06060791,0.04736328,0.0031738281,14.2213745,4.5801525,7.8396945,6
1628,0.058410645,0.040771484,0.03692627,14.290076,-0.8091603,6.2519083,6
1629,0.059143066,0.038208008,-0.014160156,7.0839696,-1.9465649,6.6793895,6
1630,0.05822754,0.03967285,0.050964355,1.4122137,-3.793893,6.1755724,6
1631,0.059265137,0.039794922,0.0049438477,-3.2137403,-5.3969464,9.755725,6
1632,0.058044434,0.040222168,0.023132324,-6.2748094,-8.19084,10.519084,6
1633,0.054504395,0.040771484,0.032409668,-5.5648856,-14.328244,9.206107,6
1634,0.053344727,0.041870117,0.041259766,-5.145038,-13.389313,8.21374,6
1635,0.05053711,0.043884277,0.022888184,-4.1374044,-12.335877,4.6412215,6
1636,0.04864502,0.05065918,0.037963867,-3.335878,-11.748092,2.6259542,6
1637,0.053649902,0.049743652,0.035827637,-3.7862597,-8.335877,4.3893127,6
