2019-05-23_22-09-48_Accelerometer
measurement,Acc_X,Acc_Y,Acc_Z,Gyr_X,Gyr_Y,Gyr_Z,Label
0,-0.050964355,-0.23175049,-0.019714355,-72.23664,54.84733,-69.16794,1
1,-0.018371582,-0.21240234,-2.4414062E-04,2.1450381,-1.1374046,-102.65649,1
2,0.019592285,-0.16278076,0.026977539,81.16031,-54.267174,-141.64122,1
3,0.051757812,-0.14050293,0.020263672,49.74046,-43.21374,-147.03816,1
4,0.03942871,-0.15710449,-0.0061035156,60.27481,37.29771,-154.73282,1
5,-0.011230469,-0.11828613,-0.030761719,118.56489,31.435114,-212.45038,1
6,-0.013061523,-0.12023926,-0.057128906,144.8626,46.290077,-235.35878,1
7,-0.04547119,-0.13537598,-0.078552246,180.98473,90.099236,-250.1374,1
8,-0.08557129,-0.1852417,-0.11663818,181.80916,94,-250.1374,1
9,-0.14703369,-0.2937622,-0.17077637,184.48856,66.30534,-250.1374,1
10,-0.20111084,-0.33398438,-0.14727783,185.1374,72.29008,-250.1374,1
11,-0.234375,-0.32763672,-0.14135742,99.57252,119.900764,-250.1374,1
12,-0.2532959,-0.23858643,-0.13702393,146.38931,146.0458,-250.1374,1
13,-0.19354248,-0.10876465,-0.08380127,186.69466,158.17557,-250.1374,1
14,-0.11456299,0.0138549805,-0.03552246,90.80916,218.73282,-150.229,1
15,-0.10119629,0.054992676,-0.031555176,70.56489,228.50381,-109.8855,1
16,-0.121398926,0.10595703,-0.0211792,42.030533,217.47328,-76.25191,1
17,-0.13439941,0.115722656,-0.027648926,-28.984734,127.07633,-32.030533,1
18,-0.09802246,0.111206055,0.019226074,-35.82443,47.549618,12.465649,1
19,-0.089416504,0.093933105,0.012084961,-73.83206,7.442748,70.67175,1
20,-0.11633301,0.054016113,0.02130127,-79.47328,-38.419846,123.45038,1
21,-0.10827637,-0.016052246,0.026000977,-81.37405,-87.503815,169.00763,1
22,-0.21136475,-0.4024048,-0.07861328,-93.778625,-160.6565,234.29007,1
23,-0.12994385,-0.47491455,-0.07281494,-250.1374,-126.824425,174.30534,1
24,-0.09051514,-0.40795898,-0.076171875,-187.43512,-113.419846,61.34351,1
25,6.1035156E-04,-0.25756836,0.0138549805,-87.51145,-119.24428,26.503817,1
26,0.027893066,-0.18127441,0.024108887,-120.27481,-143.58015,51.694656,1
27,0.08099365,-0.07891846,0.027893066,-129.35878,-159.70229,18.076336,1
28,0.09716797,-0.097351074,0.021911621,-20.480917,-96.87786,10.839695,1
29,0.093322754,-0.041809082,0.05041504,69.64886,-58.70229,-24.305344,1
30,0.10687256,-0.0126953125,0.045166016,51.82443,-63.23664,-56.114502,1
31,0.119018555,-0.013549805,0.019714355,36.427483,-5.9007635,-79.40458,1
32,0.10430908,-0.031921387,-0.00970459,25.885496,105.92367,-91.15267,1
33,0.08154297,-0.1126709,-0.0178833,-5.6488547,130.41985,-92.08397,1
34,0.10369873,-0.3399048,-0.07952881,-37.946564,84.35114,-31.458015,1
35,-0.07110596,-0.57580566,-0.31341553,36.64122,250.12978,5.374046,1
36,-0.21154785,-0.45147705,-0.11505127,250.12978,88.8855,-222.0458,1
37,-0.12414551,-0.29833984,-0.19970703,161.91603,187.37404,-211.03816,1
38,-0.15802002,-0.17449951,-0.10369873,134.77863,250.12978,-230.46565,1
39,-0.11999512,-0.045959473,-0.10021973,-27.603054,81.07633,-214.05344,1
40,-0.07122803,-0.040161133,-0.048583984,-214.67938,118.20611,-143.29771,1
41,-0.08917236,-0.04333496,-0.010864258,-84.183205,153.16031,-89.36641,1
42,-0.09899902,0.016540527,0.009643555,43.687023,180.33588,-29.694656,1
43,-0.11218262,0.06829834,0.0051879883,122.66412,186.70993,1.0076336,1
44,-0.11669922,0.09844971,-0.0021972656,141.40459,128.771,12.709924,1
45,-0.09869385,0.115600586,-0.014953613,79.60305,22.312977,38.53435,1
46,-0.11242676,0.11602783,-0.011108398,-64.51908,-69.175575,83.05344,1
47,-0.111206055,0.0625,-0.0053710938,-146.229,-116.69466,130.0229,1
48,-0.12591553,-0.070495605,-0.040100098,-184.94656,-146.94656,201.45801,1
49,-0.2850952,-0.35144043,-0.10021973,-250.1374,-233.30534,250.12978,1
50,-0.12060547,-0.559021,-0.19299316,54.91603,-141.09924,212.77863,1
51,-0.14416504,-0.45074463,-0.023376465,-64.0229,-49.282444,80.68702,1
52,-0.066833496,-0.37854004,-0.005432129,83.23664,-65.32825,58.74046,1
53,0.0051879883,-0.22515869,0.037353516,125.67175,-140.41985,75.15267,1
54,0.020996094,-0.09613037,0.06451416,-20.977098,-135.25954,108.60305,1
55,0.022216797,-0.09509277,0.08294678,-250.1374,-250.03816,4.625954,1
56,0.06890869,-0.13195801,-0.006591797,-174.08397,-203.41222,-24.343512,1
57,0.099853516,-0.050842285,0.052001953,-91.07633,-192.66412,-64.32825,1
58,0.12023926,-0.03942871,0.030639648,-16.244274,-30.885496,-78.21374,1
59,0.109802246,-0.036010742,0.023254395,56.35878,-6.9389315,-98.24428,1
60,0.1149292,-0.030517578,-0.0038452148,97.37405,33.923664,-131.29771,1
61,0.12054443,-0.08880615,-0.012084961,1.6412214,109.64122,-130.57253,1
62,0.13098145,-0.2543335,-0.05419922,-116.32061,95.0687,-100.175575,1
63,0.032714844,-0.5383301,-0.23815918,-204.12978,238.8626,-46.633587,1
64,-0.109680176,-0.49609375,-0.14031982,250.12978,191.0458,-239.9771,1
65,-0.06591797,-0.32061768,-0.07659912,142.37404,131.08397,-250.1374,1
66,-0.101135254,-0.099365234,-0.053100586,122.76336,58.34351,-226.31297,1
67,-0.06939697,-0.025024414,-0.043884277,-99.70229,53.732826,-150.29007,1
68,-0.07055664,-0.03375244,-0.0071411133,-62.412212,114.419846,-79.9771,1
69,-0.10284424,0.027709961,0.013671875,15.541985,132.36641,-21.206106,1
70,-0.11352539,0.07672119,0.007751465,42.25954,153.18321,21.541985,1
71,-0.12158203,0.10406494,0.026367188,75.32061,157.0687,53.633587,1
72,-0.13867188,0.083496094,-0.0010986328,71.19084,90.259544,101.84733,1
73,-0.13909912,0.06726074,-0.02319336,32.312977,-4.480916,164.68703,1
74,-0.14245605,-0.024963379,-0.016235352,-83.099236,-62.129772,208.63359,1
75,-0.14819336,-0.27020264,-0.006591797,-148.25954,-162.9313,250.12978,1
76,-0.1531372,-0.4237671,-0.08453369,-97.824425,-165.17557,246.82443,1
77,-0.085510254,-0.4539795,-0.046203613,-111.79389,-132.51144,183.9771,1
78,-0.06011963,-0.37402344,-0.01550293,-101.618324,-108.145035,125.259544,1
79,-0.0064697266,-0.2559204,0.014221191,-37.40458,-134.32825,97.00764,1
80,0.02532959,-0.15533447,0.062072754,-74,-103.145035,152.51909,1
81,0.041809082,-0.07318115,0.018554688,-53.427483,-114.79389,121.16031,1
82,0.05230713,-0.06549072,0.082336426,-218.58015,-126.07633,22.38168,1
83,0.07897949,-0.124938965,0.019104004,-49.61832,-141.47328,-4.3893127,1
84,0.12023926,-0.055603027,0.06048584,67.47328,-108.07633,-3.389313,1
85,0.14666748,-0.020568848,0.050720215,52.282444,-125.71756,-46.839695,1
86,0.16741943,-0.016906738,-0.0057373047,8.59542,-24.946566,-70.83969,1
87,0.114746094,-0.33862305,-0.047973633,-133.29771,58.49618,-30.725191,1
88,-0.052490234,-0.6185913,-0.32769775,-43.267174,241.32062,-14.770992,1
89,-0.14642334,-0.44683838,-0.11053467,250.12978,149.40459,-237.52672,1
90,-0.08496094,-0.30651855,-0.111572266,115.83206,142.30534,-234.71756,1
91,-0.16290283,-0.24871826,-0.13665771,113.381676,218.57253,-217.6565,1
92,-0.074523926,-0.0115356445,-0.047058105,-204,-13.305344,-200.03816,1
93,-0.05505371,-0.074645996,-0.025146484,-153.19847,91.73283,-120.0458,1
94,-0.1116333,0.01373291,0.007873535,44.290077,99.229004,-49.48855,1
95,-0.10583496,0.0848999,0.021362305,43.91603,126.061066,0.9465649,1
96,-0.114990234,0.091918945,0.012756348,15.0992365,175.62596,62.10687,1
97,-0.12322998,0.09039307,-0.018554688,58.74046,173.07634,116.42748,1
98,-0.14526367,0.109375,-0.014526367,-10.839695,97.091606,166.46565,1
99,-0.16082764,0.07623291,-0.018127441,-133.0458,9.519084,201.19847,1
100,-0.15240479,-0.06604004,-0.008972168,-173.19847,-65.70229,210.00763,1
101,-0.22607422,-0.24749756,-0.07635498,-250.1374,-129.87787,250.12978,1
102,-0.2536621,-0.49084473,-0.17156982,-250.1374,-229.55725,236.45038,1
103,-0.15002441,-0.48571777,-0.16925049,-223.29771,-112.19847,87.64886,1
104,-0.11291504,-0.32104492,-0.05908203,-125.57252,-92.32825,38.809162,1
105,-0.028686523,-0.22174072,-0.038330078,-117.28244,-167.41985,9.045801,1
106,0.016235352,-0.17669678,-0.018615723,-147.58015,-108.51145,30.473282,1
107,0.007080078,-0.12683105,-0.0020751953,-126.48855,-68.32825,19.61832,1
108,0.03387451,-0.12200928,0.026672363,-142.64885,-122.60305,-6.7709923,1
109,0.04309082,-0.12011719,0.047180176,-4.9541984,-118.778625,-11.648855,1
110,0.07495117,-0.070129395,0.06335449,119.25191,-123.9771,3.6412213,1
111,0.09680176,-0.03729248,0.07348633,59.59542,-106.27481,-44.045803,1
112,0.11871338,-0.036865234,0.04156494,73.061066,-31.465649,-53.908398,1
113,0.12890625,-0.0423584,0.041931152,28.08397,23.053434,-87.52672,1
114,0.12084961,-0.10821533,0.037841797,-14.755725,89.67939,-83.32061,1
115,0.045166016,-0.44348145,-0.13726807,-105.60305,55.183205,-43.053436,1
116,-0.14703369,-0.6248779,-0.3552246,185.38168,181.771,-21.412214,1
117,-0.19799805,-0.4335327,-0.19628906,250.12978,45.190838,-187.68703,1
118,-0.25427246,-0.2642212,-0.19561768,250.12978,250.12978,-115.84733,1
119,-0.24243164,-0.09490967,-0.17401123,234.16794,41.85496,-191.0687,1
120,-0.13720703,0.0016479492,-0.053100586,27.641222,-26.183207,-250.1374,1
121,-0.11364746,-0.014282227,-0.029968262,-210.36641,72.79389,-168.7939,1
122,-0.13305664,-0.0032348633,-0.034606934,2.3206108,43.335876,-130.60306,1
123,-0.0925293,0.09942627,0.006591797,73.28244,17.076336,-59.603054,1
124,-0.11187744,0.11743164,-0.0040283203,14.938931,39.23664,16.213741,1
125,-0.08868408,0.09448242,-0.0115356445,-36.564884,11.0992365,76.79389,1
126,-0.07672119,0.07409668,-0.025390625,-82.8855,2.351145,146.91603,1
127,-0.09777832,0.062194824,-0.0018310547,-131.64885,-5.442748,192.77863,1
128,-0.27557373,-0.2841797,-0.123413086,-250.1374,-98.740456,250.12978,1
129,-0.31134033,-0.56695557,-0.33087158,-241.25954,-250.1374,234.74046,1
130,-0.1508789,-0.43792725,-0.076538086,19.08397,-24.29771,52.61832,1
131,-0.14611816,-0.29675293,-0.0725708,-233.3435,-51.038166,64.9542,1
132,-0.022277832,-0.27844238,-0.056274414,-178.38168,-226.87787,5.4274807,1
133,0.037963867,-0.23724365,-0.040161133,-117.27481,-87.00764,43.900764,1
134,0.021484375,-0.17980957,0.0029907227,-88.061066,-140.6565,-34.427483,1
135,0.079589844,-0.15960693,0.024597168,-213.78625,-183.9084,-15.2595415,1
136,0.11224365,-0.15258789,0.0071411133,3.6717558,-123.87786,-32.160305,1
137,0.1227417,-0.08843994,0.028137207,54.15267,-104.37405,-61.450382,1
138,0.13726807,-0.04071045,0.045043945,44,-70.9542,-69.503815,1
139,0.13122559,-0.047058105,0.04321289,6.664122,50.20611,-38.53435,1
140,0.09051514,-0.07324219,0.022155762,73.26717,101.816795,-87.580154,1
141,0.06048584,-0.08502197,-0.002746582,51.84733,123.73283,-121.07633,1
142,0.053344727,-0.20996094,-0.06097412,-8.274809,161.26718,-92.9771,1
143,-0.07183838,-0.50042725,-0.19458008,-149.64885,172.54962,-69.46565,1
144,-0.22265625,-0.49365234,-0.32318115,250.12978,197.1145,-106.32825,1
145,-0.20391846,-0.24700928,-0.22509766,250.12978,213.61832,-188.22137,1
146,-0.18609619,-0.12841797,-0.1661377,-3.6183207,181.51909,-197.38931,1
147,-0.1126709,-0.1060791,-0.12030029,-65.496185,39,-163.55725,1
148,-0.041809082,-0.064331055,-0.013244629,56.23664,154.05344,-117.72519,1
149,-0.09814453,-0.020141602,-0.011657715,87.99236,175.21375,-51.49618,1
150,-0.07141113,0.014404297,-0.02331543,181.0229,170.37404,-14.755725,1
151,-0.085998535,0.08862305,-0.053222656,250.12978,202.09924,21.480917,1
152,-0.14300537,0.15856934,-0.041809082,181.80916,45.282444,-3.3740458,1
153,-0.08203125,0.124938965,-0.033691406,-71.48092,-72.35114,13.885496,1
154,-0.08898926,0.06384277,-0.038085938,-132.08397,-98.221375,58.61832,1
155,-0.08709717,0.05041504,-0.038330078,-179.51909,-105.63359,100.1145,1
156,-0.056152344,-0.018920898,-0.01373291,-250.1374,-98.145035,154.32062,1
157,-0.115722656,-0.040649414,-0.0134887695,-113.03817,-78.89313,199.19084,1
158,-0.18597412,-0.17047119,-0.03955078,-168.63359,-65.618324,247.78625,1
159,-0.28686523,-0.44470215,-0.16571045,-250.1374,-114.259544,250.12978,1
160,-0.15112305,-0.36450195,-0.008239746,-85.67175,-105.1145,38.221375,1
161,-0.08862305,-0.22906494,-0.04058838,-250.1374,-112.41222,-13.679389,1
162,-0.037597656,-0.21990967,-0.08319092,-54.93893,-180.7481,-98.79389,1
163,0.033081055,-0.11450195,-0.0234375,59.045803,-223.40459,-80.91603,1
164,0.078125,-0.042541504,0.010437012,-20.167938,-121.84733,-57.549618,1
165,0.086364746,-0.059387207,0.010803223,-82,-144.06107,-39.366413,1
166,0.101501465,-0.039794922,-0.011352539,-80.26717,-76.229004,-85.25191,1
167,0.10473633,-0.026367188,-0.040161133,-128.48856,13.938931,-65.47328,1
168,0.09509277,-0.046875,-0.006164551,-111.44275,188.93893,-51.389313,1
169,0.057800293,-0.07171631,0.0126953125,33.61832,233.98473,-35.312977,1
170,0.037963867,-0.07745361,-0.0048217773,141.94656,198.9084,-23.984734,1
171,0.064575195,-0.12542725,-0.052978516,99.45038,167.87022,-41.396946,1
172,0.06585693,-0.30108643,-0.17633057,-79.99236,205.7481,-0.20610687,1
173,-0.030334473,-0.45983887,-0.37677002,155.23665,250.12978,20.67939,1
174,-0.13555908,-0.38897705,-0.206604,250.12978,250.12978,-133.45801,1
175,-0.13427734,-0.26416016,-0.17327881,233.75572,133.53435,-139.96184,1
176,-0.07305908,-0.12432861,-0.16253662,176.98473,172.24428,-167.68703,1
177,-0.103027344,-0.013793945,-0.11907959,71.503815,220.05344,-109.56489,1
178,-0.10192871,0.023864746,-0.058532715,99.32061,99.496185,-57.908398,1
179,-0.07086182,0.087890625,-0.07891846,136.32825,95.091606,-1.3053435,1
180,-0.09448242,0.14953613,-0.046875,81.23664,204.56488,41.419846,1
181,-0.07940674,0.13995361,-0.037719727,-67.66412,3.5419848,108.9313,1
182,-0.09210205,-0.4798584,-0.29699707,-250.1374,-171.69466,-31.51145,1
183,-0.111083984,-0.39215088,-0.28326416,-102.03053,-93.83206,-49.900764,1
184,-0.00793457,-0.20385742,-0.086364746,144.64885,-86.458015,-54.885498,1
185,0.03894043,-0.12860107,-0.0826416,-11.458015,-59.59542,-1.9236641,1
186,0.054138184,-0.10107422,-0.012207031,72.25191,-27.412214,-25.12977,1
187,0.06384277,-0.05706787,0.015808105,62.580154,-41.85496,-78.41222,1
188,0.059020996,-0.041931152,0.064697266,1.8931298,21.87023,-73.26717,1
189,0.052124023,-0.059509277,0.07489014,19.557251,-15.977099,-50.664124,1
190,0.101989746,-0.010803223,0.070495605,151.08397,-28.396946,-45.458015,1
191,0.07366943,-0.16064453,1.8310547E-04,-27.786259,117.94656,-30.70229,1
192,0.032836914,-0.34747314,-0.19445801,12.80916,121.76336,-90.63359,1
193,0.0040893555,-0.44396973,-0.19696045,250.12978,67.55725,-123.40458,1
194,-0.07800293,-0.4244995,-0.30645752,212.05344,250.12978,-82.41222,1
195,-0.17095947,-0.2998047,-0.24511719,250.12978,223.55725,-171.80153,1
196,-0.15893555,-0.10211182,-0.17321777,250.12978,217.74046,-201.45801,1
197,-0.11755371,-0.017700195,-0.085876465,-123.31298,148.1374,-184.9084,1
198,-0.08526611,-0.060180664,-0.07550049,-105.08397,45.045803,-102.69466,1
199,-0.067993164,0.02154541,-0.022949219,71.71756,188.16031,-8.091603,1
200,-0.10821533,0.09661865,-0.024902344,29.473282,129.92366,42.709923,1
201,-0.105163574,0.10089111,-0.009094238,-5.923664,72.52672,59.53435,1
202,-0.09625244,0.09716797,0.02734375,-12.610687,54.17557,88.259544,1
203,-0.104003906,0.0826416,-0.027526855,-128.91603,-26.343512,172.32825,1
204,-0.14465332,0.057556152,-0.016906738,-188.08397,-100.31298,183.48856,1
205,-0.20379639,-0.0670166,-0.08673096,-250.1374,-197.47328,172.19847,1
206,-0.34350586,-0.35681152,-0.23248291,-250.1374,-250.1374,214.48091,1
207,-0.22320557,-0.49475098,-0.33093262,30.42748,-250.1374,135.16794,1
208,-0.106933594,-0.3135376,-0.13873291,7.114504,-73.67939,72.92367,1
209,-0.10748291,-0.27038574,-0.08331299,-250.1374,-130.7481,65.19084,1
210,0.008483887,-0.22912598,-0.026000977,-250.1374,-204.77863,-30.23664,1
211,0.054626465,-0.23779297,-0.053527832,-238.61069,-54.290077,-54.458015,1
212,0.009643555,-0.20776367,0.020080566,-56.59542,-88.862595,-82.73283,1
213,0.015625,-0.34265137,-0.124938965,126.35878,7.9923663,-135.39694,1
214,-0.064941406,-0.4423828,-0.22259521,124.96947,227.23665,-86.58778,1
215,-0.19360352,-0.35021973,-0.20306396,250.12978,188.71756,-118.91603,1
216,-0.16601562,-0.107177734,-0.15557861,250.12978,140.23665,-149.15266,1
217,-0.093566895,0.04815674,-0.08972168,-41.007633,18.694656,-171.71756,1
218,-0.06549072,0.005065918,-0.09820557,-250.1374,46.40458,-142.61069,1
219,-0.04534912,-0.041992188,-0.0048828125,-129.45038,52.67939,-86.0687,1
220,-0.11602783,0.026306152,-0.0126953125,3.2290077,123.40458,0.870229,1
221,-0.094177246,0.065979004,0.011108398,-16.068703,109.740456,35.51145,1
222,-0.07788086,0.072509766,-0.013000488,-38.290077,128.82443,100.94656,1
223,-0.08648682,0.084350586,-0.010925293,-53.52672,97.83206,130.31297,1
224,-0.07611084,0.071899414,-0.022155762,-151.84734,22.778625,161.70229,1
225,-0.08862305,0.020141602,-0.026550293,-208.51144,-49.900764,160.87787,1
226,-0.12854004,-0.110839844,-0.019836426,-188.64122,-159.80916,120.87786,1
227,-0.20385742,-0.62713623,-0.27490234,-80.08397,-250.1374,171.70229,1
228,-0.14050293,-0.38085938,-0.043762207,250.12978,-28.114504,64.541985,1
229,-0.15045166,-0.15057373,0.0061035156,142.52672,-49.694656,60.045803,1
230,-0.0635376,-0.11242676,0.008728027,-172.19084,-250.1374,9.984733,1
231,0.016113281,-0.14276123,-0.01727295,-102.68702,-250.1374,31.206106,1
232,0.019470215,-0.06756592,0.048034668,-187.80916,-172.51144,-29.343512,1
233,0.07312012,-0.051818848,-0.0018310547,-181.50381,-143.45038,-64.9542,1
234,0.09716797,-0.04534912,0.025756836,-149.41222,-68.26717,-77.862595,1
235,0.105285645,-0.050048828,0.01586914,-134.53435,-34,-94.862595,1
236,0.10858154,-0.07409668,0.024475098,-80.43511,47.29771,-72.221375,1
237,0.06359863,-0.15612793,0.020568848,35.412212,105.42748,-33.34351,1
238,-0.02545166,-0.27575684,0.009399414,110.94656,107.75572,-34.50382,1
239,0.034057617,-0.26208496,-0.048583984,250.12978,-34.51145,-71.9313,1
240,0.008911133,-0.38275146,-0.19683838,250.12978,45.27481,-112.91603,1
241,-0.10699463,-0.40600586,-0.10015869,250.12978,214.29771,-66.55725,1
242,-0.28399658,-0.21343994,-0.08166504,250.12978,148.52672,-154.38931,1
243,-0.15405273,-0.07281494,-0.04058838,-136.27481,17.793894,-250.1374,1
244,-0.0052490234,-0.06695557,-0.06939697,-250.1374,122.66412,-214.10687,1
245,-0.01550293,-0.06774902,-0.050231934,-250.1374,250.12978,-177.66412,1
246,-0.09210205,-0.08135986,-0.041259766,-250.1374,228.74046,8.0992365,1
247,-0.08666992,0.021484375,0.013427734,134.67938,96.60305,42.519085,1
248,-0.10437012,0.18292236,0.085510254,250.12978,50.076336,33.045803,1
249,-0.07147217,0.21008301,0.080322266,-90.12214,72.99236,83.908394,1
250,-0.064453125,0.16021729,0.06286621,-181.0687,20.717558,90.96947,1
251,-0.115478516,0.09814453,0.0037231445,-250.1374,14.847328,144.44275,1
252,-0.20471191,-0.08843994,-0.0892334,-250.1374,-174.9313,73.908394,1
253,-0.22814941,-0.33605957,-0.24645996,-250.1374,-250.1374,75.61069,1
254,-0.17907715,-0.29156494,-0.32019043,250.12978,-250.1374,-42.923664,1
255,-0.21081543,-0.2874756,-0.37768555,-250.1374,-162.03816,53.72519,1
256,-0.11328125,-0.4163208,-0.2838745,-120.52672,-189.50381,-32.40458,1
257,-0.041503906,-0.16223145,-0.12548828,250.12978,67.12214,-130.7481,1
258,-0.015808105,-0.060058594,-0.02947998,65.45038,-46.839695,-33.961834,1
259,0.022033691,-0.07635498,-0.06518555,27.29771,-101.48092,-18.053434,1
260,0.051879883,7.9345703E-04,-0.007507324,-48.480915,-101.60305,-44.27481,1
261,0.08404541,0.037109375,-0.005554199,-170.64885,-71,-74.32061,1
262,0.10827637,0.018798828,-0.014221191,-250.1374,36.67939,-59.51145,1
263,0.091552734,-0.0579834,-0.005493164,-250.1374,161.90076,-16.534351,1
264,0.06555176,-0.071777344,0.005432129,-204.41222,209.93893,7.5419846,1
265,-0.0015869141,-0.14685059,-0.42004395,131.98473,34.099236,247.27481,1
266,-0.064453125,-0.1998291,-0.4206543,250.12978,243.17557,250.12978,1
267,-0.084472656,-0.16644287,-0.29180908,250.12978,240.14503,250.12978,1
268,-0.097839355,-0.035888672,-0.24633789,250.12978,199.63359,250.12978,1
269,-0.07720947,0.04034424,-0.14318848,250.12978,150.45038,155.16031,1
270,-0.07470703,0.105407715,-0.039978027,250.12978,217.0916,124.94656,1
271,-0.14794922,-0.036499023,0.053894043,-248.90076,-17.259542,-82.03817,1
272,-0.07281494,-0.15563965,0.016723633,-12.59542,-80.15267,-88.25191,1
273,-0.050048828,-0.021057129,-0.042541504,250.12978,-27.160305,11.503817,1
274,-0.11834717,-0.12298584,-0.07513428,-215.12978,-110.89313,21.007633,1
275,-0.07647705,-0.1015625,0.0044555664,109.69466,-74.91603,-5.931298,1
276,-0.1295166,-0.12927246,0.036865234,57.91603,-26.274809,-11.374045,1
277,-0.11810303,-0.23327637,0.001159668,-144.80916,-133.12213,27.007633,1
278,-0.12365723,-0.25585938,0.034423828,-25.412214,-140.01527,105.98473,1
279,-0.09509277,-0.13531494,0.11462402,-125.36641,-94.31298,7.7251906,1
280,-0.059387207,-0.11975098,0.05822754,-50.671757,-137.99237,-49.25954,1
281,-0.049072266,-0.14971924,0.034240723,-36.732826,-187.27481,-8.977099,1
282,-0.005493164,-0.10144043,0.04498291,102.84733,-241.84734,94,1
283,0.0025634766,-0.14813232,0.11804199,144.06107,-250.1374,84.63359,1
284,0.07354736,-0.046936035,0.038513184,182.12978,-225.03053,39.34351,1
285,0.012939453,9.1552734E-04,0.07446289,63.65649,103.23664,-106.07633,1
286,-0.003112793,-0.14904785,0.0569458,18.526718,132.03053,-110.854965,1
287,-0.05065918,-0.19726562,0.15246582,48.67939,183.70229,-13.2595415,1
288,-0.07531738,-0.09259033,0.1932373,67.91603,121.35114,-28.801527,1
289,-0.08929443,-0.17132568,0.17279053,-60.450382,129.64122,-167.9313,1
290,-0.12072754,-0.25634766,0.15289307,-78.51908,135.23665,-167.7939,1
291,-0.058654785,-0.25152588,0.16418457,111.55725,77.175575,-62.44275,1
292,-0.081604004,0.037902832,0.035461426,-196.64885,38.9771,10.083969,1
293,-0.03869629,0.0014648438,0.057800293,-40.46565,10.992367,52.435116,1
294,-0.041748047,-0.009521484,0.020996094,39.038166,89.183205,22.564886,1
295,-0.05340576,0.01763916,0.006225586,48.839695,70.59542,85.20611,1
296,-0.052001953,0.044433594,-0.01965332,55.67939,11.923664,87.96947,1
297,-0.039733887,0.05328369,-0.03778076,-31.900763,-44.770992,99.66412,1
298,-0.05444336,0.00592041,-0.039367676,-119.48855,-30.839695,119.61069,1
299,-0.121520996,-0.05102539,-0.045288086,-196.84734,13.076336,106,1
300,-0.20526123,-0.104003906,-0.008666992,-239.57253,-106.15267,93.96947,1
301,-0.28259277,-0.29022217,0.051086426,-250.1374,-190.45801,92.89313,1
302,-0.18878174,-0.39038086,0.10479736,-0.14503817,-102.16794,147.57253,1
303,-0.1862793,-0.16809082,0.10839844,-34.85496,-13.366412,124.29008,1
304,0.012451172,-0.08087158,0.09301758,-76.01527,-12.396947,77.00764,1
305,0.008178711,-0.06665039,0.074523926,-77.061066,-57.129772,54.114502,1
306,0.04663086,-0.053710938,0.084106445,-34.46565,-72.71756,18.473282,1
307,0.04901123,-0.015197754,0.06225586,27.114504,-60.053436,-35.40458,1
308,0.052001953,-0.0075683594,0.05505371,37.27481,-57.114502,-62.20611,1
309,0.046020508,-0.021728516,0.048095703,42.64122,-35.221375,-88.30534,1
310,0.019348145,-0.070129395,0.08453369,50.564884,-28.10687,-117,1
311,-0.2979126,-0.36712646,0.12927246,250.12978,113.55725,-77.0687,1
312,-0.2779541,-0.09967041,0.07989502,250.12978,-64.70992,-127.061066,1
313,-0.072143555,0.046936035,-0.06958008,29.374046,20.89313,-129.06107,1
314,-0.06347656,0.06591797,-0.07635498,15.068703,23.435114,-100.99236,1
315,-0.036743164,0.079956055,-0.06713867,6.519084,2.5877862,-39.603054,1
316,-0.03112793,0.07885742,-0.060302734,-44.366413,59.770992,42.244274,1
317,-0.08673096,0.042053223,-0.013122559,-114.137405,91.70992,107.44275,1
318,-0.11077881,-9.1552734E-04,0.034362793,-100.07633,26.91603,136.61832,1
319,-0.10913086,-0.15942383,0.12957764,-220.1145,89.80153,215.12213,1
320,-0.26031494,-0.4000244,0.2041626,-223.7939,76.60305,250.12978,1
321,-0.2892456,-0.32440186,0.23980713,107.34351,-12.137404,166.9313,1
322,-0.18548584,-0.21868896,0.17626953,-163.19084,89.580154,180.32062,1
323,-0.1104126,-0.16149902,0.10784912,-156.64885,-30.328245,116.96183,1
324,-0.020507812,-0.1453247,0.09869385,-159.61069,-98.0229,126.87786,1
325,0.0053100586,-0.089782715,0.09259033,-85.21374,-39.633587,148.38168,1
326,0.0020141602,-0.02746582,0.08453369,-142.70993,-75.58778,111.75572,1
327,0.035583496,-0.0413208,0.044189453,-224.70229,-103.47328,41.06107,1
328,0.06311035,-0.072631836,0.008728027,-156.2519,-119.99236,-13.015267,1
329,0.0826416,-0.046691895,0.030761719,-97.76336,-145.51144,-41.374046,1
330,0.11450195,0.003967285,-0.01184082,-119.12214,-157.12213,-39,1
331,0.11907959,0.0018310547,-0.028869629,-136.6565,-74.03817,0.610687,1
332,0.10241699,-0.032958984,-0.043640137,-89.15267,131.22137,-25.290077,1
333,0.026489258,-0.06756592,-0.017456055,-161.44275,250.12978,-62.694656,1
334,-0.0960083,-0.2640381,-0.0026245117,-250.1374,250.12978,-26.290077,1
335,-0.18914795,-0.35284424,-0.25512695,-250.1374,136.47328,95.26717,1
336,-0.2774048,-0.26159668,-0.14300537,-30.465649,82.00764,-2.3740458,1
337,-0.17645264,-0.15118408,-0.097351074,-246.2519,99.47328,39.79389,1
338,-0.15130615,-0.12249756,-0.10864258,-178.57253,80.26717,43.53435,1
339,-0.088134766,-0.08001709,-0.0692749,-111.16794,70.23664,65.68702,1
340,-0.052734375,-1.2207031E-04,-0.033569336,-116.618324,73.23664,45.961834,1
341,-0.06304932,-0.045776367,-0.059936523,-170.32825,16.969465,36.91603,1
342,-0.02520752,-0.02923584,-0.016418457,-89.137405,-52.419846,-3.8778627,1
343,-0.005065918,-0.0014038086,0.029296875,-124.67175,17.992367,-30.770992,1
344,-0.11791992,-0.030212402,-0.040405273,-87.52672,-70.816795,-151.91603,1
345,-0.1593628,-0.08105469,-0.06036377,-188.18321,-41.564884,-159.57253,1
346,-0.21350098,-0.19921875,-0.021606445,-155.39694,-26.541985,-166.14503,1
347,-0.260437,-0.038208008,-0.16204834,117.137405,-20.137405,-134.0458,1
348,-0.17791748,-0.06286621,-0.16882324,-250.1374,-209.14503,-29.961832,1
349,-0.14154053,-0.059753418,-0.17834473,-40.351147,-56.328243,-85.46565,1
350,-0.043640137,-0.04333496,-0.12542725,-113.42748,-54.198475,-102.39695,1
351,-0.051635742,-0.052246094,-0.095703125,46.89313,-40.648853,-101.69466,1
352,-0.0015258789,0.018859863,-0.0881958,40.030533,-41.06107,-104.37405,1
353,0.022033691,0.003967285,-0.079711914,18.816793,-39.984734,-86.10687,1
354,0.03302002,0.011657715,-0.07910156,31.801527,-25.045801,-62.366413,1
355,0.03967285,0.008911133,-0.060913086,31.015266,30.580153,-20.641222,1
356,0.041259766,0.014587402,-0.0579834,16.419847,61.435116,2.7633588,1
357,0.043395996,-0.0071411133,-0.10852051,-10.984733,40.076336,-6.9160304,1
358,-0.13201904,-0.1307373,-0.14056396,92.01527,81.12977,116.60305,1
359,-0.09442139,-0.103637695,-0.072509766,139.0916,92.63359,98.73283,1
360,-0.06903076,-0.111328125,-0.041259766,161.96184,78.70992,76.99236,1
361,-0.047607422,-0.05505371,-0.009094238,221.56488,76.46565,42.40458,1
362,-0.009399414,-0.05493164,0.011779785,241.71756,55.809162,-21.519083,1
363,-0.01953125,-0.08453369,0.032470703,218.0229,54.908398,-79.67175,1
364,-0.047668457,-0.04296875,0.029785156,139.80153,53.12214,-84.25191,1
365,-0.06970215,-0.08905029,9.765625E-04,152.0229,4.931298,-78.72519,1
366,-0.079956055,-0.06970215,0.0071411133,199.45038,-46.198475,-113.64122,1
367,-0.08520508,-0.16015625,0.006591797,9.297709,-92.24428,-133.47328,1
368,-0.13189697,-0.22283936,-0.07867432,19.961832,-98.52672,-73.03817,1
369,-0.08258057,-0.22528076,-0.049072266,72.19084,-114.64122,-51.480915,1
370,-0.07324219,-0.25524902,-0.066101074,109.08397,-128.2061,-56.687023,1
371,-0.0814209,-0.12786865,-0.16516113,229.92366,-107.80153,-28.732824,1
372,0.014099121,-0.07739258,-0.03942871,22.48855,-50.160305,-27.854961,1
373,0.056640625,-0.10430908,-0.0413208,106.824425,-96.68702,-12.488549,1
374,0.07006836,-0.05432129,-0.018188477,139.36641,-78.69466,-14.916031,1
375,0.075927734,-0.0076293945,-0.018249512,167.99237,-59.20611,-33.427483,1
376,0.06237793,-0.039733887,-0.024597168,110.21374,9.648855,-50.068703,1
377,0.056518555,0.012329102,-0.010131836,147.83969,24.641222,-79.580154,1
378,0.05834961,-0.034118652,9.1552734E-04,58.160305,68.183205,-81.816795,1
379,0.080078125,-0.27355957,0.026611328,-30.793894,127.08397,-107.67939,1
380,0.10620117,-0.24047852,0.107910156,112.137405,168.58778,-130.35878,1
381,0.045837402,-0.28167725,0.094177246,4.9465647,243.22137,-89.40458,1
382,0.013305664,-0.25219727,0.1083374,53.46565,215.36641,-109.0458,1
383,-0.011230469,-0.1638794,0.11102295,107.96183,167.59541,-124.091606,1
384,-0.016296387,-0.083862305,0.093322754,33.08397,153.38931,-108.381676,1
385,-0.00982666,-0.0423584,0.10028076,123.19084,92.496185,-76.91603,1
386,-0.03552246,0.06085205,0.09313965,166.35878,45.34351,-87.38931,1
387,-0.04864502,0.054870605,0.020935059,99.55725,1.4580153,-45.67939,1
388,-0.07141113,0.038635254,0.031433105,-66.908394,54.48855,4.3511453,1
389,-0.058288574,-0.0635376,0.0791626,-22.32061,68.67939,50.328243,1
390,-0.059265137,-0.05444336,0.09838867,97.53435,5.4732823,57.305344,1
391,-0.060424805,-0.11431885,0.12567139,98.96183,-58.290077,64.08397,1
392,-0.02532959,-0.07702637,0.13604736,142.2061,-108.29008,79.099236,1
393,0.004760742,-0.095703125,0.20758057,105.9313,-60.870228,118.503815,1
394,0.018920898,-0.119384766,0.24627686,68.80153,1.3587786,149.30534,1
395,0.017578125,-0.087890625,0.21990967,64.87023,-3.3435113,139.56488,1
396,-0.04559326,-0.17791748,0.16290283,-122.458015,65.36641,144.29771,1
397,0.06378174,-0.052978516,0.14782715,24.671755,-27.625954,111.221375,1
398,0.03668213,-0.046020508,0.087646484,30.152672,-50.282444,83.38931,1
399,0.06097412,0.013122559,0.059326172,-6.412214,-18.67939,68.96183,1
400,0.039916992,-0.012390137,0.024841309,-5.412214,-25.519083,46.366413,1
401,0.055603027,0.032958984,0.04827881,3.687023,-33.870228,15.480916,1
402,0.004760742,0.09875488,0.024475098,15.091603,-51.87786,12.282443,1
403,0.031982422,-0.054870605,2.4414062E-04,-162.61069,-14.709924,11.938931,1
404,0.066589355,-0.061401367,0.004699707,-88.62595,-12.877863,-31.38168,1
405,0.07659912,-0.10614014,0.041503906,-83.37405,21.244274,-75.80153,1
406,0.080200195,-0.12451172,0.062316895,8.465649,55.129772,-97.65649,1
407,0.057373047,-0.19732666,0.1204834,-24.396946,123.29771,-69.94656,1
408,0.027832031,-0.21496582,0.1630249,76.80153,148.41985,-80.57252,1
409,-0.023620605,-0.1984253,0.20178223,10.694656,189.41222,-80.30534,1
410,-0.05731201,-0.1486206,0.21411133,-23.076336,168.66412,-59.72519,1
411,-0.0814209,-0.09674072,0.15350342,-41.809162,122.25191,-66.12214,1
412,-0.0690918,-0.07635498,0.09899902,-49.366413,83.38931,-78.01527,1
413,-0.07434082,-0.028808594,0.12799072,28.832062,50.160305,-75.67939,1
414,-0.055664062,-0.008972168,0.08984375,-63.305344,67.24428,-35.633587,1
415,-0.050476074,0.016906738,0.08355713,2.687023,19.42748,-18.267176,1
416,-0.048706055,0.008117676,0.058532715,-6.854962,-4.9389315,-3.7633588,1
417,-0.04449463,0.01184082,0.03668213,36.190838,-57.48855,9.427481,1
418,-0.06390381,0.005493164,0.0390625,28.23664,-72.16031,38.427483,1
419,-0.07104492,-0.0368042,0.061767578,31.541985,-93.75572,80.778625,1
420,-0.08319092,-0.06567383,0.081604004,46.14504,-107.75572,89.770996,1
421,-0.087524414,-0.10522461,0.10900879,-19.114504,-94.419846,117.41222,1
422,-0.078430176,-0.16235352,0.16522217,3.2519083,-83.66412,161.49619,1
423,-0.08239746,-0.16070557,0.1965332,-23.923664,-78.75572,156.73282,1
424,-0.06726074,-0.14916992,0.15667725,-43.40458,-67.75572,119.19847,1
425,-0.012145996,-0.13128662,0.12426758,-55.427483,-54.61832,86.72519,1
426,0.031555176,-0.074523926,0.09844971,-90.35114,-86.12214,65.9771,1
427,0.044433594,-0.08117676,0.04699707,-61.84733,-77.381676,72.56489,1
428,0.06463623,-0.057556152,0.034240723,-22.206106,-93.28244,60.20611,1
429,0.0769043,-0.034362793,0.018798828,19.10687,-83.35878,29.10687,1
430,0.09234619,0.0040893555,-0.001953125,-2.908397,-72.541985,-0.46564886,1
431,0.08331299,-0.06201172,0.0071411133,-58.328243,6.335878,-35.50382,1
432,0.08935547,-0.039855957,0.03552246,89.71756,-5.664122,-81.36641,1
433,0.063964844,-0.08618164,0.042419434,-5.0152674,85.419846,-84.145035,1
434,0.061462402,-0.08343506,0.065979004,21.541985,117.30534,-98.23664,1
435,-0.038391113,-0.25280762,0.14758301,92.0229,227.51144,-63.87786,1
436,-0.0703125,-0.22589111,0.15136719,5.480916,250.12978,-50.717556,1
437,-0.105163574,-0.15161133,0.14544678,-31.274809,211.38168,-75.03817,1
438,-0.10046387,-0.11651611,0.12915039,-33.10687,138.90076,-77.62595,1
439,-0.08929443,-0.08026123,0.13122559,-35.53435,87.89313,-55.801525,1
440,-0.07513428,-0.04083252,0.12231445,-19.603054,50.47328,-36.46565,1
441,-0.061279297,-0.015136719,0.11639404,-12.534351,23.022902,-22.816793,1
442,-0.07348633,0.0045776367,0.08483887,39.648853,-33.183205,-24.954199,1
443,-0.08282471,0.031982422,0.05847168,74.938934,-94.99236,-24.145039,1
444,-0.09423828,0.024902344,0.06555176,30.137405,-129.67938,-0.79389316,1
445,-0.10443115,-0.020080566,0.05999756,-37.48855,-154.25954,25.343512,1
446,-0.12054443,-0.06317139,0.052490234,-24,-194.24428,20.114504,1
447,-0.10235596,-0.13598633,0.066589355,-92.27481,-187.24428,60.091602,1
448,-0.079589844,-0.22058105,0.113464355,-13.465649,-200.38168,107.31298,1
449,-0.056152344,-0.15631104,0.17889404,-31.198473,-196.12978,120.39695,1
450,-0.040649414,-0.1461792,0.10076904,-165.7481,-105.73283,113.41222,1
451,-6.1035156E-05,-0.20092773,0.05834961,-123.44275,-78.12977,61.47328,1
452,0.04748535,-0.16778564,0.038391113,24.351145,-95.79389,42.82443,1
453,0.0670166,-0.07556152,0.029968262,65.35114,-115.458015,54.015266,1
454,0.08123779,-0.048583984,0.006164551,18.908398,-88.419846,52.67939,1
455,0.08642578,-0.034240723,0.010986328,49.83206,-58.931297,28.206106,1
456,0.06762695,-0.05834961,0.003540039,-14.305344,126.03053,-79.12214,1
457,0.046569824,-0.11517334,0.040649414,-72.67175,204.10687,-83.30534,1
458,-0.0970459,-0.3067627,0.15472412,103.80153,250.12978,-57.290077,1
459,-0.1404419,-0.20935059,0.1473999,59.091602,238.14503,-76.061066,1
460,-0.11541748,-0.10858154,0.13409424,49.198475,164.61069,-96.67175,1
461,-0.088378906,-0.11175537,0.109069824,-4.4580154,111.74809,-81.21374,1
462,-0.06341553,-0.039367676,0.08721924,47.664124,60.59542,-70.94656,1
463,-0.05218506,-0.0138549805,0.09173584,45.412212,30.229008,-56.412212,1
464,-0.04852295,0.020019531,0.08258057,25.206106,-17.977098,-56.51145,1
465,-0.057739258,0.037231445,0.070251465,-43.992367,-58.160305,-40.183205,1
466,-0.06304932,0.04272461,0.058410645,-79.29771,-96.35114,-33.374046,1
467,-0.07128906,0.011962891,0.06201172,-91.07633,-137.81679,-22.854961,1
468,-0.07128906,-0.019042969,0.04638672,-163.35115,-193.48856,-18.137405,1
469,-0.09033203,-0.07354736,0.03845215,-161.61832,-188.67175,-14.343512,1
470,-0.08123779,-0.1986084,0.006652832,-128.85497,-191.33588,35.099236,1
471,-0.07196045,-0.289917,0.026000977,50.954197,-202.81679,63.755726,1
472,-0.037963867,-0.20831299,0.09423828,250.12978,-167.25954,116.03053,1
473,-0.024353027,-0.16845703,0.08892822,153.14503,-56.610687,121.36641,1
474,0.0065307617,-0.13256836,0.07043457,152.0229,-40.183205,92.31298,1
475,0.036987305,-0.0960083,0.072387695,85.64122,3.8549619,84.10687,1
476,0.044433594,-0.08258057,0.04852295,9.5801525,-1.6412214,114.07633,1
477,0.04034424,-0.121276855,0.034301758,11.854961,-12.717557,73.80916,1
478,0.07562256,-0.11340332,0.06213379,17.595419,12.709924,37.78626,1
479,0.089904785,-0.0390625,0.06921387,114.59542,6.7938933,-14.465649,1
480,0.06951904,-0.018432617,0.046447754,81.87786,23.534351,-47.17557,1
481,0.0748291,0.009643555,0.05114746,98.94656,-28.816793,-61.389313,1
482,0.06390381,0.017822266,0.02508545,89.91603,-46.435116,-88.21374,1
483,0.07293701,-0.0095825195,0.012939453,20.839695,-16.923664,-136.3435,1
484,0.091796875,-0.047912598,0.02960205,-175.75572,81.31298,-147.96184,1
485,0.10083008,-0.10992432,0.09613037,-24.824427,42.717556,-140.51144,1
486,0.015258789,-0.37200928,0.12487793,-70.854965,193.07634,-82.259544,1
487,-0.005065918,-0.21557617,0.21368408,104.503815,192.1374,-112.21374,1
488,-0.0625,-0.1720581,0.15673828,27.022902,-17.305344,-165.56488,1
489,-0.043701172,-0.10827637,0.15356445,-72.91603,42.969467,-126.145035,1
490,-0.01739502,-0.059814453,0.11425781,30.557251,-23.61832,-117.221375,1
491,-0.0087890625,0.085876465,0.12689209,-5.6564884,34.49618,-90.07633,1
492,-0.019104004,0.051330566,0.081726074,-84.19084,101.79389,-58.450382,1
493,-0.030273438,0.050354004,0.06994629,-79.72519,92.63359,-61.14504,1
494,-0.034606934,0.013061523,0.03137207,-67.55725,30.557251,-68.24428,1
495,-0.06225586,-0.06732178,0.05645752,68.56489,-57.44275,-12.267176,1
496,-0.049316406,-0.11193848,0.05633545,177.23665,-112.137405,27.450382,1
497,-0.05255127,-0.033691406,0.12921143,-28.76336,-15.763359,46.79389,1
498,-0.061157227,-0.22338867,0.14886475,23.603054,-92.19084,96.419846,1
499,-0.033325195,-0.21600342,0.19970703,163.01527,-111.47328,136.30534,1
500,-0.007446289,-0.107666016,0.23669434,77.503815,-28.770992,173.9542,1
501,-0.01727295,-0.13452148,0.15026855,29.343512,-58.40458,157,1
502,0.06048584,-0.049682617,0.076416016,13.183207,-116.39695,128.1145,1
503,0.09698486,-0.034057617,0.053527832,-72.16794,-138.03816,121.87786,1
504,0.054626465,-0.014892578,0.021118164,-14.7404585,-51.9771,19.419847,1
505,0.0881958,0.008056641,0.022827148,-14.992367,-6.4274807,-5.40458,1
506,0.081604004,-0.045776367,0.029968262,-0.9160305,34.15267,-32.50382,1
507,0.109802246,-0.20196533,0.1696167,-218.36641,158.32062,-79.259544,1
508,-0.033447266,-0.06695557,0.04272461,57.52672,146.39694,-12.7404585,1
509,-0.04046631,0.0138549805,0.034606934,81.53435,113.47328,-15.916031,1
510,-0.065979004,-0.010131836,0.06915283,111.778625,76.48855,-19.465649,1
511,-0.039489746,-0.02331543,0.043151855,132.37404,7.114504,-46.244274,1
512,-0.06097412,-0.0146484375,0.05316162,250.12978,-81.580154,-21.687023,1
513,-0.06970215,-0.045654297,0.056030273,241.29007,-121.32825,-21.74809,1
514,-0.06536865,-0.0099487305,0.09008789,238.94656,-121.778625,-12.885496,1
515,-0.053710938,-0.13897705,0.09210205,33.862595,-55.664124,66.503815,1
516,-0.015930176,-0.19177246,0.17584229,91.259544,-36.908398,92.48092,1
517,-0.006591797,-0.17840576,0.22827148,176.08397,-84.32061,122.10687,1
518,-0.0126953125,-0.17956543,0.116882324,-64.816795,8.4198475,142.83206,1
519,0.042785645,-0.11621094,0.08770752,87.53435,-145.64885,80.34351,1
520,0.07141113,-0.03186035,0.064941406,8.297709,-151.07634,64.68702,1
521,0.07293701,-0.026245117,0.03845215,11.007633,-155.7939,-8.282443,1
522,0.06524658,0.009094238,0.040039062,-26.25191,-155.75572,-19.603054,1
523,0.08331299,0.05859375,0.03100586,-98.9771,-120.46565,-5.5343513,1
524,0.09637451,-0.020385742,-0.0021362305,-185.83206,-104.98473,-21.419847,1
525,0.064453125,-0.05609131,-0.038146973,-110.824425,-84.27481,-31.160305,1
526,0.09576416,-0.039916992,0.04852295,-21.29771,-9.0992365,-95.44275,1
527,0.086364746,-0.09661865,0.045959473,-41.9771,55.770992,-127.16794,1
528,0.103881836,-0.07757568,-0.06213379,-55.335876,85.137405,-208.85497,1
529,0.15515137,-0.25408936,0.09448242,-198.51909,250.12978,-133.56488,1
530,0.12548828,-0.24719238,0.15386963,-59.419846,202.76335,-84.91603,1
531,0.061706543,-0.2592163,0.1270752,-115.34351,232.41222,-32.40458,1
532,-0.013427734,-0.27282715,0.085876465,0.77862597,186.10687,-61.51145,1
533,0.012878418,-0.030395508,0.07476807,250.12978,-26.480917,-166.48091,1
534,-0.06439209,0.034240723,0.10827637,37.076336,181.63359,-65.183205,1
535,-0.042175293,0.03955078,0.04498291,44.84733,183.50381,-34.816795,1
536,-0.06939697,0.034973145,0.029968262,28.595419,140.19084,17.992367,1
537,-0.07977295,0.018005371,0.035888672,108.0229,3.5801528,6,1
538,-0.048217773,0.07373047,0.03918457,97.221375,-55.32061,17.709923,1
539,-0.03363037,-0.0026855469,0.09399414,-39.160305,-17.259542,84.259544,1
540,-0.07324219,-0.053649902,0.10437012,-65.70992,3.4732823,123.35114,1
541,0.06561279,-0.027832031,0.022888184,21.610687,30.19084,-57.419846,1
542,0.08483887,-0.042419434,0.055419922,69.458015,-23.961832,-102.76336,1
543,0.07757568,-0.054992676,0.1015625,-81.229004,154.36641,-139.81679,1
544,0.11437988,-0.12762451,0.15258789,-29.862595,54.47328,-171.64885,1
545,0.13220215,-0.18933105,0.22399902,-146.42747,127.53435,-138.22137,1
546,0.019104004,-0.28961182,0.26184082,-129.78625,190.64122,-121.381676,1
547,0.024536133,-0.20202637,0.21643066,-178.8855,221.3435,-75.44275,1
548,-0.07092285,-0.17687988,0.12023926,-93.71756,59.954197,-116.80916,1
549,-0.03326416,-0.04711914,0.103149414,-27.137405,-5.5801525,-106.29771,1
550,-0.04510498,-0.020507812,0.07330322,-50.229008,0.10687023,-76.381676,1
551,-0.046081543,0.016235352,0.054016113,-11.312977,-9.137404,-22.10687,1
552,-0.061706543,0.04046631,0.02722168,-70.99236,-35.870228,2.2366412,1
553,-0.03741455,-0.025756836,0.052856445,-51.48855,-55.160305,30.175573,1
554,-0.03845215,-0.04437256,0.051208496,10.984733,-100.46565,52.93893,1
555,-0.04736328,-0.090270996,0.06604004,-22.23664,-87.66412,75.10687,1
556,-0.021728516,-0.075927734,0.10656738,2.740458,-133.51909,40.458015,1
557,7.9345703E-04,-0.2111206,0.11785889,-148.29007,-96.52672,79.33588,1
558,0.034301758,-0.17364502,0.07397461,11.0992365,-116.854965,74.01527,1
559,0.07672119,-0.1340332,0.05731201,-15.007633,-91.145035,75.08397,1
560,0.053894043,-0.08050537,-2.4414062E-04,100.94656,-11.503817,60.068703,1
561,0.08947754,-0.06640625,-0.009399414,71.145035,-72.52672,96.55725,1
562,0.07611084,-0.028747559,-0.011291504,97.458015,-77.03053,86.42748,1
563,0.06866455,-0.010192871,-0.0048828125,2.1908398,-30.786259,64.30534,1
564,0.070007324,-0.023498535,0.01763916,-20.51145,-5.778626,21.450382,1
565,0.072387695,-0.030639648,-2.4414062E-04,17.664122,11.267176,-9.40458,1
566,0.081726074,-0.036987305,0.01727295,45.992367,-4.9847326,-42.664124,1
567,0.08215332,-0.04425049,0.04888916,36.85496,38.27481,-80.98473,1
568,0.098083496,-0.070495605,0.09863281,-84.64122,113.31298,-107.83206,1
569,0.107788086,-0.20465088,0.066833496,-198.40459,115.419846,-87.25191,1
570,0.052368164,-0.25152588,0.11413574,27.519083,93.099236,-113.35114,1
571,0.012145996,-0.24255371,0.1005249,-177.17557,186.81679,-72.27481,1
572,-0.03692627,-0.11431885,0.0501709,-120.259544,65.64122,21.404581,1
573,-0.03540039,-0.037841797,0.060913086,-67.381676,5.152672,-8.648855,1
574,-0.047729492,0.02923584,0.066223145,-243.68703,34.17557,-17.70229,1
575,-0.07739258,-0.0690918,0.029418945,-250.1374,-2.076336,-24.687023,1
576,-0.05102539,-0.05822754,0.047607422,-49.17557,-114.854965,-50.21374,1
577,-0.041381836,-0.03100586,0.015686035,-91.47328,-91.091606,-52.55725,1
578,-0.08862305,-0.11694336,-0.020751953,-135.45038,-174.42747,-73.57252,1
579,-0.013000488,-0.23913574,0.0025634766,65.66412,-205.90076,-117.496185,1
580,-0.0211792,-0.20910645,-0.053710938,198.41985,-226,-65.419846,1
581,0.05505371,-0.27435303,-0.07220459,207.43512,-250.1374,-11.106871,1
582,0.044067383,-0.26556396,-0.03692627,212.51909,-29.625954,-9.671756,1
583,0.05053711,-0.20349121,0.048461914,250.12978,-84.229004,-33.312977,1
584,0.105773926,-0.14819336,-0.035339355,250.12978,-72.62595,-35.61832,1
585,0.086242676,-0.064086914,0.009521484,250.12978,29.923664,-36.908398,1
586,0.068847656,0.007751465,-0.019226074,250.12978,-35.992367,-20.656488,1
587,0.073791504,0.03466797,-0.023132324,137.21375,25.564886,-17.221375,1
588,0.049926758,0.016845703,0.005554199,15.374045,71.69466,-4.40458,1
589,0.0413208,-0.026000977,0.028686523,51.969467,47.82443,-27.89313,1
590,0.15557861,-0.14428711,0.09851074,-58.374046,110.99236,-119.24428,1
591,0.12976074,-0.19122314,0.17816162,-54.221375,131.0687,-116.80916,1
592,0.11517334,-0.22521973,0.16894531,-116.41222,236.58015,-100.15267,1
593,0.033325195,-0.20654297,0.1921997,136.38931,106.74809,-143.73282,1
594,-0.0078125,-0.11553955,0.14691162,74.43511,118.83969,-90.24428,1
595,-0.038269043,0.049987793,0.093933105,21.137405,53.61832,-26.984734,1
596,-0.041870117,0.020019531,0.0836792,-29.778625,58.67939,8.511451,1
597,-0.04144287,0.008300781,0.09008789,-25.32061,40.931297,34.755726,1
598,-0.06402588,-0.04296875,0.051086426,-26.419847,-3.6946564,48.08397,1
599,-0.03845215,-0.05731201,0.07446289,50.12214,-58.587788,48.89313,1
600,-0.035583496,-0.060424805,0.10626221,38.732826,-52.61832,59.755726,1
601,-0.020019531,-0.08428955,0.12036133,70.55725,-77.259544,69.32061,1
602,0.027709961,-0.080322266,0.1564331,146.55725,-124.03053,83.01527,1
603,0.05621338,-0.13757324,0.21270752,51.49618,-36.664124,121.33588,1
604,0.06060791,-0.099121094,0.2319336,83.65649,-16.526718,107.9313,1
605,0.058410645,-0.006591797,0.022460938,8.603053,-49.47328,10.541985,1
606,0.0524292,0.0057373047,-0.0037231445,-5.1603055,1.0534351,-8.206107,1
607,0.06933594,-0.009460449,0.0036010742,12.244275,-18.343512,-83.61069,1
608,0.08728027,-0.006713867,0.036621094,-12.954199,6.7251906,-116.41222,1
609,0.12231445,-0.043762207,0.0869751,-50.65649,4.366412,-129.9313,1
610,0.089416504,-0.18157959,0.24255371,-140.56488,110.87786,-201.30534,1
611,0.051086426,-0.14672852,0.18811035,-121.36641,100.25191,-181.56488,1
612,-0.001953125,-0.11022949,0.115112305,-95.84733,88.24428,-177.6565,1
613,-0.06500244,0.015014648,0.051086426,3.9541984,38.541985,-102.53435,1
614,-0.061401367,0.029663086,0.023071289,-2.5038168,-7.0152674,-73.145035,1
615,-0.030456543,0.030944824,0.029785156,10.969465,-37.34351,-58.129772,1
616,-0.031188965,-0.021362305,0.074279785,-64.80916,57.190838,17.91603,1
617,-0.045410156,-0.07507324,0.12359619,37.748093,46.541985,58.32061,1
618,-0.044433594,-0.074279785,0.15148926,-0.4274809,28.854961,76.80153,1
619,-0.031799316,-0.14910889,0.18475342,74.381676,-54.67939,92.778625,1
620,0.039794922,-0.11584473,0.22467041,107.25191,-51.59542,129.14503,1
621,0.043518066,-0.059570312,0.23413086,108.56489,-35.419846,112.48855,1
622,0.017028809,-0.056152344,0.20037842,0.60305345,39.709923,166.48091,1
623,0.039733887,-0.05126953,0.14221191,-69.183205,11.984733,155.83969,1
624,0.052978516,-0.074279785,0.10998535,-73.28244,-36.305344,122.19084,1
625,0.064941406,-0.047546387,0.0713501,-53.84733,1.9465649,116.221375,1
626,0.03277588,-0.054992676,0.061950684,-16.145039,24.908398,124.221375,1
627,0.019042969,-0.0368042,0.022033691,118.07633,-52.717556,141.38931,1
628,0.08947754,0.050598145,0.03253174,-83.938934,-18.099237,100.64886,1
629,0.04119873,-0.08380127,0.016967773,-78.63359,61.61832,51.14504,1
630,0.04547119,-0.022094727,0.030395508,147.64122,-180.41222,-5.6793895,1
631,0.103271484,0.05090332,0.03918457,50.198475,-64.00764,-122.55725,1
632,0.044311523,-0.08831787,0.08666992,4.2290077,166.84734,13.816793,1
633,0.042419434,-0.0099487305,0.06463623,73.854965,-170.38168,-155.35115,1
634,0.19311523,-0.10333252,0.09802246,-41.78626,-120.51145,-142.61069,1
635,0.13006592,-0.12591553,0.16827393,-7.885496,129.7481,-184.80916,1
636,0.1026001,-0.07525635,0.23522949,-91.83969,145.64885,-102.259544,1
637,0.043945312,-0.13085938,0.19909668,-116.9771,202.46565,-43.15267,1
638,-0.024353027,-0.06427002,0.19311523,-124.89313,88.67175,-66.70992,1
639,-0.036743164,-0.03967285,0.17547607,-16.786259,-57.961834,-65.40458,1
640,0.0038452148,0.03656006,0.11401367,-106.94656,-12.603053,-10.923664,1
641,-0.028015137,-0.012573242,0.08605957,-151.83206,80.96183,53.12214,1
642,-0.048706055,0.023010254,0.05645752,-136.15266,-7.5801525,27.687023,1
643,-0.05328369,-0.05895996,0.053466797,-184.2519,18.221375,62.312977,1
644,-0.054260254,-0.0065307617,0.06274414,19.38168,-147.70229,26.351145,1
645,-0.0075683594,-0.15209961,0.06414795,-131.41985,-41.221375,21.48855,1
646,-0.026489258,-0.22625732,0.10595703,107.48092,-196.96947,61.625954,1
647,0.06555176,-0.1762085,0.1618042,99.65649,-189.32825,135.64122,1
648,0.06665039,-0.1784668,0.13140869,11.19084,-112.91603,119.48855,1
649,0.048461914,-0.1772461,0.07952881,74.15267,-178.9542,101.061066,1
650,0.09118652,-0.08135986,0.059143066,89.21374,-202.27481,119.19084,1
651,0.113220215,-0.04333496,0.02545166,37.65649,-142.72519,88.8855,1
652,0.08325195,-0.025756836,-0.010681152,60.83206,4.1603055,79.52672,1
653,0.028076172,-0.012756348,0.020996094,46.53435,-71.29008,47.816795,1
654,0.05645752,-0.011108398,-0.022888184,-31.87023,-62.076336,61.816795,1
655,0.03692627,0.0021362305,-0.028137207,-51.396946,-43.78626,27.450382,1
656,0.06317139,-0.015625,-0.013427734,-45.549618,-59.076336,-8.030535,1
657,0.06939697,-0.04498291,-0.026611328,-85.10687,-19.480917,-12.267176,1
658,0.08532715,-0.04425049,-0.03387451,-106.58778,-3.832061,-50.099236,1
659,0.090026855,-0.10443115,-0.008117676,-123.35114,40.70229,-55.770992,1
660,0.1585083,-0.17120361,-9.765625E-04,-118.53435,83.59542,-80.38931,1
661,0.15081787,-0.28826904,0.05883789,-78.84733,155.73282,-104.35878,1
662,0.08770752,-0.28149414,0.11401367,-141.26718,223.30534,-9.106871,1
663,0.044006348,-0.2675171,0.080566406,-98.21374,217.28244,-24.152672,1
664,0.028686523,-0.17236328,0.072143555,-47.290077,122.938934,-81.23664,1
665,0.018798828,-0.088256836,0.08026123,-41.931297,163.51144,-20.290077,1
666,8.544922E-04,-0.05871582,0.08538818,-5.6412215,126.42748,-6.70229,1
667,-0.022521973,-0.023803711,0.062561035,-33.328243,91.52672,13.770992,1
668,-0.031433105,-0.014526367,0.0791626,-21.29771,56.030533,17.732824,1
669,-0.04699707,-0.007873535,0.061157227,-12.549619,16.122137,9.068703,1
670,-0.043762207,-0.040893555,0.0637207,-21.259542,-30.404581,11.374045,1
671,-0.043884277,-0.06762695,0.07183838,-2.6946564,-68.59542,21.961832,1
672,-0.042907715,-0.0904541,0.060180664,1.9541985,-120.221375,2.4122138,1
673,-0.042663574,-0.15979004,0.03265381,-21.198473,-137.83969,23.282442,1
674,0.03527832,-0.1965332,0.0925293,-22.015266,-140.29771,41.099236,1
675,0.04309082,-0.27770996,0.13970947,66.39695,-91.770996,43.091602,1
676,0.05126953,-0.22857666,0.070739746,56.52672,-57.47328,58.70229,1
677,0.09075928,-0.1819458,0.07006836,24.74809,-75.87023,88.824425,1
678,0.07543945,-0.12963867,0.033996582,-61.778625,-80.26717,78.47328,1
679,0.083496094,-0.08276367,0.014038086,-66.35114,-90.854965,67.03817,1
680,0.07489014,-0.07171631,-0.0076293945,-87.66412,-77.12977,58.755726,1
681,0.057006836,-0.044128418,-0.022705078,-20.824427,35.038166,-73.740456,1
682,0.07287598,-0.09106445,-0.008728027,-17.312977,76.23664,-95.60305,1
683,0.0892334,-0.16662598,0.030395508,-25.274809,105.419846,-115.87023,1
684,0.11029053,-0.21472168,0.02709961,-44.984734,116.862595,-118.48855,1
685,0.12799072,-0.31195068,0.06896973,-52.40458,156.26718,-92.1145,1
686,0.10546875,-0.27630615,0.09967041,-29.564886,179.38168,-121.29771,1
687,0.068359375,-0.24853516,0.095825195,20.725191,147.63359,-147.47328,1
688,0.055725098,-0.15795898,0.09710693,-4,140.61069,-152.74046,1
689,0.02923584,-0.075683594,0.10235596,35.969467,119.07633,-126.816795,1
690,0.0036621094,-0.066467285,0.08569336,21.91603,111.07633,-72.80916,1
691,-0.009155273,0.032104492,0.08892822,70.9771,56.687023,-74.21374,1
692,-0.04345703,0.012390137,0.029541016,20.74809,-19.145039,-13.229008,1
693,-0.028869629,-0.034179688,-8.544922E-04,25.48855,-52.35878,-1.8854961,1
694,-0.034301758,-0.06933594,0.026367188,84.31298,-60.79389,14.61832,1
695,-0.023986816,0.011962891,0.03643799,217.87022,-81.29771,-14.274809,1
696,0.03173828,-0.3305664,0.07287598,232.9542,-57.839695,17.022902,1
697,0.1295166,-0.09893799,0.16241455,109.07633,-57.931297,51.648853,1
698,0.13366699,-0.08508301,0.21948242,149.44275,-3.870229,82.00764,1
699,0.121032715,-0.06097412,0.22692871,55.984734,6.59542,120.94656,1
700,0.12219238,-0.026733398,0.1706543,-70.53435,-28.648855,110.73283,1
701,0.10864258,-0.17315674,0.018249512,-188.15266,-93.137405,68.816795,1
702,0.085510254,0.0063476562,0.06365967,31.221375,-95.580154,73.75572,1
703,0.053100586,-0.0057373047,0.026306152,-35.35878,-39.89313,77.00764,1
704,0.026489258,-0.0018920898,-0.0045166016,-95.70992,-67.37405,50.900764,1
705,0.031982422,0.026245117,-0.0073242188,-101.79389,-102.87023,10.7404585,1
706,0.15075684,-0.13269043,0.019714355,-102.778625,81.10687,-35.50382,1
707,0.18060303,-0.2276001,0.021972656,-134.26718,73.87023,16.412214,1
708,0.18139648,-0.19824219,0.06768799,-102.96947,148.9771,-25.007633,1
709,0.1696167,-0.19042969,0.113342285,-92.816795,135.58778,-28.824427,1
710,0.18426514,-0.2607422,0.04071045,-102.23664,156.55725,-146.6565,1
711,0.15344238,-0.12756348,0.061401367,-41.79389,22.08397,-138.9542,1
712,0.06561279,-0.14025879,0.0038452148,8.312977,121.541985,-5.3435116,1
713,-0.0025634766,-0.039916992,0.03741455,86.98473,55.67939,-87.183205,1
714,-0.06390381,0.059326172,-0.029418945,108.05344,67.19847,-23.412214,1
715,-0.014587402,-0.0068969727,0.0056762695,-145.89313,13.022901,1.5419847,1
716,0.027526855,-0.13543701,-0.0064697266,139.19847,17.396946,1.6335878,1
717,-0.044006348,0.014099121,0.040893555,250.12978,86.29771,22.67939,1
718,0.016601562,-0.1161499,0.04925537,-9.664123,8.458015,58.694656,1
719,-0.0032958984,-0.119140625,0.1149292,198.99237,20.732824,50.65649,1
720,0.0881958,-0.16894531,0.17834473,202.38931,-135.14503,135.68703,1
721,0.19299316,-0.1418457,0.18145752,180.19084,1.0152671,106.94656,1
722,0.05053711,-0.14471436,0.31433105,-23.175573,250.12978,250.12978,1
723,-0.008544922,-0.091552734,0.17254639,79.19847,11.167939,163.96947,1
724,-0.0016479492,-0.085754395,0.12628174,-57.633587,-94.45038,224.22137,1
725,0.041381836,-0.08520508,8.544922E-04,36.10687,-141.83969,198.64885,1
726,0.07336426,0.003967285,-0.0037841797,9.083969,-190.70993,100.87023,1
727,0.055358887,0.0026245117,-0.024658203,31.824427,0.045801528,26.770992,1
728,0.017028809,0.071777344,0.024963379,-59.007633,-8.656488,20.015266,1
729,0.06713867,-0.07727051,-0.029296875,-156.58015,-33.984734,-19.259542,1
730,0.04748535,0.046875,-0.047424316,35.961834,29.80916,-83.221375,1
731,0.047180176,-0.015258789,-0.06121826,-195.45801,28.923664,-58.35878,1
732,-0.059143066,-0.15289307,0.12030029,-18.114504,249.71756,56,1
733,-0.066101074,-0.15246582,0.026733398,-242.12213,122.183205,-66.496185,1
734,-0.03552246,-0.1494751,-0.01574707,88.40458,96.854965,-110.46565,1
735,-0.06774902,-0.03289795,0.064331055,97,167.03053,-19.76336,1
736,-0.09387207,-0.026977539,0.08673096,44.29771,51.190838,-21.137405,1
737,-0.05682373,0.044799805,0.05706787,36.46565,12.763359,-48.14504,1
738,-0.057800293,-1.2207031E-04,0.024658203,-67.824425,-62.770992,-26.412214,1
739,-0.070617676,-0.010131836,-0.0119018555,46.20611,-89.05344,-38.17557,1
740,-0.07104492,-0.103393555,-0.038024902,-153.90076,-159.64122,22.122137,1
741,-0.043640137,-0.1060791,-0.021484375,-25.908398,-129.52672,5.3511453,1
742,-0.010314941,-0.19616699,0.025756836,37.015266,-133.52672,0.4274809,1
743,0.025512695,-0.28393555,0.055725098,250.12978,-120.56489,42.282444,1
744,0.014709473,-0.18377686,0.15234375,250.12978,-53.076336,135.38168,1
745,-0.024597168,-0.030517578,0.27911377,109.061066,-41.89313,133.94656,1
746,-0.0041503906,-0.10839844,0.123291016,-250.1374,-132.48091,171.93893,1
747,0.023498535,-0.12792969,-0.03277588,-152.9084,-148.48091,160.9084,1
748,0.0446167,-0.2010498,0.033203125,78,-162.48091,-30.358778,1
749,0.07159424,0.009399414,0.018615723,245.96184,-132.81679,-86.74809,1
750,0.042053223,0.037231445,0.02508545,-14.862596,-39.519085,27.030535,1
751,-8.544922E-04,-0.0115356445,0.009094238,0.9312977,-82.36641,-52.82443,1
752,0.043273926,-0.020690918,-0.008056641,24.213741,-121.28244,-93.64122,1
753,0.06530762,-0.07354736,-0.0040283203,141.72519,-79.61069,-81.1145,1
754,0.06939697,-0.011962891,0.085632324,116.78626,33.068703,-35.53435,1
755,0.0814209,-0.09906006,0.048950195,-75.30534,70.87023,-62.93893,1
756,0.11816406,-0.083496094,0.053649902,-26.435114,5.114504,-181.14503,1
757,0.16174316,-0.3095703,0.1408081,-250.1374,250.12978,-25.564886,1
758,-0.0075683594,-0.21411133,0.16949463,250.12978,225.46565,-179.41985,1
759,0.025756836,-0.10418701,0.22821045,-205.93893,179.85497,-43.549618,1
760,7.9345703E-04,-0.22015381,0.1352539,-90.12977,186.87022,-127.65649,1
761,-0.031677246,-0.12347412,0.16711426,-159.58015,11.954199,-198.96184,1
762,-0.025756836,-0.070007324,0.05444336,-92.72519,131.51909,-76.72519,1
763,-0.03656006,-0.051879883,0.08099365,-0.77862597,74.61069,-14.007633,1
764,-0.049194336,0.02545166,0.10461426,26.419847,108.16794,51.099236,1
765,-0.047973633,0.019714355,0.03778076,-42.099236,-31.961832,36.198475,1
766,-0.041992188,0.039123535,-0.008544922,26.335878,-134.19084,-87.65649,1
767,-0.042114258,-0.045288086,0.04711914,-47.870228,-146.48856,-14.4198475,1
768,-0.06768799,-0.159729,0.0423584,-40.648853,-91.496185,16.175573,1
769,-0.024291992,-0.12438965,0.080078125,142.17557,-120.35878,-4.9007635,1
770,-0.019958496,-0.27227783,0.11480713,111.54962,-132.51144,111.48855,1
771,0.08508301,-0.16522217,0.18054199,245.771,-171.46565,47.580154,1
772,0.033935547,-0.049865723,0.2705078,130.81679,33.46565,75.27481,1
773,0.024963379,-0.0826416,0.17303467,-49.183205,-103.21374,111.10687,1
774,0.032287598,-0.090148926,0.111694336,-34.93893,-62.244274,147.16794,1
775,0.03729248,-0.024841309,0.038146973,-84.48092,-220.16794,103.29771,1
776,0.070251465,-0.02709961,0.02923584,-158.54962,-246.0916,78.47328,1
777,0.01940918,-0.008972168,0.012329102,-128.29007,-91.80916,142.51909,1
778,0.04309082,0.01953125,-0.019958496,-167.23665,69.35878,117.40458,1
779,0.06341553,-0.082092285,0.011413574,-74.33588,7.4885497,142.1374,1
780,0.111450195,-0.37542725,-0.041015625,-203.44275,75.580154,6.4503818,1
781,0.03540039,-0.5054321,-0.16119385,-23.755726,100.89313,-11.656488,1
782,-0.02722168,-0.33477783,-0.06665039,245.9542,223.18321,-79.48855,1
783,-0.057006836,-0.17138672,0.005859375,61.64122,144.68703,-104.80153,1
784,-0.035461426,-0.09484863,-0.021850586,-46.25954,157.37404,-99.24428,1
785,-0.062438965,-0.041931152,-0.03955078,-24.435114,185.54962,-62.34351,1
786,-0.09686279,0.015136719,-0.029418945,48.12214,171.72519,-1.221374,1
787,-0.113342285,0.10961914,-0.020996094,61.32061,170.85497,29.641222,1
788,-0.11010742,0.16540527,-0.030456543,-24.80916,100.25191,37.946564,1
789,-0.09210205,0.14727783,-0.03466797,-86.29771,15.687023,67.31298,1
790,-0.09991455,0.10064697,-0.03930664,-142.80916,-20.824427,138.06107,1
791,-0.14093018,0.048950195,-0.050842285,-213.47328,-106.15267,208.48091,1
792,-0.1864624,-0.048828125,-0.04034424,-250.1374,-157.29771,234.53435,1
793,-0.35968018,-0.3743286,-0.2783203,-250.1374,-250.1374,250.12978,1
794,-0.38134766,-0.60009766,-0.46868896,-20.38168,-250.1374,45.351147,1
795,-0.07336426,-0.33642578,-0.042236328,174.57253,-57.32061,69.12977,1
796,-0.08782959,-0.19598389,-0.07904053,-121.42748,-67.29771,-34.480915,1
797,0.0048217773,-0.2008667,-0.064086914,-17.91603,-97.862595,-5.519084,1
798,0.05206299,-0.12652588,-0.040222168,12.80916,-103.503815,4.3587785,1
799,0.08123779,-0.08917236,0.0154418945,-25.717558,-73.98473,8.9007635,1
800,0.08770752,-0.08477783,0.043518066,-103.19084,-43.282444,-45.885498,1
801,0.06329346,-0.07952881,0.06451416,-64.183205,-12.954199,-53.183205,1
802,0.073913574,-0.060913086,0.039611816,-17.305344,-65.45038,-66.19847,1
803,0.10119629,-0.022216797,0.026489258,6.5343513,-76.32061,-94.10687,1
804,0.1138916,-0.007751465,0.0076904297,-15.59542,15.236641,-90.24428,1
805,0.07543945,-0.06768799,-0.021850586,-124.78626,172,-61.160305,1
806,0.020263672,-0.23852539,-0.07122803,-250.1374,209.82443,-69.47328,1
807,-0.06866455,-0.47546387,-0.29925537,-250.1374,129.14503,-57.20611,1
808,-0.27331543,-0.60821533,-0.5153198,112.52672,207.85497,-66.98473,1
809,-0.15496826,-0.0022583008,-0.1048584,250.12978,222.16031,-250.1374,1
810,-0.12670898,0.30981445,0.08081055,-81.23664,135.64122,139.81679,1
811,-0.15631104,0.13500977,0.058776855,-250.1374,89.80916,199,1
812,-0.1439209,0.1171875,0.04486084,-46.48855,-114.740456,186.64885,1
813,-0.16815186,0.087646484,0.008850098,-164,-233.61069,177.1374,1
814,-0.21508789,-0.03100586,-0.05029297,-193.77863,-250.1374,148.36641,1
815,-0.31219482,-0.30706787,-0.19134521,-250.1374,-250.1374,189.77863,1
816,-0.3289795,-0.35961914,-0.5628662,172.85497,-250.1374,88.9313,1
817,-0.28918457,-0.3786621,-0.26879883,-149.32062,-250.1374,-7.671756,1
818,-0.10321045,-0.359375,-0.23370361,-161.0458,-14.19084,11.343512,1
819,-0.060180664,-0.20837402,-0.12805176,250.12978,71.183205,-93.72519,1
820,0.010986328,-0.0692749,-0.02130127,200.52672,-78.26717,-56.137405,1
821,0.04876709,-0.03503418,-0.029418945,-13.427481,-114.00764,-5.7099237,1
822,0.06939697,-0.056518555,-0.02178955,-124.229004,-107.34351,-13.183207,1
823,0.12030029,-0.024230957,-0.023376465,-51.549618,15.236641,-74.27481,1
824,0.09411621,-0.048095703,-0.015136719,-145.01527,183.3435,-62.709923,1
825,0.0446167,-0.10491943,-0.06213379,-250.1374,243.14503,-48.351147,1
826,0.020019531,-0.33221436,-0.29309082,-250.1374,168.53435,5.183206,1
827,-0.0670166,-0.46240234,-0.6418457,250.12978,156.0229,-39.038166,1
828,-0.13824463,-0.29925537,-0.4227295,250.12978,250.12978,-86.73283,1
829,-0.23706055,-0.09863281,-0.34362793,250.12978,250.12978,-91.54962,1
830,-0.11773682,0.02746582,-0.12921143,130.37404,128.70993,-204.55725,1
831,-0.025756836,0.005859375,-0.051330566,-59.190838,192.81679,-66.25191,1
832,-0.070373535,-0.013061523,-0.035705566,27.87023,250.12978,40.435116,1
833,-0.12823486,0.15820312,-0.019592285,250.12978,227.96184,190.89313,1
834,-0.1529541,0.25689697,0.033935547,134.32825,-14.251908,236.47328,1
835,-0.10949707,0.25030518,0.05480957,74.900764,-18.229008,151.48091,1
836,-0.12207031,0.18621826,0.06262207,-70.32061,-102.496185,218.229,1
837,-0.13555908,0.13702393,0.03881836,-147.1374,-164.99237,241.74046,1
838,-0.20837402,0.08117676,-0.014404297,-247.38931,-219.9771,250.12978,1
839,-0.36499023,-0.19677734,-0.17993164,-250.1374,-201.44275,141.53435,1
840,-0.5576782,-0.36553955,-0.664978,-250.1374,-250.1374,150.03053,1
841,-0.07244873,-0.14282227,-0.105163574,250.12978,-15.282443,-99.099236,1
842,0.030517578,-0.06542969,-0.023376465,-10.015267,-126.770996,-2.0839694,1
843,0.0770874,-0.076049805,-0.030578613,-48.267174,-247.48856,-2.923664,1
844,0.1348877,-0.061645508,-0.054992676,-103.59542,-137.38168,-34.908398,1
845,0.1328125,-0.09313965,0.012512207,-106.42748,57.648853,-27.740458,1
846,0.053833008,-0.11529541,0.040039062,-46.76336,110.26717,-32.778625,1
847,0.045532227,-0.07537842,0.0491333,40.47328,-35.099236,-73.23664,1
848,0.097351074,-0.061035156,0.013122559,60.961834,-89.221375,-73.76336,1
849,0.105285645,-0.064575195,-0.047790527,25.068703,30.603054,-90.091606,1
850,0.054504395,-0.16229248,-0.10119629,-42.099236,242.54199,-95.824425,1
851,-0.041381836,-0.28912354,-0.15740967,37.229008,250.12978,-119.66412,1
852,-0.08868408,-0.4262085,-0.15435791,72.229004,2.59542,-152.43512,1
853,-0.0357666,-0.45513916,-0.27581787,1.6259542,193.46565,-40.267174,1
854,-0.038513184,-0.06958008,-0.09124756,-184.45038,250.12978,-101.27481,1
855,-0.1774292,0.0690918,-0.006286621,223.68703,203.27481,112.37405,1
856,-0.1494751,0.26672363,0.043884277,178.68703,-16.969465,78.96183,1
857,-0.08984375,0.2107544,0.046936035,-123.48855,100.80916,133.94656,1
858,-0.25610352,-0.43988037,-0.3866577,-166.16794,-250.1374,-144.64122,1
859,-0.22216797,-0.34881592,-0.09094238,-250.1374,-77.816795,31.740458,1
860,-0.084106445,-0.26513672,-0.2033081,-9.458015,25.648855,-42.396946,1
861,-0.010009766,-0.1404419,-0.08026123,132.32825,-60.87786,-87.57252,1
862,0.021972656,-0.0703125,-0.082092285,14.328244,-125.47328,-44.312977,1
863,0.0748291,-0.058898926,-0.039001465,29.076336,-250.1374,-67.78626,1
864,0.12438965,-0.010681152,-0.0637207,-46.79389,-153.00763,-88.67175,1
865,0.13482666,-0.0022583008,-0.044921875,-94.69466,2.6335878,-91.83969,1
866,0.11248779,-0.038391113,-0.0099487305,-88.21374,122.84733,-104.229004,1
867,0.076416016,-0.0703125,0.015380859,-97.08397,175.80153,-86.221375,1
868,0.05419922,-0.07183838,0.01751709,-87.091606,123.47328,-66.64886,1
869,0.051879883,-0.10626221,-0.06365967,-184.94656,118.503815,-0.41984734,1
870,0.015136719,-0.20758057,-0.2506714,-250.1374,161.54199,16.694656,1
871,-0.08288574,-0.3234253,-0.61743164,-22.213741,194.15266,5.0152674,1
872,-0.2401123,-0.11505127,-0.34161377,250.12978,40.38168,-52.49618,1
873,-0.06896973,0.024658203,-0.18786621,250.12978,250.12978,-77.24428,1
874,-0.09710693,0.053222656,-0.04345703,169.01527,250.12978,43.129772,1
875,-0.080078125,0.020080566,-0.08911133,250.12978,250.12978,112.79389,1
876,-0.1439209,-0.17974854,0.033203125,250.12978,112.89313,151.71756,1
877,-0.22680664,-0.19250488,0.17480469,18.732824,-13.664123,38.366413,1
878,-0.18725586,-0.35333252,0.057617188,-108.061066,-62.610687,136.26718,1
879,-0.21484375,-0.14642334,0.10882568,250.12978,82.15267,60.12214,1
880,-0.15081787,-0.0014648438,0.09991455,-130.69466,-107.25191,76.580154,1
881,-0.16589355,-0.40563965,0.0043945312,-250.1374,170.12213,-84.51908,1
882,0.01965332,-0.017822266,8.544922E-04,98.01527,-35.160305,-33.282444,1
883,0.027954102,-0.08154297,-1.8310547E-04,-117.64122,93.091606,-95.52672,1
884,0.0072631836,-0.035827637,0.019348145,119.94656,108.229004,-6.2671757,1
885,0.04547119,-0.06072998,-0.019836426,250.12978,-11.954199,-105.900764,1
886,0.05090332,0.033935547,0.10357666,230.66412,-163.46565,67.65649,1
887,0.016906738,-0.034301758,-6.713867E-04,82.503815,-19.32061,-77.381676,1
888,-0.039489746,-0.09716797,0.13659668,217.15266,-19.114504,-45.267174,1
889,0.024902344,-0.18023682,0.20910645,164.85497,-23.725191,-97.9771,1
890,-0.08886719,-0.20758057,0.2548828,213.64122,-36.809162,-82.10687,1
891,0.065979004,-0.040222168,0.039978027,9.351145,-92.96947,40.51145,1
892,0.072265625,-0.061828613,0.052368164,-16.74809,-58.717556,12.0992365,1
893,0.07543945,-0.03967285,0.07305908,11.389313,-39.755726,-36.83206,1
894,-0.09979248,-0.0064086914,-0.030151367,-145.42747,-111.94656,-250.1374,1
895,0.0037841797,-0.06591797,-0.016357422,-221.80153,-68.12214,-250.1374,1
896,-0.022277832,-0.041137695,-0.04473877,-24.480917,166.93893,-195.25954,1
897,-0.064941406,0.0256958,-0.08734131,19.175573,216.31297,-135.87787,1
898,-0.09899902,0.08795166,-0.11627197,53.549618,250.12978,-42.519085,1
899,-0.10107422,0.0769043,-0.062683105,-136,109.68702,183.78625,1
900,-0.14892578,0.042053223,-0.030761719,-170.26718,38.732826,245.1145,1
901,-0.23016357,-0.10418701,0.044677734,-250.1374,-12.877863,248.98473,1
902,-0.3446045,-0.51013184,-0.0099487305,-250.1374,-65.816795,250.12978,1
903,-0.2662964,-0.7098999,-0.15722656,-25.992367,-128,156.0458,1
904,-0.103881836,-0.29840088,0.17626953,-145.51909,-99.19084,18.732824,1
905,-0.050476074,-0.27178955,0.009277344,-207.82443,-70.221375,4.183206,1
906,0.04284668,-0.17602539,0.061035156,-156.77863,-177.01527,2.7633588,1
907,0.04925537,-0.13122559,-0.0010986328,-84.08397,-144.9771,13.702291,1
908,0.057434082,-0.10021973,0.0423584,-22.42748,-154.8855,-8.145039,1
909,0.049804688,-0.04815674,0.03643799,30.91603,-120.20611,-7.1603055,1
910,0.045410156,-0.01373291,0.04071045,33.427483,-81.21374,2.6030533,1
911,0.040039062,-0.038024902,0.044006348,66.44275,-22.923664,-16.992367,1
912,0.056884766,-0.039123535,0.078308105,131.35115,-22.862595,-34.25954,1
913,0.09436035,-0.03552246,0.09802246,95.76336,-8.244275,-62.9771,1
914,0.083984375,-0.074523926,0.06604004,26.015266,67.36641,-106.55725,1
915,0.08728027,-0.23370361,0.062316895,-37.091602,102.9542,-158.58015,1
916,0.10620117,-0.46954346,0.0033569336,89.51908,32.923664,-157.8855,1
917,-0.0015869141,-0.5779419,-0.08074951,250.12978,175.64122,-115.137405,1
918,-0.21472168,-0.37927246,0.10345459,250.12978,249.51144,-159.71756,1
919,-0.22503662,-0.13598633,-0.011657715,250.12978,-12.7786255,-192.0687,1
920,-0.114746094,-0.047912598,-0.035461426,-150.30534,-224.48091,-250.1374,1
921,-0.0025634766,-0.06903076,0.008972168,-250.1374,-115.8855,-250.1374,1
922,-0.035888672,-0.12878418,0.010925293,-188.0229,174.32825,-175.32062,1
923,-0.11590576,-0.040100098,-0.09991455,110.62595,250.12978,-83.74809,1
924,-0.14367676,0.1906128,-0.10974121,250.12978,177.51144,-57.282444,1
925,-0.11291504,0.21929932,-0.109191895,-114.32061,89.72519,22.534351,1
926,-0.081848145,0.118652344,-0.026489258,-237.00763,14.290076,116.54962,1
927,-0.08343506,0.09442139,-0.058898926,-122.66412,89.99236,191.28244,1
928,-0.14447021,0.047058105,-0.0446167,-171.77863,39.969467,250.12978,1
929,-0.17614746,-0.07745361,0.050598145,-229.59541,-25.007633,250.12978,1
930,-0.29467773,-0.3287964,-0.034240723,-250.1374,-28.442749,250.12978,1
931,-0.40234375,-0.8501587,-0.099487305,-133.2061,-250.1374,250.12978,1
932,-0.2619629,-0.31500244,0.33648682,250.12978,23.908398,154.66412,1
933,-0.20343018,-0.19885254,0.07800293,-102.381676,31.244274,137.68703,1
934,-0.024169922,-0.15325928,0.09863281,-167.2519,-145.90076,75.92367,1
935,-0.0138549805,-0.08465576,0.081970215,-180.81679,-96.24428,-12.312977,1
936,-0.0068359375,-0.13848877,0.03479004,-180.0687,-178.98473,-21.648855,1
937,0.10668945,-0.03125,0.029418945,13.267176,-26.442749,-94.503815,1
938,0.081726074,-0.068725586,0.06378174,2.5801528,29.290077,-119.80916,1
939,0.051086426,-0.12475586,0.0713501,7.0305343,67.87023,-160.9542,1
940,-0.0031738281,-0.19921875,0.07562256,66.72519,91.54962,-205.54199,1
941,0.018432617,-0.2715454,0.114990234,138.36641,15.78626,-203.80153,1
942,0.033325195,-0.48443604,0.069885254,132.19084,48.221375,-166.0916,1
943,-0.12310791,-0.4258423,0.019104004,250.12978,243.1374,-135.50381,1
944,-0.22351074,-0.2508545,0.029968262,250.12978,-11.557252,-151.08397,1
945,-0.19561768,-0.07019043,3.6621094E-04,112.87023,-250.1374,-250.1374,1
946,-0.02319336,0.038513184,0.059814453,-250.1374,-250.1374,-250.1374,1
947,0.09472656,-0.081970215,-0.05529785,-250.1374,-63.282444,-250.1374,1
948,-0.14691162,-0.13903809,0.07531738,-250.1374,206.9084,-194.2519,1
949,-0.14031982,0.12573242,-0.06591797,61.93893,250.12978,-57.23664,1
950,-0.15106201,0.14447021,-0.057434082,-86,170.44275,8.832061,1
951,-0.10644531,0.08355713,-0.03375244,-145.771,103.74809,102.84733,1
952,-0.110961914,0.04284668,-0.028930664,-168.96947,77.71756,211.50381,1
953,-0.13201904,0.015625,-0.010375977,-204.21375,22.114504,250.12978,1
954,-0.14074707,-0.14788818,0.04034424,-250.1374,-51.38168,250.12978,1
955,-0.21624756,-0.47558594,-0.0015869141,-250.1374,-74.259544,250.12978,1
956,-0.17480469,-0.7789917,-0.3060913,-40.20611,-204.48091,250.12978,1
957,-0.08380127,-0.30352783,0.22241211,73.580154,-124.01527,81.183205,1
958,-0.0914917,-0.2672119,-0.01940918,-217.19847,-61.068703,70.80153,1
959,-0.007080078,-0.17272949,0.0423584,-126.419846,-210.83206,-17.145039,1
960,0.02368164,-0.13342285,0.0067749023,-84.54962,-209.06107,36.396946,1
961,0.050354004,-0.08190918,-0.018005371,-77.47328,-223.51909,-1.870229,1
962,0.06817627,-0.062194824,-0.024719238,-29.343512,-234.1374,-18.832062,1
963,0.12414551,-0.0119018555,0.022827148,24.656488,-173.07634,-50.648853,1
964,0.1272583,-0.024841309,0.035949707,-6.7251906,-46.412212,-51.946564,1
965,0.11541748,-0.035217285,0.045043945,-36.984734,5.9770994,-101.35878,1
966,-0.08691406,-0.5407715,-0.11694336,196.61069,223.9771,-250.1374,1
967,-0.12219238,-0.28186035,-0.12921143,174.78625,66.10687,-250.1374,1
968,-0.06506348,-0.09790039,-0.029846191,24.496183,-1.0839695,-250.1374,1
969,-0.043640137,-0.061767578,-0.043762207,-160.83969,80.580154,-211.01527,1
970,-0.057861328,-0.009277344,0.0068359375,-34.549618,116.15267,-162.29771,1
971,-0.09277344,0.07513428,6.1035156E-05,-50.885498,138.06107,-93.37405,1
972,-0.14849854,0.08312988,-0.043945312,16.473282,213.67175,-36.801525,1
973,-0.18572998,0.16766357,-0.005554199,50.65649,128.90076,80.862595,1
974,-0.11730957,0.15673828,0.014160156,-81.145035,126.60305,195.17557,1
975,-0.14697266,0.088256836,0.006713867,-110.94656,106.20611,250.12978,1
976,-0.1807251,0.073791504,-0.011291504,-218.74046,35.625954,250.12978,1
977,-0.24468994,-0.09716797,-0.034301758,-250.1374,-122.854965,250.12978,1
978,-0.09509277,-0.6992798,-0.2765503,-171.82443,-250.1374,103.27481,1
979,-0.0602417,-0.57647705,-0.20733643,-162.57253,-238.0687,23.717558,1
980,0.03289795,-0.32421875,0.0014038086,184.19084,-144.29771,-73.80153,1
981,0.047851562,-0.15533447,0.027648926,22.946566,-66.381676,-44.50382,1
982,0.051574707,-0.13153076,-0.010986328,36.076336,-44.045803,-32.84733,1
983,0.05029297,-0.057373047,-0.002319336,65.19847,-79.37405,-23.38168,1
984,0.050354004,-0.014709473,0.0037231445,-2.8854961,-57.053436,7.9694657,1
985,0.051879883,-0.0134887695,0.0026855469,-48.85496,-69.87786,1.3282443,1
986,0.06085205,0.014282227,0.017456055,-151.51144,-95.59542,-30.503817,1
987,0.117614746,-0.01159668,0.014221191,-130.28244,-63.816795,-48.198475,1
988,0.13336182,-0.048339844,0.013000488,-91.29771,38.648853,-80.05344,1
989,0.118896484,-0.06713867,0.057128906,-37.305344,117.816795,-131.91603,1
990,0.086120605,-0.15979004,-0.02947998,-41.20611,161.0458,-124.89313,1
991,0.09033203,-0.24761963,-0.10021973,24.931297,77.56489,-180.82443,1
992,0.080566406,-0.43621826,-0.2310791,52.32061,250.12978,-155.74046,1
993,-0.17321777,-0.41680908,-0.11566162,33.862595,108.12214,-173.94656,1
994,-0.061157227,-0.2006836,-0.18334961,226.64122,143.28244,-177.00763,1
995,-0.06488037,-0.032714844,-0.06719971,121.15267,158.3435,-172.68703,1
996,-0.07940674,0.0026245117,-0.04486084,-57.198475,110.96947,-118.05344,1
997,-0.04937744,-0.018859863,0.0025634766,-50.610687,160.25954,-76.72519,1
998,-0.11462402,2.4414062E-04,-0.028015137,52.17557,232.06107,4.145038,1
999,-0.16442871,0.11047363,-0.03527832,98.12977,230.0458,71.21374,1
1000,-0.14349365,0.14099121,-0.002746582,17.847328,130.94656,71.71756,1
1001,-0.088134766,0.11199951,-0.00970459,-45.648853,80.53435,135.49619,1
1002,-0.101379395,0.09613037,0.0014038086,-121.51908,33.76336,188.39694,1
1003,-0.13256836,0.032409668,-0.018798828,-193.19084,-47.015266,237.62596,1
1004,-0.12835693,-0.09820557,0.02911377,-250.1374,-119.91603,241.94656,1
1005,-0.16973877,-0.42547607,-0.1531372,-250.1374,-194.27481,250.12978,1
1006,-0.08734131,-0.3737793,-0.1428833,-250.1374,-250.1374,-32.84733,1
1007,-0.006164551,-0.29351807,-0.107910156,-250.1374,-218.39694,-41.603054,1
1008,0.04248047,-0.23535156,-0.05999756,-84.53435,-172.16031,-100.32061,1
1009,0.044677734,-0.123168945,-0.037841797,-52.114502,-103.259544,-79.824425,1
1010,0.050964355,-0.064941406,-0.03265381,-48.25954,-123.26717,-73.71756,1
1011,0.060546875,-0.055480957,-0.03643799,7.1221375,-126.79389,-57.351147,1
1012,0.08428955,-0.04071045,-0.034240723,69.42748,-120.00764,-98.89313,1
1013,0.10864258,-0.0064697266,-0.016906738,102.79389,-106.0687,-106.40458,1
1014,0.11462402,-0.040283203,-0.0053710938,120.0458,118.740456,-91.183205,1
1015,0.07836914,-0.07849121,-0.0026855469,72.458015,153.03053,-68.48855,1
1016,0.060058594,-0.19158936,-0.04034424,-13.862596,218.63359,-96.23664,1
1017,0.0927124,-0.32226562,-0.081604004,126.48092,51.068703,-153.9771,1
1018,0.089660645,-0.45806885,-0.30981445,89.778625,62.244274,-146.19084,1
1019,-0.096069336,-0.4303589,-0.1821289,161.41222,250.12978,-138.66412,1
1020,-0.13409424,-0.21704102,-0.22515869,62.480915,13.78626,-224.19084,1
1021,-0.057922363,-0.1251831,-0.107910156,64.87023,65.8855,-223.22137,1
1022,-0.031555176,-0.025512695,-0.07336426,-59.755726,96.175575,-172.06107,1
1023,-0.076171875,-0.030456543,0.056640625,-100.60305,191.8626,-117.419846,1
1024,-0.082214355,-0.02319336,0.0053100586,-29.465649,210.32825,-39.923664,1
1025,-0.10491943,0.017211914,-0.009277344,87.71756,250.12978,26.290077,1
1026,-0.1482544,0.099975586,-0.014831543,147.71756,250.12978,82.23664,1
1027,-0.1303711,0.14227295,-0.019836426,75.23664,185.33588,92.83969,1
1028,-0.057006836,-0.33239746,0.05407715,-32.984734,-91.64122,46.328243,1
1029,0.018310547,-0.21282959,0.02545166,48.053436,-99.229004,19.91603,1
1030,0.059143066,-0.118652344,0.07366943,-5.3893127,-123.28244,51.83206,1
1031,0.016845703,-0.081970215,0.10070801,-81.9542,-170.23665,21.732824,1
1032,0.03552246,-0.087890625,0.037475586,-110.19847,-194.1374,13.351145,1
1033,0.054016113,-0.029968262,0.012512207,62.694656,-159.43512,-0.091603056,1
1034,0.075683594,-0.0037841797,0.005859375,-1.5267175,-158.29771,5.374046,1
1035,0.10827637,0.0076904297,-0.0099487305,5.9160304,-119.938934,-24.961832,1
1036,0.12866211,0.0119018555,0.009216309,-24.396946,-45.839695,-64.740456,1
1037,0.117370605,-0.0345459,0.014709473,-49.709923,42.312977,-96.62595,1
1038,0.11199951,-0.124694824,0.025146484,-106.48092,93.28244,-110.862595,1
1039,0.07434082,-0.52819824,-0.18756104,-55.23664,204.0458,-58.38168,1
1040,-0.12017822,-0.4286499,-0.1149292,250.12978,163.05344,-179.08397,1
1041,-0.070373535,-0.21917725,-0.06713867,154.70993,199.18321,-204.46565,1
1042,-0.073913574,-0.12475586,-0.08557129,-38.229008,139.16794,-178.70993,1
1043,-0.07299805,-0.058410645,-0.06677246,-46.64122,33.839695,-163.96947,1
1044,-0.021606445,-0.014770508,-0.002380371,-110.259544,56.755726,-129.41985,1
1045,-0.0793457,-0.039123535,-0.014099121,-96.816795,127.54962,-75.03053,1
1046,-0.13183594,0.078063965,0.0045166016,137.771,203.51144,-18.08397,1
1047,-0.1305542,0.1361084,-0.027038574,189.70993,196.80153,-34.89313,1
1048,-0.076538086,-0.2512207,0.040649414,-223.771,-172.54962,250.12978,1
1049,-0.123046875,-0.5906372,-0.2076416,-167.2061,-250.1374,250.12978,1
1050,-0.21972656,-0.73760986,-0.058532715,156.16794,-113.51908,250.12978,1
1051,-0.15771484,-0.47406006,-0.07757568,250.12978,72.175575,250.12978,1
1052,-0.08874512,-0.14398193,0.15917969,238.93893,-173.64885,74.15267,1
1053,0.057922363,-0.15808105,0.068603516,-250.1374,-250.1374,92.770996,1
1054,0.099487305,-0.17779541,-3.6621094E-04,-122.03817,-54.290077,47.74046,1
1055,0.07385254,-0.045837402,0.08520508,-79.96183,-114.30534,19.70229,1
1056,0.14538574,-0.10467529,0.026184082,-163.36641,-121.862595,-7.3053436,1
1057,0.15374756,-0.12506104,0.07159424,-1.740458,-19.908398,0.129771,1
1058,0.14758301,-0.06506348,0.06451416,75.580154,7.59542,-39.389313,1
1059,0.050109863,-0.3468628,0.013366699,67.61069,171.15266,-152.83969,1
1060,-0.024169922,-0.4981079,-0.06359863,168.55725,237.2519,-79.26717,1
1061,-0.18902588,-0.052856445,-0.08502197,228.00763,-209.82443,-250.1374,1
1062,-0.052978516,0.050476074,-0.0647583,-250.1374,-250.1374,-250.1374,1
1063,0.0491333,-0.07519531,0.037841797,-250.1374,172.51909,-250.1374,1
1064,-0.07519531,-0.018188477,-0.12896729,-45.549618,250.12978,-144.0687,1
1065,-0.19812012,0.12225342,-0.05822754,188.49619,250.12978,-176.68703,1
1066,-0.16137695,0.22106934,-0.07305908,-20.160305,14.038168,-96.03817,1
1067,-0.09875488,0.15002441,-0.00970459,-220.15266,-28.282442,37.389313,1
1068,-0.13653564,0.07977295,0.028259277,-171.33588,-11.946565,187.59541,1
1069,-0.1204834,0.049621582,-0.009216309,-192.25954,-51.290077,250.12978,1
1070,-0.13275146,-0.030029297,0.016845703,-250.1374,-87.16794,250.12978,1
1071,-0.2055664,-0.2850952,-0.13989258,-250.1374,-234.9542,242.23665,1
1072,-0.27075195,-0.74993896,-0.6303711,-250.1374,-250.1374,173.24428,1
1073,-0.0423584,-0.4277954,-0.13244629,196.35878,-219.23665,-250.1374,1
1074,0.0029296875,-0.29040527,-0.09295654,-250.1374,-178.31297,-34.78626,1
1075,0.046020508,-0.23712158,-0.12683105,11.564885,-172.27481,-126.03817,1
1076,0.06048584,-0.091430664,-0.016540527,29.625954,-99.55725,-110.183205,1
1077,0.03515625,-0.05102539,0.037353516,-48.27481,-140.29007,-51.969467,1
1078,0.05328369,-0.016723633,0.01373291,-35.396946,-145.64122,-72.618324,1
1079,0.06665039,-0.015075684,0.0076904297,-16.80916,-156.48091,-67.1145,1
1080,0.10559082,0.020324707,0.024230957,7.6488547,-154.10687,-102.29771,1
1081,0.15716553,-0.0043945312,0.014099121,5.0458016,-88.57252,-80.01527,1
1082,0.1628418,-0.020202637,0.020874023,3.8854961,42.427483,-81.20611,1
1083,0.12109375,-0.08331299,0.03253174,-34.0229,209.9313,-52.82443,1
1084,0.087768555,-0.300354,-0.077941895,92.27481,142.55725,-132.03816,1
1085,0.13409424,-0.45074463,-0.29638672,50.10687,-235.53435,-161.25954,1
1086,0.036987305,-0.42248535,-0.44873047,161.66412,250.12978,-125.99236,1
1087,-0.15435791,-0.25061035,-0.15899658,49.12214,250.12978,-250.1374,1
1088,-0.15710449,-0.08862305,-0.2630005,-202.75572,-144.90076,-215.19847,1
1089,0.09039307,-0.09918213,-0.04272461,-18.229008,207.89313,-110.458015,1
1090,-0.0881958,0.0049438477,-0.06689453,11.40458,250.12978,-36.480915,1
1091,-0.0670166,0.038024902,-0.06451416,1.740458,250.12978,55.091602,1
1092,-0.12200928,0.07867432,-0.026611328,65.89313,250.12978,122.59542,1
1093,-0.16766357,0.13867188,-0.0076904297,100.35114,234.91603,149.59541,1
1094,-0.13391113,0.16259766,0.016113281,-27.458015,114.21374,163.80153,1
1095,-0.12792969,0.11566162,-0.0028076172,-162.38168,43.70229,216.81679,1
1096,-0.1505127,0.07141113,-0.036499023,-227.39694,-39.610687,247.03816,1
1097,-0.1762085,0.0041503906,-0.054260254,-250.1374,-146.9771,207.09924,1
1098,-0.25726318,-0.590271,-0.5553589,-250.1374,-250.1374,215.1145,1
1099,-0.12945557,-0.5248413,-0.34643555,48.35878,-222.62596,-67.36641,1
1100,-0.058776855,-0.30596924,-0.1328125,-144.43512,-152.54199,-33.87786,1
1101,-4.8828125E-04,-0.21160889,-0.056884766,-67.92367,-141.70229,-121.1145,1
1102,0.04522705,-0.12231445,-0.052612305,-79.96947,-174.49619,-87.37405,1
1103,0.045654297,-0.07501221,-0.06530762,-111.05344,-70.64886,-66.62595,1
1104,0.028747559,-0.047546387,-0.027648926,-56.328243,-127.58778,-103.900764,1
1105,0.051330566,-0.022705078,-0.037475586,-27.557251,-199.44275,-126.259544,1
1106,0.10949707,-0.016357422,-0.024963379,2.5877862,-223.0687,-114.47328,1
1107,0.17010498,-0.033081055,-0.026123047,21.015266,-112.137405,-90.9542,1
1108,0.1671753,-0.02960205,0.0030517578,82.25191,82.92367,-95.061066,1
1109,0.12072754,-0.030334473,0.032470703,21.389313,162.47328,-97.87023,1
1110,0.101501465,-0.21502686,-0.18743896,-131.64122,155.42747,-157.41985,1
1111,0.15856934,-0.32800293,-0.26135254,-64.52672,24.282442,-187.47328,1
1112,0.10809326,-0.35528564,-0.5196533,-250.1374,250.12978,-2.70229,1
1113,-0.06365967,-0.3805542,-0.52905273,-141.18321,250.12978,24.358778,1
1114,-0.2084961,-0.16009521,-0.29943848,250.12978,250.12978,-100.28244,1
1115,-0.1459961,0.027160645,-0.1048584,250.12978,76,-101.47328,1
1116,-0.035217285,0.013916016,-0.059570312,47.458015,250.12978,41.244274,1
1117,-0.14190674,0.10003662,-0.06781006,165.40459,250.12978,135.92366,1
1118,-0.19866943,0.20404053,-0.048583984,31.824427,105.39695,91.08397,1
1119,-0.13684082,0.175354,-0.0078125,-178.25954,32.694656,104.580154,1
1120,-0.17254639,0.09851074,-0.010559082,-250.0229,-4.8015265,163.0687,1
1121,-0.17419434,0.04901123,-0.014282227,-229.33588,-131.93893,204.45801,1
1122,-0.16851807,0.017578125,-0.05999756,-199.38168,-183.93893,227.69466,1
1123,-0.22198486,-0.21551514,-0.24713135,-250.1374,-250.1374,156.62596,1
1124,-0.31311035,-0.5836792,-0.60717773,-250.1374,-250.1374,113.69466,1
1125,-0.022277832,-0.4984131,-0.28295898,121.29771,-148.44275,-63.755726,1
1126,-0.15667725,-0.39422607,-0.20257568,-226.44275,-38.44275,45.72519,1
1127,-0.006164551,-0.22381592,-0.12536621,239.58015,-247.54199,-139.94656,1
1128,0.07220459,-0.091674805,-0.052978516,102.496185,-247.21375,18.709923,1
1129,0.109558105,-0.06323242,-0.076416016,-51.709923,-237.69466,-48.61832,1
1130,0.13659668,-0.047851562,-0.07305908,4.9083967,-109.44275,-23.274809,1
1131,0.10418701,-0.026550293,-0.014709473,-19.931297,-20.038168,-24.534351,1
1132,0.08898926,-0.024169922,0.006225586,-36.9771,-32.59542,-17.954199,1
1133,0.06903076,-0.015991211,0.049316406,-131.71756,53.633587,-35.83206,1
1134,0.08917236,-0.05078125,-0.006713867,-170.96947,55.251907,-54.244274,1
1135,0.077697754,-0.107910156,-0.09503174,-228.74046,91.740456,-29.854961,1
1136,0.0647583,-0.35742188,-0.39422607,-250.1374,-14.641221,-6.4580154,1
1137,-0.038879395,-0.46136475,-0.6149292,250.12978,250.12978,-43.34351,1
1138,-0.24133301,-0.34936523,-0.35290527,159.00763,250.12978,-2.053435,1
1139,-0.10723877,0.0061035156,-0.15032959,184.33588,250.12978,-136.59541,1
1140,-0.07788086,0.05895996,-0.11151123,-28.25191,194.229,-83.26717,1
1141,-0.051818848,0.012329102,-0.05340576,-30.610687,250.12978,-53.08397,1
1142,-0.0871582,0.015625,-0.045715332,122.67175,250.12978,46.694656,1
1143,-0.13433838,0.12487793,-0.025939941,232.38168,193.46565,135.80153,1
1144,-0.123413086,0.20117188,0.0211792,120.80916,84.27481,127.099236,1
1145,-0.09820557,0.14221191,0.012145996,-56.34351,66.32061,158.0458,1
1146,-0.12774658,0.08874512,-0.011474609,-86.56489,17.923664,190.32062,1
1147,-0.13909912,0.06317139,-0.032714844,-119.58778,-76.52672,215.19847,1
1148,-0.15240479,0.015380859,-0.038330078,-166.2519,-116.15267,214.33588,1
1149,-0.17529297,-0.13061523,-0.101501465,-250.1374,-159.87022,130.77863,1
1150,-0.2949829,-0.3756714,-0.33502197,-250.1374,-250.1374,170.69466,1
1151,-0.13134766,-0.47381592,-0.40393066,-134.0687,-250.1374,-29.374046,1
1152,0.09887695,-0.024475098,0.036010742,9.625955,-58.49618,-76.55725,1
1153,0.12640381,-0.019165039,0.026062012,-43.366413,-21.29771,-65.98473,1
1154,-0.020751953,-0.30480957,-0.36779785,250.12978,250.12978,-250.1374,1
1155,-0.10852051,-0.22143555,-0.41485596,-235.54199,250.12978,-84.419846,1
1156,-0.18927002,-0.14544678,-0.16918945,128.90076,223.15266,-149.32062,1
1157,-0.07543945,0.04650879,-0.13848877,138.32825,250.12978,-101.30534,1
1158,-0.092285156,0.06842041,-0.06677246,-99.37405,250.12978,-1.5343511,1
1159,-0.17022705,0.030639648,-0.107543945,20.877863,250.12978,49.580154,1
1160,-0.18353271,0.097961426,0.0119018555,141.51909,145.89313,136.85497,1
1161,-0.14929199,0.16259766,0.06488037,95.15267,145.53435,217.64885,1
1162,-0.16101074,0.17462158,0.03375244,1.6030535,105.183205,237.83206,1
1163,-0.15826416,0.13580322,0.0052490234,-167.93893,-56.34351,250.12978,1
1164,-0.16540527,0.077941895,-0.055541992,-233.16031,-170.76335,249.41985,1
1165,-0.21936035,-0.0602417,-0.084106445,-250.1374,-250.1374,183.56488,1
1166,-0.28930664,-0.35656738,-0.4136963,-250.1374,-250.1374,188.53435,1
1167,-0.17669678,-0.5437622,-0.6951294,42.16794,-250.1374,-48.312977,1
1168,-0.01776123,-0.4383545,-0.1942749,-226.83969,-78.41222,-67.145035,1
1169,-0.07421875,-0.24389648,-0.1697998,46.610687,-54.32061,-148.85497,1
1170,0.02709961,-0.11352539,-0.07513428,73.27481,-111.80916,-136.50381,1
1171,0.046691895,-0.062194824,-0.020690918,-10.7786255,-155.38931,-53.49618,1
1172,0.08190918,-0.028442383,-0.058288574,16.625954,-221.38931,-152.57253,1
1173,0.10736084,0.005004883,-0.042541504,28.114504,-80.35878,-115.64886,1
1174,0.12042236,-0.0076904297,0.0099487305,-35.221375,41.65649,-76.580154,1
1175,0.09161377,-0.0546875,0.05316162,-27.557251,108.62595,-49.83206,1
1176,-0.13043213,-0.24438477,-0.35461426,217.2519,250.12978,-13.129771,1
1177,-0.13372803,-0.0635376,-0.284729,222.16794,250.12978,-77.9771,1
1178,-0.05206299,0.04144287,-0.07244873,113.87023,235.05344,-90.59542,1
1179,-0.04168701,0.060302734,-0.08648682,-150.9084,250.12978,7.4656487,1
1180,-0.13427734,-0.020263672,0.07513428,-65.47328,250.12978,85.67939,1
1181,-0.15124512,0.10949707,0.027526855,184.29771,135.8626,212.96947,1
1182,-0.15814209,0.23840332,0.07043457,206.83206,18.137405,158.15266,1
1183,-0.12054443,0.20300293,0.0579834,-105.9542,-11.335877,142.9084,1
1184,-0.13250732,0.11651611,0.010253906,-122.59542,-113.29008,157.70229,1
1185,-0.14337158,0.07385254,-0.027404785,-151.78625,-250.1374,150.09924,1
1186,-0.13372803,-0.011474609,-0.09729004,-183.83969,-250.1374,85.21374,1
1187,-0.31048584,-0.37902832,-0.25134277,-250.1374,-250.1374,165.70993,1
1188,-0.15960693,-0.494812,-0.58221436,250.12978,-250.1374,-70.36641,1
1189,-0.1494751,-0.37469482,-0.13739014,-183.12213,-206.66412,0.5801527,1
1190,-0.06567383,-0.3482666,-0.2736206,-107.89313,44.48855,-78.0458,1
1191,-0.026367188,-0.15136719,-0.061279297,231.7939,53.06107,-190.9313,1
1192,0.13458252,-0.013977051,0.010131836,95.68702,62.67939,-73.57252,1
1193,0.12738037,0.017150879,0.023010254,-96.57252,36.435116,-56.374046,1
1194,0.094055176,-0.047729492,-0.10101318,-250.1374,108.816795,16.305344,1
1195,0.08312988,-0.14416504,-0.17675781,-250.1374,238.29007,-20.480917,1
1196,-0.0107421875,-0.30255127,-0.5496216,-236.55725,3.9312978,44.961834,1
1197,-0.081848145,-0.23400879,-0.49609375,228.40459,250.12978,105.31298,1
1198,-0.24017334,-0.06048584,-0.33843994,128.83969,250.12978,39.51145,1
1199,-0.12145996,-0.023864746,-0.12023926,121.53435,9.984733,8.80916,1
1200,-0.012207031,0.029052734,-0.09069824,147.18321,164.35115,108.46565,1
1201,-0.059020996,0.030334473,-0.017944336,93.137405,250.12978,108.36641,1
1202,-0.1437378,-0.003540039,-0.07330322,223.01527,110.46565,250.12978,1
1203,-0.17254639,0.08654785,-0.011962891,-250.1374,-179.18321,177.74046,1
1204,-0.28338623,-0.14971924,-0.15942383,-250.1374,-223.75572,94.145035,1
1205,-0.5285034,-0.25634766,-0.9038086,-250.1374,-250.1374,83.51908,1
1206,0.08251953,-0.60150146,-0.2055664,-186.94656,-250.1374,-250.1374,1
1207,-0.15911865,-0.15167236,-0.08502197,216.12978,106.541985,-171.72519,1
1208,0.07543945,-0.07409668,-0.058166504,-71.938934,-19.610687,-56.44275,1
1209,0.1003418,-0.070251465,-0.055541992,11.160305,-84.00764,-56.83206,1
1210,0.11273193,-0.04333496,-0.025390625,-7.4198475,36.49618,-45.068703,1
1211,0.093566895,-0.024658203,-0.008300781,-50.770992,96.0458,-46.374046,1
1212,0.09484863,-0.028137207,0.0107421875,-92.62595,113.15267,-24.732824,1
1213,0.07550049,-0.030456543,-0.01928711,-54.114502,108.145035,-28.786259,1
1214,-0.010620117,-0.0927124,-0.2819214,-250.1374,132.03816,59.312977,1
1215,-0.08105469,-0.13671875,-0.4831543,95.92367,94.458015,127.64122,1
1216,-0.2442627,-0.1326294,-0.46972656,250.12978,250.12978,172.91603,1
1217,-0.088256836,-0.18707275,-0.2902832,250.12978,-76.8855,151.80153,1
1218,-0.01763916,-0.07849121,-0.31188965,250.12978,202.85497,68.259544,1
1219,-0.10180664,0.07635498,-0.19628906,250.12978,250.12978,-109.01527,1
1220,-0.14422607,0.11743164,0.07562256,250.12978,-75.51145,-49.458015,1
1221,0.01159668,0.07714844,-0.016418457,162.42747,78.740456,-129.12213,1
1222,-0.07928467,0.018981934,0.014160156,72.67939,-87.35878,-110.87023,1
1223,-0.08392334,0.018005371,0.035705566,169.90076,-82.99236,-107.15267,1
1224,-0.09851074,-0.009155273,0.0357666,52.709923,-116.419846,-58.755726,1
1225,-0.11608887,-0.16815186,0.024658203,73.503815,-151.30534,-75.061066,1
1226,-0.08453369,0.02911377,0.10974121,250.12978,-160.29771,-56.839695,1
1227,0.004699707,-0.08532715,0.09185791,-169.771,-169.90076,52.44275,1
1228,0.06536865,-0.24273682,0.13647461,177.45801,-88.938934,109.83969,1
1229,-0.013183594,-0.09814453,0.256958,74.16794,37.816795,23.335878,1
1230,-0.0178833,-0.16259766,0.097229004,15.732824,-55.84733,113.221375,1
1231,0.036254883,-0.08996582,0.039123535,41.992367,-241.25954,-33.435116,1
1232,0.11328125,-0.018371582,0.03881836,-58.72519,-149.0916,71.938934,1
1233,0.040222168,-0.09112549,-0.009399414,-72.59542,-77.908394,118.35114,1
1234,0.055847168,0.024536133,-0.0060424805,-21.221375,-95.07633,26.091602,1
1235,0.09857178,-0.09863281,-0.027893066,-150.57253,-78.48855,51.717556,1
1236,0.019104004,-0.058654785,-0.04748535,-186.82443,77.87023,95.27481,1
1237,0.06561279,0.024902344,0.0524292,-250.1374,-117.44275,-66.8855,1
1238,0.085998535,-0.15020752,-0.11590576,-85.183205,25.374046,-98.63359,1
1239,0.09698486,0.06781006,0.13513184,-250.1374,56.48855,-71.48855,1
1240,0.07098389,-0.20141602,-0.17193604,-250.1374,65.94656,106.221375,1
1241,0.060668945,-0.26617432,-0.15551758,55.900764,160.0458,-19.778625,1
1242,0.11224365,-0.13830566,0.077819824,-117.92367,154.57253,52.587788,1
1243,-0.0037841797,-0.25823975,-0.2074585,-250.1374,114.37405,222.26718,1
1244,-0.021850586,-0.2904663,-0.115600586,-250.1374,205.19084,162.96947,1
1245,-0.020324707,-0.2609253,-0.14587402,-103.32825,73.40458,173.29771,1
1246,6.1035156E-04,-0.09887695,0.117004395,250.12978,250.12978,37.83206,1
1247,-0.03112793,-0.049072266,0.03967285,23.290077,250.12978,181.71756,1
1248,-0.068359375,-0.056030273,0.057250977,94.42748,181.30534,75.52672,1
1249,-0.07006836,-0.04534912,0.056884766,91.458015,8.412213,3.053435,1
1250,-0.078430176,-0.020324707,0.026733398,-129.94656,2.351145,-114.28244,1
1251,-0.1496582,-0.21990967,-0.09539795,-127.229004,-198.73282,-54.862595,1
1252,-0.0690918,-0.08728027,-0.08544922,222.9542,-250.1374,-176.58778,1
1253,-0.018188477,-0.32147217,-0.2868042,-24.458015,-250.1374,-73.74809,1
1254,0.053344727,-0.019714355,-0.084472656,-0.610687,-88.56489,-125.40458,1
1255,0.08508301,0.05041504,-0.026306152,244.41985,-61.312977,-250.1374,1
1256,0.08203125,0.03967285,-0.01965332,1.5419847,160.3435,-7.1297708,1
1257,0.034057617,0.004699707,0.0015258789,-18.595419,20.74809,-82.29008,1
1258,0.10046387,0.020690918,-0.09967041,-23.549618,-47.709923,-97.229004,1
1259,0.06842041,-0.109313965,-0.25213623,-196.87787,102.31298,157.60306,1
1260,0.06530762,-0.099365234,-0.01550293,17.816793,240.27481,78.80916,1
1261,0.03363037,-0.17840576,-0.105529785,166.66412,162.00763,250.12978,1
1262,-0.09057617,0.05517578,0.014953613,250.12978,171.53435,57.44275,1
1263,-0.06829834,0.059448242,-0.0030517578,133.49619,110.91603,62.23664,1
1264,-0.070129395,0.03265381,-0.022033691,20.778625,47.007633,100.99236,1
1265,-0.058288574,-0.0079956055,-0.006652832,-64.41222,11.137404,88.65649,1
1266,-0.123291016,-0.08795166,0.064331055,-96.41222,-27.015266,104.503815,1
1267,-0.17974854,-0.14587402,0.037475586,-71.145035,-34.282444,159.9542,1
1268,-0.15826416,-0.291687,0.21783447,-186.89313,-165.72519,246.52672,1
1269,-0.19403076,-0.27642822,0.19030762,73.96947,40.47328,125.229004,1
1270,-0.20227051,-0.074401855,0.18945312,151.96184,79.41222,100.778625,1
1271,-0.10058594,-0.08654785,0.17138672,-136.59541,-70.64122,66.1145,1
1272,0.04034424,-0.11175537,0.12451172,-72.541985,-149.69466,117.71756,1
1273,0.06341553,-0.08843994,0.10949707,36.732826,-130.38168,98.9542,1
1274,0.038391113,0.028564453,0.11383057,-11.763359,-97.67175,43.25954,1
1275,0.04876709,0.022888184,0.10064697,-16.900763,-162.94656,23.282442,1
1276,0.06890869,0.030395508,0.05041504,-41.587788,-170.29771,-25.32061,1
1277,0.08984375,0.04840088,0.025817871,-127.94656,-181.44275,-69.15267,1
1278,0.10461426,-0.014343262,-0.0017700195,-157.08397,-117.26717,-86.41222,1
1279,0.08721924,-0.051696777,0.041381836,-83.229004,6.854962,-142.06107,1
1280,0.015686035,-0.23059082,0.10095215,75.33588,-12.267176,-169.22137,1
1281,0.049865723,-0.25872803,0.1763916,250.12978,51.992367,-194.23665,1
1282,-0.1418457,-0.18389893,0.1408081,197.35115,125.1145,-193.89313,1
1283,-0.103637695,-0.115234375,0.058532715,158.40459,-38.717556,-142.73282,1
1284,-0.039855957,-0.09655762,-0.02508545,123.770996,-148.64122,-60.61832,1
1285,-0.028259277,-0.032836914,-0.07019043,140.16794,-123.45038,-52.282444,1
1286,-0.080200195,0.01739502,-0.039001465,120.16794,-74.57252,-27.839695,1
1287,-0.109375,0.020385742,-0.10430908,53.549618,-205.14503,-3.389313,1
1288,-0.07537842,0.005065918,-0.08831787,-17.022902,-179.2061,37.519085,1
1289,-0.06536865,0.00579834,-0.050231934,1.1450381,-64.08397,55.549618,1
1290,-0.024719238,-0.058166504,0.09350586,55.015266,170.87787,150.56488,1
1291,-0.027160645,-0.012268066,0.10394287,-29.67939,250.12978,164.37404,1
1292,-0.0692749,-0.18591309,0.2892456,-215.3435,250.12978,242.45038,1
1293,-0.16290283,-0.2446289,0.36645508,-12.351145,237.50381,135.19847,1
1294,-0.13323975,-0.0501709,0.31744385,-57.068703,229.93893,104.96947,1
1295,-0.038879395,-0.09686279,0.18676758,-250.1374,114.03817,100.66412,1
1296,0.007385254,-0.10864258,0.109375,-153.94656,24.442749,100.51145,1
1297,0.031311035,-0.04034424,0.12097168,-73.07633,-21.145039,67.89313,1
1298,0.03918457,-0.006591797,0.15570068,-107.740456,-65.38931,41.55725,1
1299,0.073791504,-0.0012207031,0.099365234,-80.229004,-170.58015,38.335876,1
1300,0.11016846,-0.040222168,0.038391113,23.351145,-193.2519,10.106871,1
1301,0.12219238,0.022827148,0.03741455,120.56489,-58.580154,-73.27481,1
1302,0.08709717,0.044799805,0.08392334,57.412212,28.290077,-91.87023,1
1303,0.051940918,-0.036499023,0.07019043,30.786259,-36.23664,-99.67175,1
1304,0.047912598,-0.074523926,0.22845459,53.931297,-22.648855,-173.03053,1
1305,-0.07458496,-0.35491943,0.37579346,-161.81679,49.572517,-135.10687,1
1306,-0.18151855,-0.34954834,0.2545166,164.71756,10.328244,-204.45801,1
1307,-0.14605713,-0.21295166,0.12426758,58.53435,-116.26717,-158.2519,1
1308,-0.05682373,-0.10858154,0.056762695,-5.6030536,-162,-158.18321,1
1309,-0.026611328,0.0038452148,0.023010254,-174.44275,-138.25954,-157.48856,1
1310,-0.028015137,-0.010070801,-0.053222656,-250.1374,-150.60306,-108.87023,1
1311,-0.04284668,-0.13494873,-0.06793213,18.755726,-94.05344,-61.93893,1
1312,-0.12054443,0.008728027,-0.052612305,250.12978,-0.8167939,-141.06107,1
1313,-0.081848145,0.072021484,-0.07751465,81.29008,59.9771,-33.519085,1
1314,-0.08392334,0.020202637,-0.06530762,21.93893,24.732824,36.282444,1
1315,-0.053100586,0.018981934,-0.025634766,-109.51908,88.19847,183.03816,1
1316,-0.07519531,-0.02746582,0.027404785,-145.46565,224.44275,250.12978,1
1317,-0.12219238,-0.28186035,0.23291016,-250.1374,250.12978,250.12978,1
1318,0.08178711,-0.052978516,0.026977539,-63.35878,-225.43512,138.18321,1
1319,0.1427002,-0.029174805,-0.016967773,23.847328,-145.29771,94.96183,1
1320,0.14630127,0.025390625,0.057006836,8.320611,-66.51908,-16.656488,1
1321,0.16394043,0.020568848,-0.08270264,43.419846,-64.51145,-163.83969,1
1322,0.13769531,-0.0067749023,-0.0211792,51.389313,87.43511,-212.0687,1
1323,0.10394287,-0.037902832,0.0692749,-93.98473,102.816795,-203.77863,1
1324,0.22686768,-0.2970581,0.38085938,-250.1374,69.0458,-192.68703,1
1325,0.06384277,-0.7503052,0.19171143,-250.1374,250.12978,-108.96183,1
1326,-0.2861328,-0.7095947,-0.30969238,-250.1374,-68.60305,-250.1374,1
1327,-0.24511719,0.012939453,0.015808105,250.12978,72.8855,-250.1374,1
1328,-0.12463379,0.07330322,-0.025390625,12.679389,-162.38168,-250.1374,1
1329,-0.01977539,-1.2207031E-04,-0.041809082,7.9465647,-158.51909,-250.1374,1
1330,-0.1642456,0.058044434,-0.093444824,-147.40459,-28.580153,-170.46565,1
1331,-0.10809326,0.068603516,-0.055480957,-152.41985,4.7862597,2.183206,1
1332,-0.10107422,0.09942627,-0.048461914,102.63359,96.40458,126.76336,1
1333,-0.122558594,0.10797119,-0.052124023,31.709923,113.65649,250.12978,1
1334,-0.15661621,0.054992676,-0.090026855,-17.244274,79.46565,250.12978,1
1335,-0.18664551,-0.0107421875,-0.07092285,15.572519,9.709924,250.12978,1
1336,-0.19628906,-0.4076538,0.22027588,-250.1374,-136.96184,250.12978,1
1337,-0.25146484,-0.6915283,0.15783691,-188.2519,78,250.12978,1
1338,-0.3234253,-0.69158936,-0.018005371,-250.1374,-110.816795,134.75572,1
1339,0.06951904,-0.50372314,0.035217285,210.17557,-140.96947,57.969467,1
1340,0.1472168,-0.20654297,0.105285645,74.48092,-187.85497,84.99236,1
1341,0.15997314,-0.15472412,0.013671875,187.9313,-160.09924,39.23664,1
1342,0.14868164,-0.024658203,0.042297363,220.81679,2.9694657,25.801527,1
1343,0.10571289,0.08087158,0.09527588,2.206107,-21.175573,63.251907,1
1344,0.20581055,-0.48760986,0.14923096,-47.053436,59.435116,-144.2061,1
1345,0.06939697,-0.71551514,0.018493652,-161.19847,250.12978,-38.908398,1
1346,-0.30847168,-0.58599854,-0.26605225,43.389313,9.511451,-250.1374,1
1347,-0.12817383,-0.19274902,0.04144287,250.12978,-121.44275,-250.1374,1
1348,-0.083618164,-0.03173828,-0.06964111,-16.068703,111.67939,-250.1374,1
1349,-0.10583496,-0.00970459,-0.030517578,-74.54962,-16.931297,-250.1374,1
1350,-0.061157227,0.023132324,0.0022583008,-0.4351145,37.40458,-206.6565,1
1351,-0.11175537,0.072021484,-0.051574707,48.282444,160.85497,-177.05344,1
1352,-0.2033081,0.06964111,-0.09472656,41.0229,119.10687,-88.92367,1
1353,-0.12866211,0.16589355,-0.059020996,104.824425,-29.694656,43.83206,1
1354,-0.100097656,0.1373291,-0.024536133,-86.64122,42.625954,204.1145,1
1355,-0.12792969,0.040893555,-0.028320312,-85.259544,96.64886,250.12978,1
1356,-0.13134766,0.030639648,-0.0028686523,-156.29771,139.83969,250.12978,1
1357,-0.20233154,-0.113342285,0.044433594,-250.1374,104.48092,250.12978,1
1358,-0.39154053,-0.602478,-0.04699707,-250.1374,-96.43511,250.12978,1
1359,-0.23803711,-0.7774048,0.17077637,175.16794,-82.099236,95.52672,1
1360,-0.1171875,-0.43981934,0.12176514,-47.839695,7.6870227,93.91603,1
1361,-0.010864258,-0.25286865,0.052246094,21.931297,-143.80153,-9.251908,1
1362,0.074035645,-0.011657715,0.047424316,-124.26717,-170.80916,26.48855,1
1363,0.10412598,-0.031433105,0.038146973,-113.580154,-215.64122,8.488549,1
1364,0.14630127,-0.02166748,0.034118652,-24.564886,-156.229,-59.755726,1
1365,0.1508789,0.011108398,0.03265381,-31.641222,-48.458015,-102.61069,1
1366,0.13012695,-0.054382324,0.01940918,-72.51145,33.20611,-140.23665,1
1367,0.09631348,-0.17150879,0.010437012,-79.580154,103.53435,-143.17557,1
1368,0.06750488,-0.29943848,-0.0053710938,-20.244274,208.47328,-187.30534,1
1369,0.10040283,-0.5383301,0.020446777,19.709923,120.41222,-148.23665,1
1370,0.024169922,-0.5415039,-0.033935547,160.9771,193.73282,-250.1374,1
1371,-0.062438965,-0.4882202,0.0068969727,153.61832,168.32825,-250.1374,1
1372,-0.11590576,-0.27972412,-0.04736328,250.12978,66,-250.1374,1
1373,-0.07623291,-0.08709717,-0.105651855,250.12978,93.70992,-250.1374,1
1374,-0.11907959,0.05505371,-0.091674805,-82.15267,107.816795,-228.67938,1
1375,-0.09436035,0.0024414062,-0.08734131,-227.53435,-28.160305,-142.22137,1
1376,-0.103759766,-0.0021972656,-0.026489258,-57.816795,62.53435,-83.458015,1
1377,-0.12390137,0.071777344,-0.039733887,17.900763,134.6565,-27.74809,1
1378,-0.11755371,0.08935547,-0.026306152,-59.908398,145.16031,55.79389,1
1379,-0.09063721,0.06567383,-0.023742676,-37.114502,153.14503,116.33588,1
1380,-0.10449219,0.048583984,-0.03845215,-50.748093,153.28244,191.46565,1
1381,-0.14233398,-0.0041503906,-0.028564453,-175.35878,72.60305,250.12978,1
1382,-0.14611816,-0.21063232,0.078063965,-250.1374,-67.938934,250.12978,1
1383,-0.10626221,-0.46820068,0.027526855,-145.68703,-65.76336,250.12978,1
1384,-0.11401367,-0.5667114,0.10424805,-130.59541,-31.549618,250.12978,1
1385,-0.10296631,-0.3764038,0.07775879,-120.94656,4.2824426,211.771,1
1386,-0.054992676,-0.21209717,0.057250977,-103.740456,-50.045803,104.0687,1
1387,-0.002746582,-0.13983154,0.048095703,-199.32062,-159.32062,58.885498,1
1388,0.029968262,-0.09490967,0.0010986328,-174.06107,-150.30534,70.29008,1
1389,0.028076172,-0.046447754,0.034484863,-229.78625,-195.9313,19.89313,1
1390,0.06939697,-0.12945557,0.021911621,-250.1374,-191.28244,-51.55725,1
1391,0.085876465,-0.19366455,0.027648926,7.183206,-151.62596,1.6030535,1
1392,0.10070801,-0.046142578,0.068725586,187.3435,-214.44275,-101.61069,1
1393,0.14520264,0.00970459,0.0335083,85.42748,-193.17557,-109.24428,1
1394,0.16308594,-0.082092285,-0.0057373047,14.167939,36.59542,-131.67938,1
1395,0.09802246,-0.11633301,0.028320312,35.992367,209.78625,-178.58778,1
1396,0.08062744,-0.22845459,0.013977051,29.519083,72.32061,-168.82443,1
1397,0.14367676,-0.5389404,-0.09625244,-30.862595,-44.47328,-106.26717,1
1398,0.02154541,-0.51605225,-0.1829834,250.12978,250.12978,-241.03053,1
1399,-0.17663574,-0.43566895,-0.08062744,-35.76336,-34.267174,-250.1374,1
1400,-0.10626221,-0.2652588,-0.17626953,250.12978,250.12978,-216.3435,1
1401,-0.10430908,-0.03704834,-0.09057617,179.41985,202.37404,-230.48091,1
1402,-0.15118408,0.01940918,-0.0345459,-101.52672,126.75572,-148.25954,1
1403,-0.0769043,-0.0014648438,-0.030456543,-58.419846,103.87023,-116.31298,1
1404,-0.08770752,0.03387451,-0.06665039,14.473283,205.32062,-47.038166,1
1405,-0.12768555,0.08178711,-0.06378174,-5.4885497,149.47328,8.450381,1
1406,-0.09246826,0.08929443,-0.02520752,-35.198475,95.78626,55.351147,1
1407,-0.08148193,0.06555176,-0.031066895,-50.78626,74.57252,115.87786,1
1408,-0.11212158,0.05102539,-0.059387207,-112.51145,45.06107,186.92366,1
1409,-0.14892578,-0.078186035,0.022521973,-230.70229,-105.25191,250.12978,1
1410,-0.25006104,-0.39764404,-0.049194336,-250.1374,-142.66412,250.12978,1
1411,-0.16473389,-0.6541748,-0.047180176,-14.206107,-215.98473,228.69466,1
1412,-0.1685791,-0.4570923,0.09307861,-90.21374,-33.55725,124.42748,1
1413,-0.10205078,-0.28894043,0.013671875,-89.9771,-90.175575,42.183205,1
1414,0.053222656,-0.07989502,0.041748047,-114.64886,-135.03816,-3.8854961,1
1415,0.048706055,-0.06549072,0.03491211,-110.38931,-195.32825,-30.885496,1
1416,0.066101074,-0.0569458,0.020019531,-13.847328,-187.771,-45.51145,1
1417,0.09832764,-0.0068969727,0.04071045,32.015266,-202.82443,-84.79389,1
1418,0.14129639,-0.008728027,0.016174316,-1.9847329,-148.45038,-93.9313,1
1419,0.15594482,-0.018188477,0.01940918,-38.9771,-53.35878,-118.938934,1
1420,0.13134766,-0.062683105,0.023254395,-102.51145,52.27481,-139.70229,1
1421,0.10107422,-0.18023682,0.0048217773,-139.06107,106.137405,-162.21375,1
1422,0.12231445,-0.3866577,-0.06213379,-123.0458,102.56489,-193.12213,1
1423,0.07366943,-0.52685547,-0.17059326,60.885498,164.75572,-175.87022,1
1424,-0.047973633,-0.4736328,-0.09301758,95.31298,250.12978,-245.90076,1
1425,-0.16644287,-0.35302734,-0.14447021,124.08397,52.587788,-227.1374,1
1426,-0.064086914,-0.14025879,-0.17199707,140.58015,117.52672,-242.96947,1
1427,-0.08270264,-0.030761719,-0.11810303,-167.99237,193.83206,-184.45038,1
1428,-0.12683105,-0.026733398,0.010314941,-126.381676,98.12214,-111.61069,1
1429,-0.06854248,0.030944824,-0.040161133,25.656488,197.54199,-11.671756,1
1430,-0.13391113,0.09716797,-0.051330566,-47.076336,162.41222,222.57253,1
1431,-0.18188477,0.04345703,-0.059570312,-124.89313,-72.89313,209.51909,1
1432,-0.18151855,-0.12994385,0.020568848,-239.7481,-191.30534,210.27481,1
1433,-0.21673584,-0.39813232,-0.04168701,-250.1374,-191.41222,250.12978,1
1434,-0.20733643,-0.5696411,-0.124572754,-231.7481,-233.99237,207.89313,1
1435,-0.15686035,-0.47491455,-0.08026123,-191.16031,-177.63359,78.938934,1
1436,-0.09875488,-0.28179932,-0.041259766,-77.92367,-189.40459,-8.572519,1
1437,-0.030029297,-0.17333984,-0.0025634766,-162.92366,-250.1374,-14.916031,1
1438,0.03479004,-0.15881348,-0.033447266,-130.28244,-228.70229,22.091602,1
1439,0.06536865,-0.13189697,-0.014892578,-36.12214,-228.31297,16.404581,1
1440,0.07305908,-0.08392334,-0.006958008,34.129772,-186.90076,10.717557,1
1441,0.08294678,-0.049438477,0.007019043,52.732826,-151.1145,4.2748094,1
1442,0.14703369,-0.06524658,-0.024108887,67.98473,-121.42748,-125.07633,1
1443,0.16809082,-0.062683105,0.016723633,22.977098,-16.12977,-164.57253,1
1444,0.1303711,-0.11340332,0.023376465,-34.992367,108.27481,-199.19847,1
1445,0.07757568,-0.15386963,0.03289795,-38.374046,140.70993,-250.1374,1
1446,0.09527588,-0.27630615,0.039916992,-7.70229,77.091606,-250.1374,1
1447,0.11553955,-0.42547607,-0.058898926,52.076336,83.0687,-250.1374,1
1448,0.054138184,-0.41204834,-0.0345459,68.29008,250.12978,-250.1374,1
1449,-0.11401367,-0.40490723,-0.09008789,-70.67175,68.99236,-250.1374,1
1450,-0.08557129,-0.20043945,-0.13531494,95.75572,43.419846,-250.1374,1
1451,-0.048339844,-0.051452637,-0.046203613,-133.30534,184.93893,-203.30534,1
1452,-0.08557129,-0.034606934,-0.011230469,-92.824425,175.6565,-119.65649,1
1453,-0.07183838,0.03466797,0.008422852,-28.534351,212.2519,-28.89313,1
1454,-0.08935547,0.086364746,-0.03112793,-9.633588,250.12978,62.38168,1
1455,-0.14147949,0.107299805,-0.044555664,-57.137405,250.12978,138.41985,1
1456,-0.15136719,0.107788086,-0.041259766,-92.67175,216.44275,205.23665,1
1457,-0.10668945,0.08898926,-0.008911133,-80.259544,112.00764,221.99237,1
1458,-0.13458252,0.05053711,-0.06463623,-157.46565,58.84733,250.12978,1
1459,-0.18792725,0.04071045,-0.06903076,-215.00763,-70.43511,250.12978,1
1460,-0.25024414,-0.081970215,-0.09051514,-209.30534,-219.0229,194.70993,1
1461,-0.15991211,-0.9169922,-0.48706055,-250.1374,-250.1374,250.12978,1
1462,-0.17919922,-0.4225464,-0.0010986328,250.12978,39.251907,32.59542,1
1463,-0.07849121,-0.1828003,0.019348145,102.55725,-71.73283,78.52672,1
1464,0.006164551,-0.16705322,-0.033569336,17.885496,-192.83969,18.167938,1
1465,0.061279297,-0.10998535,-0.02545166,-4.7709923,-124.8855,43.068703,1
1466,0.07928467,-0.058776855,-0.0017089844,-40.694656,-116.69466,-11.725191,1
1467,0.115234375,-0.05090332,0.03857422,-134.78625,-127.8855,-53.076336,1
1468,0.12420654,-0.11315918,0.07702637,-71,1.8396946,-46.15267,1
1469,0.09008789,-0.10095215,0.09942627,-16,37.190838,-72.51145,1
1470,0.11987305,-0.08178711,0.06750488,72.54962,-40.015266,-60.427483,1
1471,0.118652344,-0.12890625,0.023803711,126.618324,86.0687,-35.885498,1
1472,0.018493652,-0.21514893,0.07574463,158.17557,198.94656,-49.267174,1
1473,-0.045166016,-0.27624512,-0.07269287,219.16031,66.091606,-91.66412,1
1474,-0.05810547,-0.4107666,0.034057617,248.26718,56.51145,-147.51909,1
1475,-0.171875,-0.45880127,-0.060180664,250.12978,98.229004,-101.69466,1
1476,-0.21435547,-0.2850952,-0.018920898,250.12978,93.45038,-134.42747,1
1477,-0.22479248,-0.1303711,-0.026367188,211.49619,6.3816795,-192.74046,1
1478,-0.12701416,-0.020202637,-0.101623535,1.70229,-233.26718,-250.1374,1
1479,-0.034179688,0.019104004,-0.08270264,-82.96947,-185.12213,-250.1374,1
1480,0.049316406,7.9345703E-04,0.059509277,-110.19084,40.778625,-250.1374,1
1481,-0.07885742,-0.004638672,-0.051757812,-127.33588,178.229,-87.0687,1
1482,-0.091674805,0.087768555,-0.09539795,-9.908397,171.69466,-13.572519,1
1483,-0.115234375,0.1940918,-0.054748535,-9.526717,89.98473,62.328243,1
1484,-0.08331299,0.12634277,-0.07519531,-186.91603,64.87023,164.17557,1
1485,-0.13519287,0.051757812,-0.061645508,-205.96947,85.62595,212.90076,1
1486,-0.16986084,-0.026428223,-0.030639648,-235.51909,-48.25954,228.0687,1
1487,-0.23327637,-0.3001709,0.029052734,-250.1374,-157.47328,199.771,1
1488,-0.19793701,-0.56536865,-0.12554932,-105.061066,-130.26718,250.12978,1
1489,-0.14587402,-0.53808594,0.035339355,53.79389,-37.160305,233.12213,1
1490,-0.14300537,-0.3336792,0.035827637,18.045801,66.56489,250.12978,1
1491,-0.09832764,-0.13659668,0.04736328,73.51145,1.9541985,162.15266,1
1492,-0.04888916,-0.05847168,0.082092285,-250.1374,-162.64122,123.70229,1
1493,0.01586914,-0.14904785,0.017150879,-250.1374,-137.16794,-49.984734,1
1494,-0.020385742,-0.14874268,0.04425049,-80.1145,-173.61832,-60.572517,1
1495,0.03503418,-0.0680542,0.043762207,-17.442749,-250.1374,-105.07633,1
1496,0.14477539,-0.06921387,0.03186035,-29.259542,-193.1374,-131.57253,1
1497,0.1472168,-0.0635376,0.04534912,0.97709924,-44.984734,-113.56489,1
1498,0.043273926,-0.20837402,0.0234375,52.625954,132.8855,-231.1374,1
1499,0.014831543,-0.20031738,0.021911621,147.54199,111.48855,-250.1374,1
1500,0.084472656,-0.39794922,0.019042969,-8.007633,75.099236,-134.59541,1
1501,-0.035888672,-0.5085449,-0.13562012,250.12978,155.54962,-79.03053,1
1502,-0.13757324,-0.31481934,-0.074401855,250.12978,217.59541,-84.36641,1
1503,-0.13897705,-0.095336914,-0.052978516,250.12978,194.06107,-145.21375,1
1504,-0.10784912,0.03289795,-0.10345459,-87.381676,73.091606,-199.98473,1
1505,-0.08483887,0.018493652,-0.0793457,-250.1374,27.61832,-226.64885,1
1506,-0.06726074,-0.03967285,-0.031311035,-205.74046,27.145039,-167.2519,1
1507,-0.09326172,-0.005859375,-0.052612305,4.5496182,90.44275,-59.290077,1
1508,-0.080322266,0.10961914,-0.03302002,-55.648853,13.877863,84.87023,1
1509,-0.07385254,0.062072754,-0.024108887,-101.28244,3.5496182,156.771,1
1510,-0.12512207,-0.008361816,-0.003540039,-203.9771,-21.587786,225.8855,1
1511,-0.13128662,-0.19488525,-1.8310547E-04,-250.1374,-115.63359,221.63359,1
1512,-0.18493652,-0.45825195,-0.124816895,-250.1374,-209.38931,250.12978,1
1513,-0.1394043,-0.5583496,-0.12591553,-87.221375,-220.81679,43.900764,1
1514,-0.05303955,-0.4072876,0.005432129,-120.35878,-165.37404,-52.9771,1
1515,0.014404297,-0.26281738,-0.014770508,-129.229,-228.59541,-73.60305,1
1516,0.066589355,-0.17803955,0.0107421875,-91.938934,-166.90076,-51.770992,1
1517,0.064208984,-0.14941406,0.041931152,-2.3816793,-153.45038,-36.717556,1
1518,0.0803833,-0.06518555,0.06311035,39.694656,-115.37405,-30.961832,1
1519,0.0836792,-0.064331055,0.008300781,36.64122,-112.76336,-13.80916,1
1520,0.0927124,-0.016296387,0.043640137,88.9771,-48.015266,-37.52672,1
1521,0.10223389,-0.0030517578,0.052001953,55.40458,-8.519084,-50.21374,1
1522,0.09240723,-0.04724121,0.07080078,43.335876,13.488549,-56.84733,1
1523,-0.017822266,-0.1843872,0.010192871,250.12978,63.435116,-250.1374,1
1524,0.1251831,-0.15014648,0.072265625,102.938934,-9.022901,-250.1374,1
1525,0.20648193,-0.32818604,-0.051696777,-135.35878,-104.30534,-163.6565,1
1526,0.09906006,-0.36553955,-0.15551758,122.79389,250.12978,-140.94656,1
1527,-0.09008789,-0.26141357,-0.027526855,125.51908,235.93893,-104.70229,1
1528,-0.07574463,-0.0982666,-0.11187744,138.58015,20.57252,-140.33588,1
1529,-0.03515625,0.03363037,-0.07281494,-154.52672,135.41985,-144.9084,1
1530,-0.05090332,-0.087524414,0.041931152,-250.1374,87.816795,-98.16794,1
1531,-0.059387207,-0.12506104,-0.05596924,-95.32061,186.33588,20,1
1532,-0.10040283,0.023254395,0.008605957,36.328243,205.41985,50.778625,1
1533,-0.11621094,0.06518555,-0.030090332,32.305344,244.52672,88.07633,1
1534,-0.14056396,0.07330322,-0.054748535,35.603054,119.59542,68.67939,1
1535,-0.115234375,0.05206299,-0.070373535,-85.12214,-54.38168,110.35114,1
1536,-0.10479736,-0.028259277,-1.8310547E-04,-160.64122,-115.67939,157.15266,1
1537,-0.095458984,-0.15979004,0.022338867,-121.70229,-224.05344,190.6565,1
1538,-0.075683594,-0.34326172,-0.013183594,-250.1374,-250.1374,250.12978,1
1539,-0.06555176,-0.57073975,-0.13983154,-250.1374,-245.7939,217.21375,1
1540,-0.0657959,-0.42877197,-0.009521484,-18.389313,-171.58778,46.229008,1
1541,0.008666992,-0.25506592,0.016235352,-86.29771,-188.70229,-0.6259542,1
1542,0.05883789,-0.16046143,-0.007080078,-106.91603,-183.52672,-31.48855,1
1543,0.081604004,-0.057678223,0.024536133,7.1221375,-120.32825,-40.79389,1
1544,0.109436035,-0.023925781,0.05291748,37.229008,-85.9771,-50.458015,1
1545,0.11315918,-0.0138549805,0.047546387,52.12214,-69.183205,-49.16794,1
1546,0.12371826,-0.02166748,0.0060424805,-22.419847,56.053436,-83.54962,1
1547,0.11212158,-0.14440918,-0.012817383,-101.9542,144,-57.84733,1
1548,0.14923096,-0.30126953,-0.032287598,7.9465647,149.29771,-79.70992,1
1549,0.14813232,-0.49267578,-0.16430664,48.290077,145.27481,26.091602,1
1550,-0.029418945,-0.5496826,-0.13708496,250.12978,250.12978,-43.748093,1
1551,-0.10290527,-0.3395996,-0.14654541,250.12978,51.82443,-100.29771,1
1552,-0.04888916,-0.05633545,-0.06518555,250.12978,176.19847,-227.03816,1
1553,-0.06689453,0.06365967,-0.06732178,-29.89313,250.12978,-182.7481,1
1554,-0.1385498,-0.009399414,-0.009521484,-250.1374,124.9771,-250.1374,1
1555,-0.10333252,-0.09051514,-0.125,-250.1374,3.793893,-125.89313,1
1556,-0.15447998,0.031433105,-0.034973145,124.61069,105.26717,-81.80153,1
1557,-0.119262695,0.1350708,-0.0524292,-27.312977,12.2595415,-11.633588,1
1558,-0.1260376,-0.028869629,0.0024414062,-213.25954,-76.9313,199.9084,1
1559,-0.08123779,-0.26434326,0.018371582,-206.39694,-175.58778,234.40459,1
1560,-0.084106445,-0.4937744,-0.020202637,-85.618324,-172.91603,238.47328,1
1561,-0.085754395,-0.56018066,0.007507324,5.145038,-139.67175,136.03053,1
1562,-0.05053711,-0.35412598,0.034179688,93.96183,-143,22.717558,1
1563,0.036987305,-0.18066406,0.053649902,-47.50382,-209.64122,20.70229,1
1564,0.042541504,-0.120910645,0.06976318,-134.22137,-250.1374,42.778625,1
1565,0.040039062,-0.069885254,0.03967285,-70.96947,-250.1374,41.32061,1
1566,0.07867432,-0.04638672,-0.013183594,-140.61832,-250.1374,40.961834,1
1567,0.13305664,-0.011657715,-0.027832031,-100.900764,-172.19084,-8.251908,1
1568,0.15881348,-0.025146484,0.014587402,-3.167939,8.969465,-77.00764,1
1569,0.12854004,-0.013793945,0.038879395,91.48092,141.9771,-98.137405,1
1570,0.14294434,-0.0115356445,0.025024414,-11.328244,57.801525,-156.76335,1
1571,0.13049316,-0.15533447,-0.022888184,-33.114502,248.25954,-148.9771,1
1572,0.121154785,-0.30493164,0.011108398,25.87023,250.12978,-175.94656,1
1573,0.18286133,-0.49261475,0.015319824,89.42748,173.16794,-115.908394,1
1574,0.083984375,-0.5088501,-0.09899902,100.05344,250.12978,-175.24428,1
1575,-0.06304932,-0.38330078,-0.055419922,191.58015,72.67939,-246.771,1
1576,-0.045532227,-0.16217041,-0.08874512,249.82443,170.51144,-201.23665,1
1577,-0.042785645,-0.020141602,-0.072387695,-78.24428,105.34351,-168.87787,1
1578,-0.08129883,-0.022644043,-0.06726074,-207.61069,85.44275,-110.43511,1
1579,-0.07562256,-0.012512207,-0.030822754,-70.259544,90.32061,-43.25954,1
1580,-0.11138916,0.06695557,-0.015197754,-38.282444,150.70993,40.44275,1
1581,-0.111328125,0.107177734,-0.039001465,-43.44275,178.2061,111.42748,1
1582,-0.11694336,0.107299805,-0.053771973,-13.664123,135.18321,150.52672,1
1583,-0.11785889,0.08496094,-0.06347656,-110.39695,49.755726,207.16031,1
1584,-0.1385498,0.026611328,-0.058776855,-223.53435,21.854961,250.12978,1
1585,-0.18743896,-0.13635254,0.014953613,-250.1374,-99.05344,250.12978,1
1586,-0.26184082,-0.46862793,-0.13769531,-250.1374,-240.33588,250.12978,1
1587,-0.19226074,-0.68933105,-0.21789551,-100.72519,-128.63359,250.12978,1
1588,-0.24725342,-0.23449707,0.010864258,250.12978,11.083969,250.12978,1
1589,-0.22546387,-0.058166504,0.09820557,60.458015,-48.770992,250.12978,1
1590,-0.054260254,-0.043884277,0.13250732,-250.1374,-134.57253,41.35878,1
1591,-0.11730957,-0.27093506,-0.021240234,-250.1374,-111.770996,-59.389313,1
1592,0.0021972656,-0.15667725,0.042907715,-9.503817,-250.1374,-93.42748,1
1593,0.0637207,-0.105773926,0.010009766,15.160305,-216.24428,-55.93893,1
1594,0.06994629,-0.08087158,0.04675293,46.419846,-113.47328,-82.83206,1
1595,0.100097656,-0.050109863,0.03692627,59.961834,-93.62595,-117.34351,1
1596,0.09185791,-0.024536133,0.040283203,35.59542,-29.312977,-150.52672,1
1597,0.058654785,-0.040405273,0.02178955,37.85496,1.6335878,-190.03816,1
1598,0.036132812,-0.3796997,0.10876465,21.801527,105.24428,-217.9771,1
1599,-0.10614014,-0.5227661,-0.03918457,154.96184,157.19847,-20.12977,1
1600,-0.20703125,-0.31427002,-0.070373535,250.12978,171.2519,-37.450382,1
1601,-0.24499512,-0.030029297,0.061279297,250.12978,131.17557,-187.10687,1
1602,-0.13464355,0.0045166016,-0.013122559,-82.67175,-117.32061,-220.7939,1
1603,-0.016357422,0.005004883,-0.062805176,-153.6565,-56.129772,-250.1374,1
1604,-1.2207031E-04,-0.0063476562,-0.06829834,-180.19084,103.35114,-211.70993,1
1605,-0.095581055,-0.008239746,-0.04272461,-181.48091,133.9084,-246,1
1606,-0.14154053,0.011169434,-0.06317139,-129.16794,8.320611,-233.94656,1
1607,-0.08721924,0.008056641,-0.027282715,-12.083969,-84.12214,-171.22137,1
1608,-0.05908203,0.03540039,-0.01550293,90.98473,-71.43511,-20.564886,1
1609,-0.08520508,0.062927246,-0.0010986328,15.938931,-67.43511,175.25954,1
1610,-0.11016846,-0.23297119,0.10992432,-230.82443,-0.7251908,250.12978,1
1611,-0.14489746,-0.5767822,-0.074401855,-250.1374,-51.114502,250.12978,1
1612,-0.22503662,-0.53082275,0.07385254,250.12978,-7.0305343,250.12978,1
1613,-0.38415527,0.3515625,0.23236084,250.12978,250.12978,150.67938,1
1614,-0.09680176,-0.0024414062,0.11871338,-250.1374,-203.80153,225.39694,1
1615,-0.115356445,-0.29406738,0.11480713,-159.87787,98.53435,-141.8855,1
1616,-0.06451416,-0.21734619,0.011169434,-250.1374,-146.31297,-116.59542,1
1617,0.035888672,-0.1772461,-0.004760742,15.984733,-250.1374,-78.229004,1
1618,0.11779785,-0.07873535,-0.027832031,49.717556,-228.84734,-121.67175,1
1619,0.12792969,-0.032470703,0.040527344,-1.6870229,-62.007633,-93.580154,1
1620,0.11584473,-0.051086426,-0.0029907227,8.229008,-101.33588,-142.60306,1
1621,0.12512207,-0.014526367,0.008911133,23.167938,3.610687,-178.23665,1
1622,0.10687256,-0.02923584,0.018310547,-37.183205,96.43511,-187.22137,1
1623,0.052124023,-0.13317871,0.06616211,-90.52672,205.70993,-216.51144,1
1624,-0.0078125,-0.3394165,0.12036133,-169.15266,176.37404,-212.91603,1
1625,-0.035339355,-0.5125122,-0.03289795,8.030535,168.18321,-38.06107,1
