measurement,Acc_X,Acc_Y,Acc_Z,Gyr_X,Gyr_Y,Gyr_Z,Label
0,0.12109375,0.018676758,-0.007751465,13.38168,5.89313,0,12
1,0.12438965,0.02178955,-0.020996094,11.496183,3.5801528,1.0992366,12
2,0.11907959,0.02166748,-0.018859863,11.015267,0.6946565,2.4961832,12
3,0.118652344,0.023132324,-0.01574707,10.305344,-1.7862595,-0.14503817,12
4,0.12017822,0.025268555,-0.014038086,13.167939,-3.0305343,-0.9465649,12
5,0.11871338,0.02166748,-0.012390137,16.23664,-5.1603055,-2.59542,12
6,0.12426758,0.020629883,-0.014953613,17.625954,-5.961832,-3.183206,12
7,0.122680664,0.020874023,-0.015075684,15.816793,-7.9923663,0.36641222,12
8,0.124816895,0.02331543,-0.018310547,15.877863,-6.5114503,1.9694656,12
9,0.124694824,0.018371582,-0.003479004,16.725191,-6.3053436,0.10687023,12
10,0.12640381,0.021118164,-0.009094238,14.137404,-6.0458016,-2.0458016,12
11,0.12774658,0.019104004,-0.012878418,12.183207,-3.0992367,-6.221374,12
12,0.122558594,0.017333984,-0.01159668,15.633588,1.0610687,-13.0992365,12
13,0.116882324,0.016357422,-0.00793457,27.465649,3.9389312,-16.580153,12
14,0.11920166,0.014709473,-0.010986328,44.51145,7.7633586,-14.40458,12
15,0.11456299,0.01159668,-0.008117676,47.29771,8.091603,-12.274809,12
16,0.117614746,0.010070801,-0.011108398,43.732826,6.9160304,-8.534351,12
17,0.11785889,0.008972168,-0.014221191,35.70229,5.816794,-6.2137403,12
18,0.11981201,0.012573242,-0.012451172,26.648855,4.0610685,-2.053435,12
19,0.11993408,0.010253906,-0.01550293,22.91603,0.740458,-0.9465649,12
20,0.124572754,0.013122559,-0.016174316,21.328245,-0.53435117,-0.129771,12
21,0.12646484,0.010437012,-0.013671875,23.984734,-2.29771,-5.9541984,12
22,0.12872314,0.007446289,-0.01574707,28.160305,-4.8015265,-10.633588,12
23,0.12573242,0.006164551,-0.012023926,29.57252,-6.442748,-13.343512,12
24,0.12670898,0.0034179688,-0.010925293,30.503817,-8.40458,-12.244275,12
25,0.123413086,0.0031738281,-0.012817383,28.610687,-7.366412,-10.053435,12
26,0.11834717,0.0036010742,-0.010070801,26.022902,-5.3053436,-5.7175574,12
27,0.114990234,0.002380371,-0.013305664,27.42748,-3.259542,-3.70229,12
28,0.11413574,0.001953125,-0.019165039,29.732824,-2.1068702,2.3435113,12
29,0.11462402,0.006286621,-0.0178833,33.87786,-0.8015267,7.1374044,12
30,0.11230469,0.0072631836,-0.014221191,35.82443,-0.3053435,8.2595415,12
31,0.115356445,0.005554199,-0.01550293,33.099236,-1.0992366,8.748092,12
32,0.11602783,0.008605957,-0.016723633,27.70229,-1.9847329,5.3816795,12
33,0.118652344,0.010009766,-0.020324707,27.793894,-7.5419846,-0.40458015,12
34,0.11730957,0.007019043,-0.018310547,23.465649,-7.2290077,-7.0839696,12
35,0.12365723,0.010192871,-0.014465332,21.595419,-7.961832,-14.648855,12
36,0.12768555,0.0061035156,-0.018432617,34.251907,-6.1984735,-18.25191,12
37,0.13195801,0.0032958984,-0.019104004,46.312977,-4.5419846,-18.900763,12
38,0.12408447,-0.0038452148,-0.022155762,62.29771,-6.1679387,-22.229008,12
39,0.12432861,-0.003540039,-0.022888184,59.969467,-7.3206105,-22.137405,12
40,0.11627197,-0.0060424805,-0.026733398,58.27481,-8.290076,-20.404581,12
41,0.10784912,-0.012145996,-0.024353027,41.969467,-12.343512,-18.305344,12
42,0.1005249,-0.00793457,-0.022827148,18.404581,-12.312977,-13.664123,12
43,0.1026001,-0.0040283203,-0.016357422,3.3969467,-11.816793,-9.40458,12
44,0.10858154,0.0015258789,-0.018188477,-3.2137403,-8.656488,-4.6030536,12
45,0.10632324,0.005126953,-0.015258789,-7.8015265,-6.0839696,-5.8625956,12
46,0.109680176,0.008117676,-0.018127441,-5.4274807,3.687023,-2.0839694,12
47,0.10797119,0.009643555,-0.012268066,5.0458016,11.045801,-5.038168,12
48,0.117248535,0.0079956055,-0.025512695,25.435114,16.534351,-4.7557254,12
49,0.115234375,0.006225586,-0.024780273,41.435116,22.091602,-6.9389315,12
50,0.11016846,0.0004272461,-0.023254395,48.244274,20.57252,-15.305344,12
51,0.11218262,-0.0001831055,-0.028076172,41.564884,20.580153,-16.045801,12
52,0.10662842,-0.010498047,-0.026855469,34.65649,18.091602,-14.816793,12
53,0.11651611,-0.004211426,-0.022888184,22.80916,17.267176,-13.816793,12
54,0.1182251,-0.007873535,-0.029174805,13.541985,14.648855,-7.740458,12
55,0.11785889,-0.006591797,-0.031188965,1.5267175,10.015267,-8.534351,12
56,0.116760254,0.0025634766,-0.034179688,-5.9389315,9.992367,-8.992367,12
57,0.12860107,0.007019043,-0.027404785,15.351145,11.671756,-9.374045,12
58,0.14764404,-0.0016479492,-0.029174805,21.885496,10.832061,-4.6870227,12
59,0.14257812,0.0013427734,-0.024169922,14.862596,0.2977099,-2.8473282,12
60,0.13336182,0.0010986328,-0.025390625,9.946565,-2.1755726,-6.1603055,12
61,0.116760254,-0.001159668,-0.01727295,-6.4961834,-7.6412215,-14.38168,12
62,0.111206055,0.004760742,-0.011352539,-16.954199,-12.931297,-21.305344,12
63,0.113586426,0.006225586,-0.008300781,-23.213741,-11.893129,-22.183207,12
64,0.11212158,0.01171875,-0.008056641,-25.793894,-7.7099237,-20.595419,12
65,0.115478516,0.014709473,-0.0031738281,-18.229008,-0.740458,-13.977099,12
66,0.11462402,0.016723633,-0.0021362305,-1.1526718,6.7862597,-9.366412,12
67,0.11932373,0.015075684,0.0071411133,23.198473,11.954199,-5.557252,12
68,0.11505127,0.008605957,0.004211426,29.091602,11.305344,-6.10687,12
69,0.11273193,0.007751465,0.0026245117,23.145039,12.427481,-8.679389,12
70,0.10986328,0.014587402,0.0026245117,26.70229,12.335877,-7.6793895,12
71,0.115112305,0.012756348,0.004333496,38.015266,11.977099,-0.71755725,12
72,0.11816406,0.011291504,0.0012207031,38.44275,9.465649,5.19084,12
73,0.122924805,0.01361084,0.0072631836,23.755726,10.916031,7.923664,12
74,0.12487793,0.016296387,0.0038452148,7.5725193,7.9465647,12.030535,12
75,0.12182617,0.026123047,-0.0045166016,-1.1450381,6.6488547,6.4351144,12
76,0.113586426,0.026367188,-0.001953125,-4.854962,8.4198475,-2.6717558,12
77,0.11230469,0.029174805,0.0025024414,3.6946564,8.045801,-13.78626,12
78,0.117248535,0.02545166,0.005554199,16.32061,6.259542,-20.549618,12
79,0.11706543,0.020996094,0.006225586,27.343512,3.351145,-22.053434,12
80,0.1184082,0.014831543,0.008483887,32.969467,7.59542,-21.267176,12
81,0.120788574,0.012268066,0.0030517578,40.51145,8.290076,-19.992367,12
82,0.11553955,0.009399414,-0.0014038086,43.50382,9.709924,-14.824428,12
83,0.11242676,0.009277344,-0.0056762695,41.984734,12.061069,-7.3587785,12
84,0.121032715,0.008972168,-0.018920898,35.809162,7.5267177,4.038168,12
85,0.11816406,0.008178711,-0.011230469,23.931297,7.9465647,9.480916,12
86,0.12084961,0.011779785,-0.010498047,14.206107,0.27480915,10.946565,12
87,0.11798096,0.0146484375,-0.01171875,5.10687,-3.9160306,10.938931,12
88,0.11553955,0.016662598,-0.009521484,1.4198474,-7.0076337,3.9541984,12
89,0.1138916,0.019470215,-0.012573242,0.5496183,-8.2213745,2.2900763,12
90,0.12445068,0.022338867,-0.005554199,6.145038,-5.3053436,6.412214,12
91,0.12188721,0.016296387,-0.0030517578,10.801527,-7.7633586,7.3587785,12
92,0.13128662,0.014282227,-0.0022583008,5.816794,-4.9694657,2.5801528,12
93,0.1338501,0.015258789,-0.0057373047,3.59542,0.86259544,3.534351,12
94,0.1295166,0.01953125,-0.002746582,1.9389313,2.1145039,-9.114504,12
95,0.12420654,0.022644043,-0.010192871,8.480916,3.0152671,-15.183207,12
96,0.11248779,0.018310547,-0.0040283203,21.167938,-0.64122134,-23.687023,12
97,0.11633301,0.013122559,-0.0063476562,32.709923,-2.1068702,-28.877863,12
98,0.11578369,0.008239746,-0.010009766,36.755726,-5.068702,-26.198473,12
99,0.11279297,0.0072631836,-0.0018920898,36.801525,-8.9007635,-28.244274,12
100,0.11798096,-0.0018920898,-0.006286621,33.664124,-7.8244276,-30.045801,12
101,0.11743164,-0.0006713867,-0.009094238,32.12214,-3.1145039,-22.48855,12
102,0.119018555,0.0030517578,-0.01550293,38.076336,-3.610687,-16.984734,12
103,0.116882324,0.0037231445,-0.020263672,42.16794,-4.5725193,-12.610687,12
104,0.117614746,0.009887695,-0.029296875,44.045803,-7.6946564,-13.0992365,12
105,0.119628906,0.012634277,-0.020935059,45.25954,-17.80916,-18.580153,12
106,0.12451172,0.014587402,-0.01373291,45.030533,-24.923664,-31.351145,12
107,0.13195801,0.015319824,-0.013122559,39.328243,-31.503817,-40.16794,12
108,0.1282959,0.015380859,-0.012451172,30.122137,-31.580153,-50.732826,12
109,0.12670898,0.01361084,-0.0154418945,20.89313,-26.267176,-53.82443,12
110,0.11975098,0.015991211,-0.020263672,30.480917,-16.778625,-52.82443,12
111,0.1104126,0.01763916,-0.016052246,62.20611,-12.633588,-56.16794,12
112,0.10296631,0.009033203,-0.010375977,96.31298,-12.59542,-54.717556,12
113,0.099487305,0.006225586,-0.01977539,120.03817,-11.030535,-46.458015,12
114,0.09875488,0.0076293945,-0.026245117,112.900764,-10.7404585,-42.549618,12
115,0.09716797,0.0087890625,-0.021118164,86.503815,-12.396947,-31.419847,12
116,0.098083496,0.008117676,-0.03466797,59.694656,-9.358779,-29.305344,12
117,0.097961426,0.010070801,-0.024108887,35.664124,-4.7251906,-28.931297,12
118,0.10864258,0.020935059,-0.02734375,21.519083,-2.053435,-33.17557,12
119,0.113098145,0.023742676,-0.027770996,13.183207,-0.32824427,-46.305344,12
120,0.111083984,0.03277588,-0.029418945,17.832062,-2.8015268,-54.717556,12
121,0.113464355,0.03668213,-0.040405273,28.664122,-1.4732825,-56.389313,12
122,0.114990234,0.030395508,-0.03326416,34.10687,0.22900763,-62.10687,12
123,0.114746094,0.03338623,-0.040283203,54.992367,-2.610687,-67.8855,12
124,0.10412598,0.026977539,-0.037475586,77.57252,-8.916031,-66.62595,12
125,0.10107422,0.022155762,-0.038146973,82.938934,-16.610687,-55.38168,12
126,0.10083008,0.017089844,-0.033813477,78.43511,-17.732824,-54.229008,12
127,0.10296631,0.011291504,-0.032409668,64.29771,-24.328245,-42.93893,12
128,0.10076904,0.0056152344,-0.028259277,47.816795,-16.93893,-28.67939,12
129,0.1003418,0.0015258789,-0.028747559,24.419847,-10.129771,-17.526718,12
130,0.10253906,-0.0053710938,-0.027954102,3.1068702,3.572519,-5.0992365,12
131,0.097717285,-0.0034179688,-0.026916504,1.1984733,14.969465,6.854962,12
132,0.093322754,-0.0045776367,-0.022094727,3.0839694,26.328245,20.290077,12
133,0.09301758,-0.0045166016,-0.016296387,-7.9465647,36.14504,33.648853,12
134,0.095214844,-0.0057373047,-0.011169434,-26.312977,43.007633,48.091602,12
135,0.103149414,-0.008483887,-0.0032348633,-50.34351,53.64122,63.809162,12
136,0.11151123,-0.011047363,0.004699707,-80.229004,63.694656,79.69466,12
137,0.11895752,-0.0017089844,0.0030517578,-104.72519,70.12214,89.854965,12
138,0.13360596,0.019104004,-0.0138549805,-66.75572,68.091606,100.80916,12
139,0.14025879,0.018981934,-0.02545166,6.587786,60.14504,104.26717,12
140,0.12750244,0.012145996,-0.037719727,21.404581,51.61832,104.51145,12
141,0.13287354,0.010070801,-0.035339355,-12.450381,52.76336,96.259544,12
142,0.13757324,0.012634277,-0.016357422,-34.625954,40.045803,78.79389,12
143,0.12597656,0.008666992,0.0037231445,-51.91603,22.206106,58.59542,12
144,0.114746094,0.0064697266,0.0043945312,-68.01527,28.67939,44.732826,12
145,0.12023926,0.015380859,0.0015258789,-85.79389,33.51145,28.832062,12
146,0.12536621,0.01965332,0.004272461,-93.900764,27.725191,17.374046,12
147,0.1282959,0.028747559,0.0044555664,-89.65649,11.656488,4.9465647,12
148,0.1296997,0.01965332,0.011779785,-87.778625,12.78626,-1.9007634,12
149,0.12390137,0.024414062,0.005432129,-87.62595,16.175573,-10.251908,12
150,0.11907959,0.026977539,0.0015258789,-79.580154,14.061069,-22.93893,12
151,0.107055664,0.026306152,0.006286621,-56.839695,19.38168,-30.435114,12
152,0.11450195,0.023986816,0.0053710938,-24.89313,21.793894,-33.290077,12
153,0.11834717,0.020141602,0.001953125,14.801527,18.603054,-30.213741,12
154,0.12207031,0.014343262,6.1035156E-05,47.312977,16.694656,-29.23664,12
155,0.12054443,0.003967285,-0.009216309,64.99236,18.900763,-23.786259,12
156,0.13171387,0.0002441406,-0.010803223,70.48092,15.068703,-18.541985,12
157,0.13018799,-0.0036621094,-0.010009766,60.572517,5.7251906,-17.984734,12
158,0.12017822,-0.0031738281,-0.014587402,40.65649,-1.0305344,-13.358779,12
159,0.12207031,-0.008056641,-0.0022583008,14.488549,-6.5038166,-16.67939,12
160,0.12207031,-0.0056762695,-0.00390625,-11.435115,-7.519084,-13.984733,12
161,0.12768555,-0.0004882813,-0.0072631836,-21.23664,-8.755725,-8.893129,12
162,0.12634277,-0.0024414062,-0.004760742,-19.931297,-16.282442,-6.4351144,12
163,0.12841797,-0.005126953,-0.010986328,-23.122137,-18.38168,-3.0305343,12
164,0.13183594,-0.0068969727,-0.0076293945,-38.244274,-17.221375,0.091603056,12
165,0.122924805,-0.0036621094,-0.002319336,-56.89313,-20.984734,4.5343513,12
166,0.13549805,0.0037231445,-0.0072021484,-67.19847,-17.816793,5.40458,12
167,0.12548828,0.006225586,-0.0095825195,-61.83206,-16.732824,6.6793895,12
168,0.11791992,0.0034179688,-0.0087890625,-45.458015,-17.625954,-0.14503817,12
169,0.11175537,-0.0020751953,0.003967285,-31.770992,-14.076336,-5.671756,12
170,0.11651611,-0.0049438477,-0.0014648438,-32.34351,-14.748092,-10.167939,12
171,0.11175537,-0.009521484,0.014404297,-35.587788,-16.389313,-7.7938933,12
172,0.11541748,-0.00982666,0.016113281,-44.908398,-13.297709,-2.9770992,12
173,0.11987305,-0.008666992,0.01776123,-53.045803,-10.305344,3.1221373,12
174,0.11895752,-0.011047363,0.0134887695,-57.312977,-8.015267,6.2137403,12
175,0.11566162,-0.012207031,0.008911133,-56.610687,-1.70229,12.061069,12
176,0.11407471,-0.008911133,0.0059814453,-57.51145,3.427481,19.312977,12
177,0.11920166,-0.0040893555,0.013183594,-53.572517,7.9923663,28.534351,12
178,0.113220215,-0.0037231445,-0.0072631836,-46.93893,4.89313,35.870228,12
179,0.115234375,-0.0017089844,-0.0025634766,-50.969467,4.10687,39.51145,12
180,0.11352539,-0.0005493164,0.0064697266,-70.91603,-2.59542,38.862595,12
181,0.113464355,0.0001220703,0.0061035156,-90.65649,-6.259542,31.38168,12
182,0.115478516,0.0051879883,0.0041503906,-108.66412,-9.671756,22.992367,12
183,0.11480713,0.0068969727,0.0004882813,-117.41222,-10.763359,12.549619,12
184,0.114746094,0.0107421875,-0.0045776367,-114.35114,-9.374045,0.9160305,12
185,0.11193848,0.012207031,-0.0029296875,-94.83206,-8.305344,-2.0992367,12
186,0.11798096,0.01171875,-0.0010375977,-66.61069,-4.854962,-2.519084,12
187,0.122924805,0.005126953,-0.010131836,-36.984734,-4.923664,-0.45038167,12
188,0.12652588,-0.0004882813,-0.014404297,-12.61832,-5.1679387,7.1221375,12
189,0.12036133,-0.0068359375,-0.012512207,7.0458016,-7.0076337,4.587786,12
190,0.12072754,-0.011474609,-0.011230469,10.61832,-10.480916,5.854962,12
191,0.11529541,-0.0154418945,-0.00970459,-3.0458016,-9.832061,3.9541984,12
192,0.11102295,-0.019348145,-0.0073242188,-32.51145,-10.198473,3.4351146,12
193,0.109069824,-0.018249512,-0.0119018555,-69.78626,-4.7709923,7.4351144,12
194,0.1081543,-0.010437012,-0.012268066,-93.23664,-2.8015268,16.435114,12
195,0.10803223,-0.0030517578,-0.012023926,-95.25191,-0.55725193,22.80916,12
196,0.11102295,-0.0012817383,-0.007385254,-95.221375,1.9465649,27.25191,12
197,0.1105957,0.0024414062,-0.007385254,-95.19084,5.5648856,34.587788,12
198,0.109802246,0.0037841797,-0.007385254,-98.76336,9.458015,35.015266,12
199,0.11340332,0.0059814453,-0.008361816,-98.01527,13.198473,33.458015,12
200,0.11816406,0.008972168,-0.011962891,-86.381676,16.290077,28.557251,12
201,0.12542725,0.008544922,-0.01953125,-54.55725,18.923664,24.496183,12
202,0.122680664,0.007751465,-0.016052246,-12.091603,12.610687,16.183207,12
203,0.12030029,-0.002380371,-0.017822266,3.0458016,10.870229,12.893129,12
204,0.12109375,-0.006958008,-0.012207031,-1.2137405,9.022901,4.2824426,12
205,0.1237793,-0.0072021484,-0.015197754,-23.534351,4.5267177,-1.6793894,12
206,0.12036133,-0.0018920898,-0.01586914,-47.35878,-1.5267175,-6.3129773,12
207,0.110839844,-0.000793457,-0.016845703,-55.67939,-2.7328243,-13.198473,12
208,0.123168945,0.002319336,-0.018554688,-59.08397,-0.79389316,-11.305344,12
209,0.12939453,0.0018920898,-0.02368164,-56.458015,0.33587787,-7.6183205,12
210,0.12084961,0.0068969727,-0.021057129,-42.099236,-6.7480917,-4.2290077,12
211,0.109680176,0.004760742,-0.011108398,-33.519085,-10.137404,1.0305344,12
212,0.10424805,0.0021972656,-0.0087890625,-41.633587,-11.198473,-0.5648855,12
213,0.11376953,0.004760742,-0.010131836,-56.35878,-13.488549,-4.2748094,12
214,0.11773682,0.0057373047,-0.009277344,-59.91603,-13.541985,-3.648855,12
215,0.11090088,0.009887695,-0.006286621,-63.870228,-12.022901,-7.4274807,12
216,0.11627197,0.014465332,-0.00390625,-59.9771,-10.877863,-6.8625956,12
217,0.11621094,0.011169434,-0.0022583008,-49.687023,-6.3129773,-12.748092,12
218,0.12011719,0.01361084,-0.0016479492,-36.389313,-4.0152674,-13.267176,12
219,0.12011719,0.010009766,0.0008544922,-23.76336,-5.1374044,-9.229008,12
220,0.12310791,0.007507324,0.0028686523,-25,-2.4503818,-5.6793895,12
221,0.1227417,0.006591797,-0.002746582,-39.47328,2.557252,-1.0687023,12
222,0.11553955,0.009460449,-0.009094238,-51.580154,5.9770994,6.6106873,12
223,0.113464355,0.015136719,-0.0021362305,-50.10687,7,11.435115,12
224,0.11480713,0.019836426,-0.019470215,-45.229008,8.549619,14.687023,12
225,0.11920166,0.019592285,-0.014038086,-38.030533,8.80916,22.183207,12
226,0.12109375,0.018066406,-0.014953613,-34.328243,7.847328,28.458015,12
227,0.11981201,0.016113281,-0.005432129,-37.70229,3.9160306,26.42748,12
228,0.12188721,0.016357422,-0.014282227,-49.282444,0.3053435,22.832062,12
229,0.128479,0.011047363,-0.011108398,-70.28244,-2.3053436,19.366413,12
230,0.117004395,0.014282227,-0.0032348633,-80.56489,-5.625954,13.534351,12
231,0.11853027,0.014404297,-0.002319336,-79.12214,-8.488549,11.80916,12
232,0.117614746,0.012451172,-0.0003051758,-80.34351,-8.801527,10.045801,12
233,0.11956787,0.01550293,-0.0064086914,-69.64886,-6.5114503,15.770992,12
234,0.11968994,0.011230469,-0.0059814453,-55.79389,-6.3129773,17.305344,12
235,0.12011719,0.0068359375,-0.0014038086,-50.85496,-7.740458,24.694656,12
236,0.119384766,0.0048828125,-0.0004272461,-59.114502,-7.10687,22.068703,12
237,0.11968994,0.007019043,0.0001220703,-69.19847,-8.412213,22.19084,12
238,0.12017822,0.008422852,6.1035156E-05,-70.16794,-10.916031,19.770992,12
239,0.114990234,0.008178711,0.0045166016,-71.83969,-13.816793,16.442749,12
240,0.11212158,0.008239746,0.0030517578,-75.80916,-10.358779,13.938931,12
241,0.11218262,0.011169434,0.0010986328,-77.51145,-11.2213745,12.2595415,12
242,0.11431885,0.01361084,0.011657715,-73.541985,-10.480916,8.725191,12
243,0.110839844,0.012939453,0.0022583008,-64.65649,-7.3587785,7.664122,12
244,0.11035156,0.01763916,-0.003479004,-52.412212,-0.65648854,9.022901,12
245,0.11303711,0.01550293,-0.007751465,-33.198475,1.9236641,11,12
246,0.11260986,0.015319824,-0.011352539,-17.961832,6.1984735,11.610687,12
247,0.116760254,0.012756348,-0.014770508,0.6183206,6.923664,9.236641,12
248,0.12365723,0.011413574,-0.013671875,17.984734,4.4580154,7.633588,12
249,0.12670898,0.004699707,-0.016479492,32.053436,2.0305343,7.3816795,12
250,0.12908936,-0.0009765625,-0.013916016,35.755726,-1.6717557,4.9465647,12
251,0.1270752,-0.0068969727,-0.01586914,26.328245,-8.893129,-1.0229008,12
252,0.11993408,-0.009887695,-0.015686035,5.2366414,-11.679389,-12.068703,12
253,0.1126709,-0.012817383,-0.012145996,-16.595419,-12.427481,-17.458015,12
254,0.11102295,-0.008300781,-0.016357422,-29.335878,-8.992367,-15.702291,12
255,0.107055664,-0.001953125,-0.014587402,-24.312977,-8.938931,-11.389313,12
256,0.10632324,-0.0043945312,-0.014465332,-13.198473,-4.9694657,-2.167939,12
257,0.10992432,-0.0037841797,-0.012573242,-11.129771,-2.5114503,9.526717,12
258,0.11206055,-0.007385254,-0.008666992,-14.21374,1.0152671,15.984733,12
259,0.115600586,-0.0032958984,-0.0099487305,-19.152672,1.4503816,16.984734,12
260,0.119506836,-0.006286621,-0.009643555,-23.473282,1.8931298,19.526718,12
261,0.11413574,-0.0015258789,-0.009155273,-22.29771,1.6564885,16.206106,12
262,0.11517334,0.001953125,-0.01184082,-19.954199,2.5267177,14.877863,12
263,0.113464355,0.0004272461,-0.013122559,-14.801527,2.206107,12.015267,12
264,0.11462402,0.004211426,-0.01751709,-13.7786255,0.77099234,8.763359,12
265,0.11444092,0.001953125,-0.017211914,-15.824428,-0.86259544,8.862596,12
266,0.11236572,0.0034179688,-0.017333984,-15.366412,-0.7480916,8.862596,12
267,0.11444092,0.0032348633,-0.016418457,-18.213741,-1.5954199,6.6870227,12
268,0.11578369,0.0015258789,-0.01763916,-20.946566,-4.221374,2.1755726,12
269,0.117004395,0.0043945312,-0.015563965,-24.91603,-4.5496182,1.129771,12
270,0.11608887,0.003112793,-0.011169434,-26.648855,-5.6183205,-0.57251906,12
271,0.1182251,0.0060424805,-0.012329102,-24.06107,-5.5114503,-5.59542,12
272,0.11798096,0.0056152344,-0.011169434,-17.832062,-3.0229008,-7.152672,12
273,0.1171875,0.0030517578,-0.008728027,-17.229008,-0.41221374,-7.5496182,12
274,0.11920166,0.0024414062,-0.010009766,-14.374045,-0.08396947,-11.244275,12
275,0.115112305,0.001953125,-0.007751465,-6.038168,2.6030533,-12.961832,12
276,0.1149292,-0.0009765625,-0.008239746,-3.1603053,3.6183207,-15.938931,12
277,0.12670898,-0.0004272461,-0.013183594,2.442748,7.2748094,-12.770992,12
278,0.114868164,0.0002441406,-0.014831543,11.076336,8.893129,-16.167938,12
279,0.11920166,-0.005554199,-0.021850586,24.725191,9.496183,-14.068703,12
280,0.108947754,-0.0052490234,-0.022094727,37.328243,11.022901,-11.954199,12
281,0.11199951,-0.010437012,-0.02355957,41.89313,9.503817,-8.343512,12
282,0.11035156,-0.01361084,-0.01977539,40.55725,7.961832,-5.038168,12
283,0.11779785,-0.01739502,-0.025024414,32.038166,5.3893127,0.8015267,12
284,0.12036133,-0.016235352,-0.016052246,17.274809,-0.114503816,5.7938933,12
285,0.12390137,-0.015197754,-0.025817871,-3.053435,-5.8244276,7.4503818,12
286,0.1138916,-0.011413574,-0.023498535,-20.564886,-10.045801,0.39694658,12
287,0.109313965,-0.009460449,-0.013977051,-36.076336,-9.274809,-6.114504,12
288,0.11035156,-0.0041503906,-0.01171875,-43.435116,-9.21374,-6.4580154,12
289,0.10974121,-0.0006103516,-0.007446289,-44.29771,-9.114504,-5.114504,12
290,0.10949707,-0.0001220703,-0.004760742,-44.694656,-9,-4.0305343,12
291,0.11053467,0.0026245117,-0.0048217773,-38.458015,-1.3435115,-4.1221375,12
292,0.113220215,0.000793457,-0.0006713867,-29.992367,2.0076337,-3.7175572,12
293,0.1184082,0.0022583008,0.0020751953,-17.19084,2.442748,-2.1068702,12
294,0.12426758,-0.0009765625,0.001953125,-6,6.412214,-8.183207,12
295,0.12542725,-0.0040893555,0.0008544922,-2.259542,5.931298,-13.519084,12
296,0.12402344,-0.007019043,0.0004272461,-1.389313,4.5496182,-19.603054,12
297,0.123046875,-0.0072021484,-0.0012207031,-2.038168,5.59542,-23.42748,12
298,0.122558594,-0.0072631836,0.004272461,0.23664123,3.8549619,-22.57252,12
299,0.11645508,-0.0099487305,-0.003540039,-1.4503816,4.0229006,-21.12977,12
300,0.114746094,-0.008850098,6.1035156E-05,-6.0229006,2.5419848,-15.129771,12
301,0.113220215,-0.009094238,-0.0012817383,-9.236641,3.9541984,-8.335877,12
302,0.11187744,-0.010375977,0.003112793,-15.564885,4.1374044,-3.8244274,12
303,0.115356445,-0.010986328,-0.003112793,-24.923664,5.7251906,0.54198474,12
304,0.11273193,-0.009216309,0.000793457,-30.267176,8.557252,1.961832,12
305,0.11456299,-0.0064697266,-0.003967285,-31.740458,14.526717,4.7633586,12
306,0.116760254,-0.0032348633,-0.009033203,-27.480917,17.57252,13.641221,12
307,0.11920166,-0.0006713867,0.01739502,-17.099237,13.664123,19.61832,12
308,0.12084961,-0.0063476562,-0.000793457,-18.900763,15.015267,26.854961,12
309,0.11981201,-0.0028076172,0.001953125,-27.633587,12.442748,22.145039,12
310,0.11859131,-0.0008544922,0.0053100586,-40.076336,12.984733,18.671755,12
311,0.11138916,0.0015869141,0.0025024414,-50.290077,14.4198475,17.122137,12
312,0.10797119,0.0056152344,0.0029296875,-56.335876,19.435114,15.557252,12
313,0.11621094,0.010864258,0.013305664,-53.648853,26.534351,17.183207,12
314,0.13433838,0.012145996,0.010498047,-42.70229,35.160305,23.847328,12
315,0.13494873,0.018981934,-0.0018920898,-15.0992365,35.282444,34.16794,12
316,0.123291016,0.016540527,-0.011352539,12.40458,33.717556,33.59542,12
317,0.11657715,0.013549805,-0.0068969727,17.969465,35.29771,29.045801,12
318,0.11871338,0.012573242,-0.0028076172,0.26717559,33.44275,24.335878,12
319,0.12542725,0.017944336,-0.005554199,-21.969465,27.038168,21.290077,12
320,0.12335205,0.031066895,-0.013916016,-36.610687,20.206106,17.534351,12
321,0.124572754,0.033447266,-0.01965332,-40.15267,15.137404,9.282443,12
322,0.11773682,0.03564453,-0.012268066,-28.404581,5.0076337,-7.2442746,12
323,0.1204834,0.028259277,-0.0057373047,-19.824427,-3.1526718,-23.29771,12
324,0.12445068,0.024597168,-0.0053710938,-15.770992,-7.335878,-45.67939,12
325,0.12683105,0.01928711,-0.002746582,-2.832061,-14.412213,-47.91603,12
326,0.12799072,0.012756348,0.004638672,0.3740458,-20.931297,-51.885498,12
327,0.12738037,0.0068359375,-0.0059814453,-4.8702292,-24.389313,-55.572517,12
328,0.12487793,0.010986328,-0.0020141602,-1.6946565,-23.198473,-54.709923,12
329,0.12133789,0.0034179688,-0.0032958984,3.442748,-24.198473,-54.519085,12
330,0.11853027,0.003112793,-0.0045776367,4.2748094,-24.12977,-49.541985,12
331,0.112976074,0.0015258789,-0.001159668,13.480916,-20.42748,-35.229008,12
332,0.11437988,0.0057373047,0.0005493164,18.793894,-21.099237,-19.61832,12
333,0.11206055,0.002319336,-0.0025634766,19.442749,-19.08397,-8.633588,12
334,0.11999512,0.0036010742,-0.0043945312,12.427481,-16.175573,2.40458,12
335,0.11987305,0.003540039,-0.0064086914,0.8015267,-15.664123,12.7786255,12
336,0.12188721,0.0079956055,-0.0043945312,4.114504,-17,14.366412,12
337,0.119018555,0.0071411133,0.0032348633,13.458015,-16.793894,16.51145,12
338,0.117004395,0.00390625,-0.0014038086,6.885496,-15.702291,16.89313,12
339,0.11621094,0.0048217773,-0.0064086914,-14.412213,-10.389313,7.366412,12
340,0.112854004,0.0072021484,-0.0007324219,-29.664122,-3.221374,2.8854961,12
341,0.117126465,0.01727295,-0.0014038086,-19.625954,1.8549619,1.0076336,12
342,0.11364746,0.016052246,0.007019043,-3.5419848,6.6564884,6.5114503,12
343,0.112976074,0.014160156,0.0072021484,7.6106873,13.641221,10.9007635,12
344,0.115722656,0.014160156,0.004699707,12.251908,17.954199,13.458015,12
345,0.12072754,0.0146484375,0.0014038086,17.61832,22.458015,11.229008,12
346,0.12475586,0.012817383,0.0018920898,29.099237,19.465649,12.633588,12
347,0.12414551,0.009277344,0.0029907227,36.10687,16.045801,2.687023,12
348,0.12731934,0.0053100586,-0.0007324219,41.290077,10.465649,-4.4351144,12
349,0.12359619,-0.0003051758,0.003540039,34.580154,2.5267177,-16.08397,12
350,0.12005615,-0.0026245117,-0.0020141602,20.442749,-3.870229,-27.29771,12
351,0.11816406,-0.0012817383,-0.0031738281,15.793893,-7.0992365,-30.328245,12
352,0.114746094,-0.002380371,-0.0020751953,13.19084,-13.732824,-29.229008,12
353,0.111816406,-0.004699707,-0.0021362305,2.1374047,-14.954199,-27.885496,12
354,0.11895752,-0.005065918,-0.0051879883,-5.076336,-17.267176,-19.015266,12
355,0.11932373,-0.0061035156,0.0026245117,-6.5801525,-21.755726,-14.816793,12
356,0.11578369,-0.010192871,0.008239746,-18.358778,-24.23664,-15.007633,12
357,0.115478516,-0.009216309,0.009033203,-35.64122,-16.458015,-18.12977,12
358,0.115478516,-0.0072631836,0.004272461,-37.290077,-8.374045,-22.091602,12
359,0.11578369,-0.0067749023,-0.0012207031,-26.114504,-2.4961832,-16.229008,12
360,0.11431885,-0.006652832,0.004638672,-12.290076,4.4732823,-4.7557254,12
361,0.11505127,-0.0044555664,0.0053100586,6.4961834,8.832061,9.328244,12
362,0.11993408,-0.0072021484,0.002319336,21.541985,12.885496,21.114504,12
363,0.12261963,-0.010192871,-0.002319336,15.534351,12.908397,31.030535,12
364,0.1194458,-0.008300781,-0.0045776367,4.9160304,9.5801525,37.29771,12
365,0.11608887,-0.013916016,0.0043945312,-15.0992365,6.038168,39.717556,12
366,0.11212158,-0.0138549805,0.005004883,-58.709923,8.458015,38.549618,12
367,0.117370605,-0.0018310547,-0.0036621094,-98.9542,10.671756,43.091602,12
368,0.119018555,0.0056762695,-0.0033569336,-111.58778,10.152672,42.946564,12
369,0.1251831,0.016357422,-0.0041503906,-101.70229,14.7404585,43.27481,12
370,0.12054443,0.021057129,-0.011657715,-77.36641,19.152672,36.458015,12
371,0.11907959,0.022644043,-0.01373291,-40.32061,22.87023,22.328245,12
372,0.13232422,0.0211792,-0.0048828125,-5.5419846,24.740458,7.328244,12
373,0.1385498,0.015625,-0.0003051758,12.587787,21.076336,-6.10687,12
374,0.1427002,0.0072631836,0.0016479492,26.206106,8.541985,-22.503817,12
375,0.13043213,-0.0029907227,0.0044555664,32.801525,-6.9389315,-44.06107,12
376,0.1217041,-0.012145996,0.00579834,11.4198475,-15.2595415,-54.290077,12
377,0.117248535,-0.016418457,0.0071411133,-34.694656,-12.671756,-59.49618,12
378,0.10632324,-0.012512207,-0.0005493164,-59.580154,-3.2290077,-54.305344,12
379,0.10308838,-0.0033569336,-0.0115356445,-42.015266,5.8778625,-40.694656,12
380,0.10089111,0.0025024414,-0.018615723,-4.7328243,9.977099,-14.511451,12
381,0.10473633,-6.1035156E-05,-0.016296387,38.290077,8.7404585,10.725191,12
382,0.111083984,0.0014648438,-0.017456055,77.03053,9.015267,29.847328,12
383,0.11279297,-0.009094238,-0.016601562,97.19847,1.038168,41.374046,12
384,0.11639404,-0.01550293,-0.010131836,81,-7.8320613,43.801525,12
385,0.11291504,-0.02154541,-0.011169434,38.65649,-3.572519,44.137405,12
386,0.12042236,-0.017578125,-0.010681152,-12.083969,4.9541984,42.183205,12
387,0.12506104,0.0016479492,-0.0076904297,-17.969465,5.40458,38.809162,12
388,0.14746094,0.008911133,0.0010986328,5.3587785,17.412214,42.50382,12
389,0.13104248,0.007507324,-0.010437012,29.412214,15.755725,41.412212,12
390,0.10662842,0.009033203,-0.014038086,62.015266,12.78626,21.19084,12
391,0.09802246,0.012634277,-0.01574707,103.503815,28.343512,8.702291,12
392,0.11071777,0.014038086,-0.015930176,150.45038,38.770992,2.183206,12
393,0.115478516,0.015014648,-0.013122559,198.35115,28.74809,6.152672,12
394,0.1227417,0.012084961,-0.0032348633,228.83969,7.9694657,7.6488547,12
395,0.114868164,0.0007324219,-0.0048217773,219.38931,-6.778626,14.198473,12
396,0.10620117,-0.013977051,-0.005004883,170.67175,-24.832062,4.6106873,12
397,0.123168945,-0.014831543,-0.008300781,114.79389,-39.580154,0.9694657,12
398,0.14691162,-0.0146484375,-0.0041503906,64.16031,-64.1145,1.4351145,12
399,0.14648438,-0.018920898,0.03753662,-4.5038166,-97.229004,-15.854961,12
400,0.14605713,-0.016357422,0.02911377,-76.580154,-108.01527,-41.885498,12
401,0.1394043,-0.017578125,0.033691406,-119.938934,-102.57252,-54.038166,12
402,0.12719727,-0.0040893555,0.014099121,-110.51908,-104.45038,-64.862595,12
403,0.10620117,0.008911133,0.012084961,-54.82443,-113.76336,-60.10687,12
404,0.105407715,0.008850098,0.018737793,-9.343512,-96.419846,-55.007633,12
405,0.10797119,-0.009094238,0.010070801,-2.4580152,-80,-39.610687,12
406,0.11047363,-0.009338379,0.0154418945,-16.977098,-65.61069,-38.87786,12
407,0.103881836,-0.0045776367,0.0115356445,-23.67939,-50.564884,-41.84733,12
408,0.09686279,-0.009094238,-0.003112793,-16.839695,-31.51145,-41.290077,12
409,0.10614014,-0.012084961,-0.006652832,-17.358778,-7.9847326,-37.870228,12
410,0.105651855,-0.014709473,-0.002746582,-23.587786,6.7328243,-32.900764,12
411,0.103515625,-0.01361084,-0.013305664,-18.335878,18.183207,-34.068703,12
412,0.10675049,-0.012512207,-0.013366699,-0.45801526,33.351147,-27.717558,12
413,0.11401367,-0.016845703,-0.01159668,13.755725,42.931297,-22.770992,12
414,0.115112305,-0.01776123,-0.010131836,23.274809,48.015266,-12.496183,12
415,0.11694336,-0.018005371,-0.0134887695,25.641222,57.809162,-1.3816794,12
416,0.12109375,-0.01965332,-0.014587402,18.80916,66.73283,13.183207,12
417,0.124938965,-0.019042969,-0.020690918,16.374046,65.778625,23.877863,12
418,0.12695312,-0.017150879,-0.01763916,15.564885,64.496185,32.984734,12
419,0.12188721,-0.016540527,-0.01171875,14.343512,58.38168,36.49618,12
420,0.12438965,-0.014526367,-0.0099487305,9.839695,57.50382,39.38168,12
421,0.12298584,-0.01373291,-0.008178711,4,50.64122,37.923664,12
422,0.124694824,-0.015563965,-0.0048828125,-11.053435,45.587788,35.59542,12
423,0.12347412,-0.012634277,-0.0079956055,-29.595419,43.29771,33.198475,12
424,0.12310791,-0.008422852,-0.006958008,-44.961834,41.335876,34.08397,12
425,0.12579346,-0.0060424805,-0.0010986328,-55.427483,37.50382,33.954197,12
426,0.12573242,-0.005432129,-0.0060424805,-64.03053,37.870228,38.748093,12
427,0.1184082,0,-0.0031738281,-65.618324,34.038166,40.312977,12
428,0.12414551,0.0018310547,-0.013671875,-64.64886,35.038166,40.030533,12
429,0.12231445,0.004760742,-0.008483887,-56.64122,30.42748,39.82443,12
430,0.12121582,0.005859375,-0.0052490234,-44.15267,24.23664,35.91603,12
431,0.12084961,0.009155273,-0.007019043,-27.862595,16.770992,31.671755,12
432,0.116882324,0.0063476562,-0.0076904297,-9.38168,8.908397,20.366413,12
433,0.11566162,0.0052490234,-0.010070801,1.2824427,-0.6183206,2.8778627,12
434,0.12072754,0.004699707,-0.0087890625,4.7251906,-9.824428,-12.312977,12
435,0.12371826,0.0012207031,-0.0040893555,0.122137405,-15.847328,-27.450382,12
436,0.12402344,-0.0008544922,-0.005065918,-1.908397,-23.854961,-38.93893,12
437,0.12902832,-0.0025024414,0.022949219,-5.6106873,-32.15267,-49.79389,12
438,0.123291016,-0.0063476562,-0.0018310547,-20.977098,-37.221375,-52.29771,12
439,0.12420654,-0.0045776367,-0.0009155273,-35.32061,-39.67939,-64.38931,12
440,0.12524414,-0.0006713867,0.0016479492,-37.12214,-40.50382,-78.57252,12
441,0.12347412,-0.0041503906,-0.0009155273,-33.839695,-41.671757,-82.83969,12
442,0.12084961,-0.0030517578,0.0021972656,-24.671755,-38.305344,-85.183205,12
443,0.12036133,-0.0051879883,0.008056641,-18.29771,-31.557251,-86.16794,12
444,0.11218262,-0.0044555664,0.0028076172,-13.633588,-25.694656,-79.03817,12
445,0.113342285,-0.0012817383,0.0024414062,-11.870229,-19.213741,-69.183205,12
446,0.11907959,-0.00390625,0.008544922,-14.938931,-14.030535,-60.694656,12
447,0.12371826,-0.0004272461,0.009277344,-25.282442,-6.6564884,-54.70229,12
448,0.113098145,-0.0006713867,0.010375977,-30.801527,2.59542,-51.969467,12
449,0.11590576,0.0013427734,0.009643555,-28.778625,8.9007635,-42.229008,12
450,0.1159668,0.009033203,0.0037841797,-20.198473,14.145039,-27.450382,12
451,0.11376953,0.013549805,-0.002380371,-1.740458,13.7404585,-14.351145,12
452,0.109436035,0.017089844,-0.0064086914,11.931297,7.6183205,-4.4198475,12
453,0.11151123,0.02557373,-0.0064086914,8.183207,-3.0610688,-4.0305343,12
454,0.10723877,0.023071289,-0.008728027,-18.51145,-14.511451,-16.175573,12
455,0.10498047,0.029052734,0.0014038086,-33.053436,-24.366413,-22.282442,12
456,0.09869385,0.0368042,-0.0057373047,-40.17557,-25.580153,-18.328245,12
457,0.099487305,0.043884277,-0.0028076172,-48.435116,-23.76336,-12.755725,12
458,0.10192871,0.049316406,-0.008544922,-43.183205,-23.23664,-2.3816793,12
459,0.10168457,0.0491333,-0.0060424805,-46.091602,-14.106871,10.549619,12
460,0.09765625,0.049987793,-0.007751465,-52.40458,1.4045801,23.007633,12
461,0.09643555,0.05255127,-0.010009766,-54.770992,19.015266,31.709923,12
462,0.10003662,0.053527832,-0.010314941,-34.89313,33.610687,38.0229,12
463,0.11279297,0.049987793,-0.011657715,5.816794,43.52672,48.244274,12
464,0.12677002,0.044921875,-0.006164551,47.961834,42.290077,59.14504,12
465,0.13024902,0.038330078,0.0017089844,70.824425,37.40458,59.15267,12
466,0.13415527,0.029785156,-0.0021362305,76.16794,30.160305,57.74046,12
467,0.13922119,0.02355957,0.0017700195,79.26717,20.824427,44.251907,12
468,0.14215088,0.016235352,0.007751465,70.0687,9.923664,30.442749,12
469,0.13421631,0.011047363,0.007080078,40.89313,-2.6183207,8.068703,12
470,0.13085938,0.007873535,0.0051879883,6.7557254,-6.1603055,-12.2213745,12
471,0.13446045,0.0087890625,0.009033203,-20,-6.8702292,-29.282442,12
472,0.1329956,0.013183594,0.011352539,-21.87023,-9.0992365,-41.312977,12
473,0.12475586,0.015930176,0.007873535,-7.59542,-7.3206105,-42.954197,12
474,0.1272583,0.014160156,0.008911133,7.5038166,-1.70229,-38.84733,12
475,0.13287354,0.0126953125,0.0072021484,28.48855,3.4351146,-22.778625,12
476,0.12835693,0.0138549805,0.004638672,50.267174,5.5038166,-7.1984735,12
477,0.12921143,0.0099487305,0.016479492,60.435116,8.458015,4,12
478,0.1361084,0.0076293945,0.007507324,65.381676,16.580153,20.91603,12
479,0.12414551,0.0072631836,0.0032958984,83.70229,14.671756,23.557251,12
480,0.12475586,0.007019043,0.0017089844,101.74809,4.1297708,24.183207,12
481,0.113708496,-0.0015258789,-0.004638672,107.76336,-5.2290077,17.160305,12
482,0.09765625,-0.005065918,-0.0041503906,105.80153,-16.847328,6.3969464,12
483,0.08795166,-0.011413574,-0.0095825195,85.854965,-27.709923,-2.351145,12
484,0.07788086,-0.015380859,-0.0009765625,51.49618,-26.664122,-7.038168,12
485,0.07281494,-0.012634277,-0.00390625,2.9541984,-25.282442,-2.5496182,12
486,0.079956055,-0.0056762695,-0.0024414062,-32.053436,-18.541985,6.7633586,12
487,0.0904541,0.0001831055,0.0052490234,-65.770996,-9.7404585,17.740458,12
488,0.09698486,0.0018920898,0.0053100586,-100.0687,-0.4274809,28.145039,12
489,0.105285645,-0.0009765625,0.0029907227,-126.503815,4.5725193,31.541985,12
490,0.124938965,0.0015258789,-0.006286621,-135.60306,2.4503818,36.480915,12
491,0.12609863,-0.0010375977,0.0072631836,-142.32062,-3.351145,23.87023,12
492,0.14715576,0.002746582,0.005493164,-145.49619,-5.114504,11.969465,12
493,0.15008545,0.0119018555,0.0076293945,-120.419846,1.1374046,-0.83206105,12
494,0.13922119,0.016418457,-0.0067749023,-72.89313,-3.6259542,-11.030535,12
495,0.12976074,0.014770508,-0.0024414062,-20.213741,-7.7557254,-16.717558,12
496,0.119384766,0.010437012,0.00592041,9.694656,-5.5343513,-15.2213745,12
497,0.11651611,0.0061035156,0.0072631836,13.992367,-1.3816794,-8.480916,12
498,0.10888672,0.0064697266,-0.0012207031,4.778626,3.7099237,-2.3282442,12
499,0.1027832,0.00970459,0.0029907227,2.5877862,12.78626,5.3206105,12
500,0.107910156,0.008300781,0.0024414062,1.4045801,21.93893,17.038168,12
501,0.113708496,0.010559082,0.0057373047,-3.0610688,24.274809,27.198473,12
502,0.1204834,0.009765625,0.01751709,-4.80916,25.816793,34.160305,12
503,0.12731934,0.0099487305,0.0063476562,-15.503817,23.977098,38.190838,12
504,0.12854004,0.0076904297,0.0064697266,-32.08397,20.778625,31.282442,12
505,0.13214111,0.0073242188,0.0049438477,-52.93893,18.740458,16.57252,12
506,0.13781738,0.0072631836,-0.0015869141,-64.816795,18.473282,1.4961832,12
507,0.15179443,0.009338379,-0.009521484,-56.045803,10.7404585,-11.893129,12
508,0.14916992,0.0065307617,-0.004760742,-36.32061,-6.2900763,-31.374046,12
509,0.12731934,-0.000793457,-0.00793457,-29.282442,-22.06107,-48.778625,12
510,0.116882324,-0.0034179688,-0.009338379,-29.404581,-21.496183,-60.44275,12
511,0.11999512,0.0009155273,0.001953125,-26.603054,-17.847328,-61.78626,12
512,0.11431885,0.0061035156,-0.011291504,-19.137405,-16.847328,-54.091602,12
513,0.11114502,0.00592041,-0.012084961,-2.793893,-13.274809,-50.664124,12
514,0.09295654,0.009094238,-0.00592041,14.450381,-2.534351,-18.839695,12
515,0.08892822,0.008666992,-0.00592041,26.114504,6.70229,8.984733,12
516,0.097473145,0.0068359375,-0.003112793,36.61832,15.015267,29.641222,12
517,0.10266113,0.0022583008,-0.0017089844,29.259542,20.290077,48.549618,12
518,0.111572266,0.0029296875,-0.0012817383,17.343512,18.57252,64.1145,12
519,0.12158203,0.0010375977,0.0034179688,5.1603055,15.007633,70.19084,12
520,0.12597656,0.0014648438,0.010009766,-21.23664,12.641221,65.29771,12
521,0.12890625,0.004211426,0.007507324,-47.755726,8.770992,54.709923,12
522,0.1328125,0.0078125,0.0051879883,-56.183205,10.656488,38.160305,12
523,0.1416626,0.012390137,0.0015869141,-45.610687,7.8320613,20.114504,12
524,0.13616943,0.014465332,0.0013427734,-16.755726,-1.5572519,2.7633588,12
525,0.12243652,0.013916016,0.0014038086,16.816793,-9.2595415,-16.343512,12
526,0.1194458,0.010559082,0.0015869141,40.366413,-9.2213745,-31.32061,12
527,0.1159668,0.0048828125,0.0017700195,49.312977,-11.557252,-35.183205,12
528,0.113586426,0.0033569336,0.000793457,46.427483,-14.572519,-38.87786,12
529,0.11206055,0.0017700195,0.0003662109,37.068703,-15.763359,-34.374046,12
530,0.11126709,0.0016479492,-0.0004272461,20.076336,-13.656488,-26.419847,12
531,0.109191895,0.0026245117,0.0012207031,4.2442746,-12.610687,-19.198473,12
532,0.111328125,0.006225586,0.003112793,-1,-11.503817,-13.793893,12
533,0.113708496,0.0073242188,-0.0002441406,2.4732823,-8.511451,-5.2824426,12
534,0.11968994,0.005126953,0.0028076172,3.8244274,-7.9389315,-6.0152674,12
535,0.12628174,0.004699707,0.0017089844,4.2366414,-5.3969464,-6.29771,12
536,0.1348877,0.0045776367,-0.0006713867,11.625955,-5.0152674,-13.305344,12
537,0.13476562,0.0028686523,-0.0028076172,25.80916,-8.045801,-23.358778,12
538,0.1270752,0.0012207031,0.0007324219,40.74046,-15.343512,-36.129772,12
539,0.12225342,-0.001953125,-0.0007324219,49.458015,-15.648855,-41.21374,12
540,0.11450195,-0.0040893555,0.0003662109,49.114502,-17.519083,-48.47328,12
541,0.1104126,-0.0044555664,-0.0004882813,41.328243,-15.183207,-49.770992,12
542,0.103881836,-0.0016479492,-0.0018310547,28.396946,-9.961832,-40.84733,12
543,0.10015869,-0.0007324219,0.0001831055,16.045801,-3.4198472,-27.23664,12
544,0.09509277,0.0006103516,-0.000793457,7.8778625,1.2671756,-12.488549,12
545,0.09814453,0.0016479492,-0.0020751953,3.59542,7.5496182,2.038168,12
546,0.10644531,0.0006713867,-0.0028076172,3.0076337,13.908397,12.053435,12
547,0.110839844,0.0030517578,-0.001953125,2.3816793,18.442749,16.29771,12
548,0.11920166,-0.0008544922,-0.0007324219,0.5114504,19.847328,18.755726,12
549,0.12463379,0.0028076172,-0.0012817383,4.5419846,22.091602,18.717558,12
550,0.13140869,0.0010375977,-0.0020751953,10.801527,21.877863,18.473282,12
551,0.13244629,-0.001159668,-0.0034179688,16.610687,16.229008,12.343512,12
552,0.13134766,0.0006713867,-0.0031738281,18.229008,13.862596,7.7938933,12
553,0.12927246,-0.001159668,-0.0016479492,16,9.076336,0.8167939,12
554,0.12597656,-0.0008544922,-0.0014038086,11.496183,6.6030536,-5.847328,12
555,0.11730957,0.000793457,-0.0031738281,8.885496,4.259542,-7.8702292,12
556,0.115112305,-0.0006103516,-0.0022583008,9.839695,2.312977,-8.427481,12
557,0.11187744,0.0031738281,-0.0056762695,5.5343513,6.0152674,-4.328244,12
558,0.11383057,0.007385254,-0.0052490234,4.7480917,8.4198475,-0.6335878,12
559,0.11022949,0.002380371,-0.006225586,5.259542,8.671756,4.366412,12
560,0.10961914,0.0004882813,-0.0012207031,1.3664122,9.083969,5.931298,12
561,0.114746094,0.002746582,-6.1035156E-05,-7.8778625,9.969465,6.847328,12
562,0.115478516,0.0029907227,0.0006103516,-9.022901,10.633588,7.29771,12
563,0.11608887,0.008605957,-0.0038452148,-2.793893,10.122137,9.916031,12
564,0.11566162,0.007507324,-0.0032348633,-0.129771,10.366412,8.5801525,12
565,0.122924805,0.0040893555,-0.0009155273,0.2977099,10.519084,3.923664,12
566,0.12451172,0.005859375,-0.0060424805,-0.519084,4.59542,-2.167939,12
567,0.13165283,0.0018920898,-0.0053100586,-5.0305343,2.7709923,-3.221374,12
568,0.121398926,0.006225586,-0.0030517578,-6.0610685,-1.351145,-11.923664,12
569,0.11505127,0.004638672,0.0041503906,-3.3740458,-1.9770992,-14.083969,12
570,0.11663818,0.0024414062,-0.0021362305,-4.89313,-3.70229,-16.89313,12
571,0.119384766,0.0064697266,-0.0003051758,-4.9160304,-3.5267177,-20.519083,12
572,0.11395264,0.006164551,0.003967285,-4.3816795,-4.442748,-20.969465,12
573,0.1237793,0.005065918,0.004760742,-4.3816795,-3.8854961,-17.549618,12
574,0.12445068,0.0012207031,0.005126953,-8.145039,-5.7328243,-15.412213,12
575,0.12738037,0.0004882813,0.006591797,-19.473282,-10.679389,-22.816793,12
576,0.1340332,0.0001220703,0.0009155273,-30.93893,-16.526718,-31.122137,12
577,0.12902832,-0.0028686523,0.008728027,-44.091602,-22.145039,-33.27481,12
578,0.1262207,0.0006103516,0.008911133,-50.839695,-26.954199,-37.40458,12
579,0.124938965,0.0012207031,0.009277344,-52.664124,-21.29771,-34.89313,12
580,0.11450195,0.0015869141,0.010253906,-54.984734,-17.48855,-33.38168,12
581,0.10290527,0.0045166016,0.01171875,-50.83206,-13.839695,-34.23664,12
582,0.096069336,0.00793457,0.006652832,-39.51145,0.8091603,-24.877863,12
583,0.09576416,0.010498047,0.0056152344,-21.671755,13.480916,-15.587787,12
584,0.097717285,0.013244629,0.007385254,-1.5343511,20.908398,0.8015267,12
585,0.105651855,0.012390137,0.005554199,23.885496,30.12977,17.793894,12
586,0.119262695,0.005859375,0.004211426,35.396946,34.244274,34.12214,12
587,0.12530518,0.004333496,0.007385254,35.709923,33.335876,44.55725,12
588,0.13104248,0.0021972656,0.0057373047,22.671755,28.847328,44.114502,12
589,0.13128662,-0.0001831055,0.009094238,1.6030535,26.832062,36.801525,12
590,0.13122559,0.0020141602,0.007873535,-20.480917,20.328245,23.366413,12
591,0.12902832,0.0078125,0.003540039,-33.91603,14.7404585,12.984733,12
592,0.124694824,0.010681152,0.0072631836,-28.404581,12.541985,-0.03816794,12
593,0.121398926,0.011474609,0.0028686523,-20.610687,10.129771,-5.6488547,12
594,0.119628906,0.013183594,0.0073242188,-7.076336,5.633588,-10.061069,12
595,0.11621094,0.012207031,0.008972168,2.4732823,3.351145,-13.7404585,12
596,0.11657715,0.008239746,0.0057373047,-0.17557251,2.5648854,-15.931297,12
597,0.11956787,0.009338379,0.0064697266,-7.3893127,4.2748094,-16.282442,12
598,0.11853027,0.00982666,0.008605957,-5.2137403,4.0305343,-15.717557,12
599,0.112976074,0.011230469,0.009460449,-5.1374044,5.2366414,-16.961832,12
600,0.11151123,0.010803223,0.008972168,-3.793893,7.5267177,-14.687023,12
601,0.11242676,0.015808105,0.0045776367,4.557252,11.885496,-8.603053,12
602,0.11218262,0.015930176,0.007446289,15.854961,11.229008,-3.3587787,12
603,0.117492676,0.016845703,0.009460449,30.091602,8.229008,-0.9389313,12
604,0.12011719,0.0119018555,0.007385254,29.656488,5.923664,-0.16030534,12
605,0.117492676,0.014099121,0.010009766,20.76336,2.442748,-3.038168,12
606,0.122680664,0.010925293,0.010131836,10.732824,0.35114503,-13.137404,12
607,0.12976074,0.013977051,0.013916016,-1.8396946,-6.2748094,-19.519083,12
608,0.12548828,0.010864258,0.009460449,-14.755725,-8.19084,-28.244274,12
609,0.12542725,0.015380859,0.012084961,-18.900763,-10.793893,-43.038166,12
610,0.12054443,0.012451172,0.015075684,-16.396946,-10.053435,-48.74046,12
611,0.12567139,0.014160156,0.011230469,-8.877863,-7.0916033,-50.969467,12
612,0.12097168,0.012451172,0.008117676,4.7938933,-4.1297708,-48.862595,12
613,0.11956787,0.009338379,0.008056641,21.312977,-2.648855,-45.931297,12
614,0.1138916,0.013671875,0.011169434,37.664124,-2.259542,-39.412212,12
615,0.11804199,0.0087890625,0.0076904297,42.305344,-0.9160305,-31.038168,12
616,0.11077881,0.008483887,0.008300781,35.89313,1.5267175,-22.496183,12
617,0.11437988,0.0099487305,0.0146484375,33.34351,2.8549619,-16.229008,12
618,0.1182251,0.014099121,0.008605957,32.351147,5.1984735,-2.3053436,12
619,0.12213135,0.012451172,0.014099121,28.74809,7.221374,9.229008,12
620,0.12310791,0.013244629,0.013122559,23.801527,9.511451,20.389313,12
621,0.12731934,0.01361084,0.017578125,12.045801,12.2595415,27.267176,12
622,0.12414551,0.022155762,0.015380859,2.1755726,13.2595415,29.839695,12
623,0.1303711,0.01965332,0.03338623,0.4274809,12.465649,27.633587,12
624,0.13049316,0.019165039,0.011413574,5.1755724,7.10687,20.67939,12
625,0.12365723,0.018737793,0.009155273,9.847328,5.2442746,13.412213,12
626,0.12390137,0.014587402,0.012390137,6.3053436,3.2900763,6.5038166,12
627,0.12878418,0.014709473,0.013793945,-0.55725193,1.4122137,-0.71755725,12
628,0.12591553,0.01727295,0.013000488,-13.625955,-1.4274809,-0.49618322,12
629,0.11987305,0.015686035,0.020080566,-26.38168,-3.8931298,-0.8396947,12
630,0.114990234,0.01586914,0.019226074,-36.931297,-3.961832,-3.167939,12
631,0.11151123,0.016845703,0.0178833,-45.801525,-5.068702,-1.6030535,12
632,0.11224365,0.019226074,0.0115356445,-50.435116,-5.587786,-1,12
633,0.11224365,0.01977539,0.020751953,-53.46565,-3.3816793,1.1068702,12
634,0.13800049,0.020385742,0.024902344,-56.519085,3.908397,7.9083967,12
635,0.13873291,0.01940918,0.02508545,-54.87786,3.038168,16.06107,12
636,0.121398926,0.019714355,0.020812988,-53.114502,1.1068702,13.229008,12
637,0.10308838,0.020690918,0.013916016,-45.244274,4.9007635,2.8091602,12
638,0.10620117,0.017333984,0.01171875,-25.267176,10.984733,-9.839695,12
639,0.11315918,0.021057129,0.01171875,-0.022900764,9.709924,-13.656488,12
640,0.1161499,0.020935059,0.013793945,24.099237,4.0305343,-9.885496,12
641,0.11627197,0.018554688,0.014038086,38.64122,2.2290077,-5.3816795,12
642,0.1204834,0.015991211,0.010925293,38.053436,3.4198472,1.1068702,12
643,0.12023926,0.013000488,0.015197754,28.534351,1.5572519,5.328244,12
644,0.12182617,0.010314941,0.014526367,11.045801,-2.0992367,4.076336,12
645,0.11956787,0.00970459,0.014709473,-11.106871,-4.6488547,2.1755726,12
646,0.12243652,0.011108398,0.016357422,-16.610687,-7.366412,-0.9541985,12
647,0.12780762,0.011413574,0.0154418945,-4.6946564,-9.244275,-4.2519083,12
648,0.12664795,0.010009766,0.014831543,9.526717,-10.473283,-4.8625956,12
649,0.123413086,0.0068969727,0.013366699,11.076336,-7.6106873,-2.740458,12
650,0.11981201,0.0053100586,0.015197754,0.3740458,-6.519084,-2.7328243,12
651,0.12194824,0.0060424805,0.012145996,-15.022901,-9.076336,-3.8931298,12
652,0.1149292,0.008605957,0.016601562,-25.816793,-11.122137,-7.4732823,12
653,0.11065674,0.010681152,0.016174316,-32.312977,-12.061069,-2.3740458,12
654,0.1116333,0.010986328,0.014709473,-37,-9.984733,-5.8015265,12
655,0.11779785,0.010253906,0.014282227,-39.435116,-6.1603055,-2.9847329,12
656,0.11871338,0.013000488,0.012451172,-36.160305,-4.885496,-2.740458,12
657,0.1239624,0.012634277,0.01159668,-27.786259,-3.519084,-5.038168,12
658,0.12597656,0.01159668,0.0072021484,-19.25191,-2.1068702,-4.1755724,12
659,0.12164307,0.008483887,0.004272461,-15.664123,-3.221374,-3.5038168,12
660,0.12420654,0.0095825195,0.007751465,-17.648855,-4.9923663,-7.0152674,12
661,0.1194458,0.010253906,0.0051879883,-24.450382,-7.9770994,-12.496183,12
662,0.11779785,0.010986328,0.00579834,-29.160305,-9.503817,-14.931297,12
663,0.11395264,0.013305664,0.007873535,-33.946564,-11.21374,-14.877863,12
664,0.11730957,0.014465332,0.00982666,-36.015266,-10.671756,-15.488549,12
665,0.11682129,0.01373291,0.008056641,-35.93893,-7.5038166,-11.908397,12
666,0.11755371,0.013977051,0.008728027,-36.076336,-4.6564884,-11.5801525,12
667,0.11987305,0.01727295,0.005554199,-33.625954,-2.29771,-5.8320613,12
668,0.12042236,0.0178833,0.0033569336,-24.877863,-1.0229008,-4.0076337,12
669,0.12176514,0.024047852,0.0076293945,-12.572519,1.7480916,2.5419848,12
670,0.1182251,0.019836426,0.0072631836,-0.64122134,0.5954198,4.9083967,12
671,0.11779785,0.018249512,0.008117676,8.725191,1.5496184,5.7480917,12
672,0.11730957,0.018676758,0.004333496,9.19084,2.7633588,8.916031,12
673,0.1237793,0.016296387,0.0030517578,7.2290077,2.465649,10.610687,12
674,0.1274414,0.018188477,0.0031738281,9.435115,0.29007635,8.977099,12
675,0.12677002,0.017456055,0.0004272461,12.396947,-0.23664123,6.2824426,12
676,0.12554932,0.016235352,0.0049438477,9.923664,-0.740458,1.70229,12
677,0.12219238,0.014526367,0.0026245117,9.435115,-2.664122,-3.8549619,12
678,0.11907959,0.01751709,0.0032958984,7.7480917,-6.2900763,-7.816794,12
679,0.11932373,0.012451172,0.0008544922,0.648855,-6.9923663,-9.442748,12
680,0.118896484,0.013061523,0.0029907227,-3.0152671,-6.0458016,-12.648855,12
681,0.11468506,0.014770508,0.009033203,-4.5648856,-6.6564884,-11.977099,12
682,0.113098145,0.01373291,0.008422852,-0.6870229,-6.4198475,-12.793893,12
683,0.11566162,0.012084961,0.005126953,0.71755725,-2.7099237,-11.832061,12
684,0.11584473,0.011962891,0.012939453,3.8396947,-0.5114504,-9.709924,12
685,0.11584473,0.013427734,0.0041503906,6.2748094,0.77862597,-10.038168,12
686,0.12243652,0.0119018555,0.005493164,10.450381,2.0687022,-7.7862597,12
687,0.121154785,0.009643555,0.000793457,9.015267,3.8854961,-8.931297,12
688,0.12243652,0.012268066,0.009155273,5.0992365,3.0687022,-8.969465,12
689,0.11798096,0.009155273,0.008605957,2.1450381,1.2137405,-7.8015265,12
690,0.117614746,0.0095825195,0.0107421875,-3.7862597,1.038168,-10.984733,12
691,0.1182251,0.010253906,0.009094238,-7.328244,1.038168,-10.854961,12
692,0.116760254,0.011291504,0.009155273,-8.839695,2.221374,-9.374045,12
693,0.117248535,0.010864258,0.012145996,-9.648855,2.6946564,-9.511451,12
694,0.11907959,0.012878418,0.011413574,-8.435115,5.038168,-8.374045,12
695,0.118774414,0.014465332,0.010314941,-5.3587785,4.7099237,-5.5038166,12
696,0.11956787,0.014526367,0.012390137,0.6259542,5.854962,-2.4351146,12
697,0.123413086,0.014160156,0.022033691,1.3435115,8.122137,-0.5038168,12
698,0.11871338,0.014343262,0.010681152,0.9160305,8.694656,0.45038167,12
699,0.11859131,0.015197754,0.0099487305,1.0992366,7.9770994,3.740458,12
700,0.118652344,0.015136719,0.009277344,4.366412,8.450381,4.9083967,12
701,0.119140625,0.0154418945,0.007873535,4.0992365,6.9389315,3.664122,12
702,0.11993408,0.014953613,0.0061035156,4.2366414,4.7099237,6.5648856,12
703,0.12017822,0.016540527,0.00592041,5.6488547,2.7328243,4.3435116,12
704,0.120910645,0.015075684,0.0087890625,6.4885497,0.8244275,1.3358779,12
705,0.1227417,0.01574707,0.006652832,3.870229,-3.0305343,-0.16030534,12
706,0.12121582,0.015625,0.012817383,1.9770992,-5.4961834,-4.885496,12
707,0.12011719,0.013122559,0.008544922,1.8396946,-6.1603055,-5.7251906,12
708,0.11834717,0.014587402,0.010253906,0.5954198,-5.038168,-8.770992,12
709,0.11816406,0.013183594,0.010864258,-1.70229,-4.961832,-9.290076,12
710,0.12133789,0.014404297,0.0107421875,0.022900764,-3.335878,-9.885496,12
711,0.12054443,0.013244629,0.010925293,0.6793893,-3.5496182,-9.38168,12
712,0.119018555,0.011474609,0.008544922,3.3740458,-3.5801528,-9.816793,12
713,0.12109375,0.013305664,0.009033203,6.3511453,-3.0839694,-6.5038166,12
714,0.12072754,0.012023926,0.0087890625,9.282443,-2.0305343,-3.6183207,12
715,0.11541748,0.011779785,0.0049438477,9.5801525,-1.5419847,-1.740458,12
716,0.11804199,0.008972168,0.004272461,10.007633,-1.9694656,-1.7633588,12
717,0.117004395,0.009521484,0.00579834,5.6030536,-1.9770992,2.5038168,12
718,0.11767578,0.009338379,0.009643555,1.8091604,-2.5496182,1.6641221,12
719,0.11529541,0.010192871,0.0067749023,0.24427481,-0.3816794,1.3435115,12
720,0.11383057,0.010498047,0.005859375,2.1755726,-1.7175573,1.1221374,12
721,0.115112305,0.009277344,0.006958008,-1.1603054,-1.9847329,-0.122137405,12
722,0.11114502,0.009094238,0.004638672,-9.442748,-0.3129771,-3.8015268,12
723,0.11846924,0.013244629,0.008666992,-12.717557,1.5343511,-7.6870227,12
724,0.12298584,0.014343262,0.011352539,-9.80916,1.0992366,-10.274809,12
725,0.11975098,0.014404297,0.010009766,-10.137404,2.0992367,-13.656488,12
726,0.12194824,0.013427734,0.0063476562,-11.992367,2.7709923,-16.74809,12
727,0.12451172,0.014770508,0.0064697266,-14.435115,3.832061,-16.519083,12
728,0.12524414,0.0138549805,0.004333496,-13.557252,4.1755724,-17.755726,12
729,0.12182617,0.014709473,0.006286621,-11.358779,3.3969467,-17.076336,12
730,0.123168945,0.013183594,0.0037231445,-10.473283,3.183206,-13.694656,12
731,0.12194824,0.01361084,0.0009155273,-6.8778625,1.9465649,-6.0839696,12
732,0.116760254,0.018859863,-0.0020751953,-4.9465647,1.5114504,-0.4427481,12
733,0.1182251,0.013916016,-0.0006713867,-0.061068702,1.870229,5.2290077,12
734,0.12451172,0.016113281,0.0009155273,6.29771,0.53435117,9.832061,12
735,0.1251831,0.014099121,-0.00390625,11.648855,-2.832061,11.908397,12
736,0.11975098,0.01727295,0.005065918,11,-3.4503818,10.748092,12
737,0.11413574,0.018127441,0.004760742,8.38168,-3,7.7099237,12
738,0.116882324,0.0138549805,0.005432129,5.6106873,-3.1145039,1.0839695,12
739,0.11602783,0.016418457,0.0025024414,4.2748094,-2.2519083,-5.4503818,12
740,0.11834717,0.016845703,0.00793457,4.038168,-2.076336,-7.1603055,12
741,0.119140625,0.014831543,0.013366699,3.7251909,-0.610687,-9.450381,12
742,0.12414551,0.0138549805,0.0051879883,2.8473282,0.48854962,-14.847328,12
743,0.12677002,0.014343262,0.004272461,4.2137403,1.1068702,-15.564885,12
744,0.122802734,0.01184082,0.010314941,4.259542,2.534351,-18.091602,12
745,0.12121582,0.0099487305,0.010070801,3.1526718,0.5801527,-18.977098,12
746,0.12567139,0.009155273,0.0018920898,-2.1068702,-1.091603,-19.824427,12
747,0.11682129,0.00970459,0.009643555,-5.740458,-0.6870229,-22.595419,12
748,0.11663818,0.011474609,0.008483887,-6.9389315,-1.3358779,-11.7786255,12
749,0.117126465,0.011169434,0.008300781,-5.152672,-0.65648854,-9.541985,12
750,0.11566162,0.01159668,0.009094238,-1.4732825,1.908397,-2.9923663,12
751,0.117492676,0.013122559,0.009399414,-1.1221374,0.8549618,1.5877863,12
752,0.119262695,0.013916016,0.0079956055,3.0076337,2.0687022,6.5267177,12
753,0.12408447,0.01550293,0.00970459,4.6412215,1.9312977,9.969465,12
754,0.119262695,0.014038086,0.008911133,4.221374,1.6641221,10.022901,12
755,0.120666504,0.014953613,0.009521484,2.7862597,2.557252,7.4732823,12
756,0.11993408,0.015197754,0.010314941,2.29771,0.83206105,7.480916,12
757,0.119384766,0.015930176,0.0099487305,1.9465649,-0.19847329,4.9160304,12
758,0.11816406,0.015197754,0.0095825195,0.19847329,-0.21374045,-0.8244275,12
759,0.11755371,0.014892578,0.010192871,-4.6870227,-1.6641221,-8.015267,12
760,0.117126465,0.015563965,0.009399414,-6.374046,-3.2748091,-9.396947,12
761,0.11804199,0.014526367,0.0099487305,-6.1679387,-2.4503818,-11.923664,12
762,0.12207031,0.018127441,0.020446777,-4.3587785,-0.96183205,-8.816793,12
763,0.11773682,0.013000488,0.010009766,-3.183206,0.740458,-13.5801525,12
764,0.1182251,0.013549805,0.008666992,-3.40458,-0.23664123,-8.480916,12
765,0.12030029,0.012634277,0.0060424805,-1.9236641,0.03816794,-10.38168,12
766,0.121154785,0.01159668,0.0057373047,-0.8167939,-0.73282444,-9.091603,12
767,0.12005615,0.012756348,0.006225586,-1.8549619,0.4351145,-8.076336,12
768,0.11816406,0.012268066,0.0045166016,-2.1603053,-2.519084,-5.9541984,12
769,0.118774414,0.0115356445,0.0067749023,-1.8778626,-1.221374,-2.59542,12
770,0.117004395,0.014038086,0.0056762695,-1.7938931,1.3435115,-1.9389313,12
771,0.118774414,0.01361084,0.008850098,-1.1603054,0.65648854,-1.4503816,12
772,0.11779785,0.01361084,0.009399414,0.022900764,1.870229,-2.0610688,12
773,0.12023926,0.01361084,0.004760742,0.71755725,2.038168,-1.7328244,12
774,0.11779785,0.013244629,0.008972168,2.59542,-0.19847329,-0.77862597,12
775,0.11975098,0.015014648,0.006225586,-0.46564886,0.77862597,-2.206107,12
776,0.118774414,0.012939453,0.005493164,1.2900764,2.70229,-3.465649,12
777,0.11694336,0.015136719,0.003540039,2.5038168,0.83206105,-4.442748,12
778,0.121154785,0.012756348,0.0012817383,0.49618322,-0.67175573,-1.389313,12
779,0.11981201,0.014099121,0.005859375,1.129771,0.2519084,-1.7099236,12
780,0.119018555,0.014343262,0.0030517578,1.5954199,0.28244275,-3.0458016,12
781,0.119018555,0.01171875,-0.0010986328,2.9160306,-0.64122134,-3.1755726,12
782,0.12176514,0.016479492,0.0028686523,1.1145039,-2.5038168,-5.2137403,12
783,0.118774414,0.01361084,0.007019043,2.29771,-1.4580153,-6.4198475,12
784,0.11608887,0.01751709,0.0004272461,1.9694656,-0.64122134,-7.221374,12
785,0.12011719,0.014160156,0.0040283203,3.2137403,-2.465649,-5.1603055,12
786,0.117614746,0.013061523,0.0043945312,3.519084,-1.2671756,-5.4961834,12
787,0.11767578,0.013122559,0.0045776367,4.70229,-1.7251909,-4.923664,12
788,0.11920166,0.012023926,0.0021972656,4.19084,-0.870229,-6.9694657,12
789,0.12097168,0.012451172,-0.0004882813,2.1145039,-1.3358779,-5.183206,12
790,0.117614746,0.013183594,0.0028686523,3.389313,-1.2137405,-4.8320613,12
791,0.11804199,0.013549805,0.003540039,2.2748091,0.29007635,-4.10687,12
792,0.11993408,0.016235352,0.0041503906,1.519084,-0.55725193,-4.1679387,12
793,0.11743164,0.012878418,0.003112793,3.3053436,1.8549619,-3.8549619,12
794,0.12042236,0.011169434,0.002380371,2.519084,0.6946565,-3.3435113,12
795,0.121276855,0.013549805,0.001159668,1.6412214,1.6870229,-3.908397,12
796,0.123413086,0.011962891,0.0018920898,1.259542,1.0534351,-2.648855,12
797,0.11779785,0.013244629,0.0040283203,-0.2977099,1.0229008,-3.7480917,12
798,0.11663818,0.0099487305,0.003479004,-0.13740458,2.740458,-4.4885497,12
799,0.11785889,0.012756348,0.0064086914,-0.6259542,2.9389312,-3.5648854,12
800,0.1217041,0.013122559,0.0014038086,-0.48854962,3.778626,-3.4198472,12
801,0.11730957,0.012512207,-6.1035156E-05,-0.9541985,2.572519,-2.908397,12
802,0.11883545,0.011230469,-0.0026245117,-0.061068702,1.3053435,-3.6946564,12
803,0.119506836,0.012512207,0.006164551,-0.114503816,1.0992366,-4.10687,12
804,0.119262695,0.013000488,0.0068359375,-2.534351,2.7251909,-5.6793895,12
805,0.11871338,0.013000488,0.006958008,-3.5648854,1.908397,-5.778626,12
806,0.11846924,0.013671875,0.0067749023,-2.778626,-0.3053435,-4.6030536,12
807,0.1184082,0.013366699,0.006958008,-1.5267175,1.1603054,-2.3816793,12
808,0.119384766,0.013549805,0.00592041,-0.17557251,1.1908396,-2.816794,12
809,0.11816406,0.014221191,0.0072631836,-0.52671754,0.015267176,-2.6259542,12
810,0.11853027,0.014221191,0.007507324,2.6412213,-0.091603056,-3.2671757,12
811,0.117492676,0.01361084,0.0095825195,0.84732825,0.52671754,-3.3587787,12
812,0.116882324,0.013977051,0.009887695,-1.3969465,1.0152671,-7.0610685,12
813,0.11779785,0.015014648,0.008178711,2.5267177,2.9160306,-4.8015265,12
814,0.1194458,0.014221191,0.0095825195,3.9389312,2.3587787,-6.5038166,12
815,0.119262695,0.014038086,0.009277344,4.4351144,4.29771,-3.8244274,12
816,0.121032715,0.013122559,0.006164551,3.6259542,2.2366412,-4.5648856,12
817,0.124938965,0.012084961,0.0020141602,2.7480917,0.41984734,-4.633588,12
818,0.12591553,0.014343262,0.021728516,-0.20610687,-1.2290076,-3.076336,12
819,0.118774414,0.01159668,0.0052490234,-1.2671756,-2.4732823,-6.5725193,12
820,0.11773682,0.012451172,0.0078125,-2.3282442,-4.3511453,-7.923664,12
821,0.11621094,0.012329102,0.005859375,-1.5572519,-3.70229,-7.3893127,12
822,0.1171875,0.012634277,0.008483887,-1.3282443,-3.2442749,-5.5419846,12
823,0.11755371,0.012756348,0.00982666,0.4274809,-2.2519083,-3.9160306,12
824,0.11584473,0.013183594,0.009094238,-0.08396947,-0.007633588,-4.7099237,12
825,0.117614746,0.013000488,0.010437012,-0.8396947,0.8015267,-6.70229,12
826,0.11706543,0.011291504,0.009765625,-1.038168,1.2900764,-6.671756,12
827,0.12243652,0.011047363,0.047058105,-0.60305345,3.312977,-5.2824426,12
828,0.11773682,0.010803223,0.008544922,0.54198474,3.3587787,-2.427481,12
829,0.118652344,0.012390137,0.0048828125,0.061068702,5.8320613,-3.0610688,12
830,0.117248535,0.01171875,0.010314941,1.3664122,5.1679387,-0.7557252,12
831,0.1204834,0.012329102,0.0076293945,1.8091604,7.2290077,0.9847328,12
832,0.11999512,0.011779785,0.007446289,1.0305344,5.8320613,2.0229008,12
833,0.120788574,0.011291504,0.005554199,-2.0687022,4.59542,0.49618322,12
834,0.11871338,0.012268066,0.0059814453,-4.183206,3.5648854,0.35877863,12
835,0.12133789,0.013122559,0.007080078,-5.0610685,2.335878,-1.1450381,12
836,0.121032715,0.012390137,0.0044555664,-6.0229006,1.4427481,-1.8244275,12
837,0.11981201,0.014343262,0.008850098,-3.351145,0.41984734,-2.6717558,12
838,0.12158203,0.015136719,0.0065307617,-2.0152671,-0.9160305,-3.0152671,12
839,0.12036133,0.012207031,0.0071411133,-2.0076337,-1.0992366,-3.4961832,12
840,0.117492676,0.01361084,0.0068969727,-2.7557251,-3.1908398,-5.4580154,12
841,0.12164307,0.013671875,0.007446289,-1.5343511,-0.9389313,-7.7175574,12
842,0.12371826,0.011657715,0.00579834,0.36641222,-2.038168,-8.236641,12
843,0.11859131,0.013061523,0.0052490234,1.3053435,-1.167939,-7,12
844,0.119506836,0.011962891,0.003112793,1.0076336,-1.9389313,-7.0458016,12
845,0.119506836,0.013061523,0.0025024414,1.4503816,-2.2748091,-6.3511453,12
846,0.121520996,0.011291504,0.005859375,-0.53435117,-1.6870229,-6.625954,12
847,0.121154785,0.010498047,0.0015869141,-0.8091603,-2.129771,-5.3129773,12
848,0.124938965,0.012939453,0.0037841797,1.0458015,-2.1145039,-3.5877862,12
849,0.11810303,0.012390137,0.0045776367,0.64122134,-1.0763359,-2.9312978,12
850,0.120666504,0.015136719,0.0026245117,1.5648855,-1.6641221,-4.4885497,12
851,0.11657715,0.010131836,0.0072021484,2.1526718,0.053435113,-3.6335878,12
852,0.1159668,0.015136719,0.009460449,1.5954199,-0.6183206,-4.854962,12
853,0.11645508,0.01373291,0.0030517578,1.4427481,-0.6259542,-3.5877862,12
854,0.122558594,0.01361084,0.0026855469,0.35877863,-0.70229006,-5.59542,12
855,0.11645508,0.01373291,0.0032958984,0.7099237,-0.86259544,-5.9389315,12
856,0.11975098,0.011291504,0.009033203,0.4274809,0.5496183,-6.0992365,12
857,0.11932373,0.01159668,0.0087890625,0.65648854,0,-5.3587785,12
858,0.11773682,0.013305664,-6.1035156E-05,1.5648855,-0.5648855,-4.625954,12
859,0.11907959,0.012145996,0.009338379,0.022900764,-1.6030535,-3.9007633,12
860,0.11804199,0.012329102,0.006958008,0.70229006,-1.0076336,-5.221374,12
861,0.11871338,0.012573242,0.0075683594,-0.79389316,-0.8778626,-3.908397,12
862,0.11816406,0.013061523,0.008605957,-1.167939,-0.13740458,-3.6259542,12
863,0.11956787,0.014343262,0.006225586,0.22900763,-0.32061067,-2.2824428,12
864,0.119018555,0.0146484375,0.0063476562,-0.20610687,-0.16793893,-4.4961834,12
865,0.11920166,0.014221191,0.0056152344,1.961832,-1.2442749,-1.832061,12
866,0.12017822,0.014343262,0.0048828125,2.6183207,-2.0839694,-1.8244275,12
867,0.1204834,0.014221191,0.0064086914,5.114504,-2.129771,-3.2748091,12
868,0.11987305,0.013366699,0.0053100586,5.5038166,-3.6564887,-3.6946564,12
869,0.1194458,0.0115356445,0.0064086914,5.0229006,-4.442748,-3.3282442,12
870,0.115722656,0.010620117,0.0063476562,3.7633588,-6.3129773,-6.412214,12
871,0.115478516,0.012512207,0.0056762695,2.0839694,-5.328244,-4.2290077,12
872,0.113098145,0.010131836,0.008300781,3.1526718,-2.053435,-2.3282442,12
873,0.11413574,0.010314941,0.0048217773,2.8931298,-1.480916,-1.6412214,12
874,0.123168945,0.011108398,0.018676758,3.9389312,-0.6870229,-3.3587787,12
875,0.11791992,0.009521484,0.0052490234,5.9923663,1.038168,-1.6335878,12
876,0.11993408,0.009643555,0.005065918,4.9160304,0.71755725,-5.5725193,12
877,0.121276855,0.010314941,0.0056152344,0.46564886,3.0687022,-10.541985,12
878,0.120666504,0.009887695,0.005554199,-1.5343511,1.7633588,-7.3969464,12
879,0.11773682,0.00970459,0.0048828125,-4.7099237,0.90839696,-9.244275,12
880,0.12097168,0.010498047,0.002380371,-7.5267177,-0.32824427,-7.40458,12
881,0.11920166,0.011291504,0.0020751953,-7.10687,1.4503816,-5.9541984,12
882,0.118652344,0.012756348,0.005065918,-4.2519083,1.351145,-6.5343513,12
883,0.12109375,0.013916016,0.016540527,-3.2442749,1.6793894,-2.5038168,12
884,0.11993408,0.011108398,0.005859375,0.22137405,0.9236641,-2.664122,12
885,0.11981201,0.01171875,0.0045166016,1.5496184,-0.45801526,-2.183206,12
886,0.117492676,0.012756348,0.0064697266,1.221374,1.3358779,-2.2366412,12
887,0.11663818,0.011230469,0.008239746,1.389313,1.6564885,-3.465649,12
888,0.11816406,0.012573242,0.0031738281,1.5267175,2.4961832,-1.2442749,12
889,0.114990234,0.010681152,0.0018310547,2.038168,2.6030533,-0.06870229,12
890,0.11907959,0.010681152,0.0030517578,0.030534351,1.908397,-1.4274809,12
891,0.1182251,0.012512207,-0.0005493164,1.0763359,1.3740458,-0.3053435,12
892,0.12176514,0.014282227,0.01739502,-0.79389316,3.3969467,-0.9160305,12
893,0.12005615,0.0138549805,-0.0002441406,-3.8778627,2.6412213,-2.4580152,12
894,0.12225342,0.016479492,0.003479004,-3.793893,1.2442749,-5.068702,12
895,0.12597656,0.015136719,0.0026245117,-6.2671757,0.48854962,-7.0076337,12
896,0.122680664,0.020385742,0.003967285,-4.2442746,-0.5038168,-9.167939,12
897,0.12054443,0.015319824,0.0052490234,0.114503816,-1.0458015,-9.78626,12
898,0.12188721,0.018005371,0.0008544922,-0.9236641,-0.67175573,-10.045801,12
899,0.11767578,0.013000488,0.0017089844,0.35114503,0.27480915,-10.946565,12
900,0.11456299,0.011169434,0.0038452148,2.3587787,-0.55725193,-10.557252,12
901,0.11517334,0.014282227,-0.0033569336,4.961832,-0.41984734,-7.442748,12
902,0.112976074,0.008300781,0.006958008,7.0534353,-0.7633588,-4.114504,12
903,0.11273193,0.010192871,0.0022583008,5.0534353,1.7633588,-3.167939,12
904,0.12371826,0.009155273,0.0021972656,4.9083967,2.908397,-2.3969467,12
905,0.12573242,0.0079956055,0.0056762695,4.4656487,1.7251909,0.9694657,12
906,0.12231445,0.010681152,0.0032348633,2.7709923,1.7175573,-1.8549619,12
907,0.11859131,0.009887695,0.003112793,-5.0610685,2.3282442,-2.9160306,12
908,0.12249756,0.012817383,0.0065307617,-5.8702292,1.0992366,-4.7862597,12
909,0.12609863,0.011962891,0.0029907227,-4.4732823,0.06870229,-2.5419848,12
910,0.116760254,0.013000488,0.0007324219,-5.2519083,3.335878,-2.610687,12
911,0.11810303,0.012512207,-0.0001220703,-6.5267177,2.6030533,-0.2519084,12
912,0.11621094,0.011108398,-0.0038452148,-6.335878,2.648855,-1.5343511,12
913,0.12121582,0.011291504,-0.0016479492,-5.9847326,1.6335878,-1.2137405,12
914,0.11883545,0.015930176,0.0003662109,-6.0152674,1.2442749,-2.3206108,12
915,0.11785889,0.015319824,0.0053710938,-3.259542,-0.73282444,-5.068702,12
916,0.12188721,0.016967773,-0.0020141602,-0.4351145,1.1755725,-1.961832,12
917,0.12036133,0.015319824,0.0015258789,0.96183205,-0.259542,-2.442748,12
918,0.1194458,0.015136719,0.0072631836,1.8625954,0.015267176,-3.6183207,12
919,0.11956787,0.01550293,0.0067749023,0.9465649,-1.1145039,-7.1374044,12
920,0.1194458,0.013793945,0.0075683594,2.3740458,0.5801527,-6.6030536,12
921,0.11907959,0.013000488,0.007446289,4.0458016,-1.038168,-6.9083967,12
922,0.11871338,0.012023926,0.0076293945,2.870229,0.6870229,-7.5419846,12
923,0.11828613,0.012268066,0.00793457,2.4198472,0.053435113,-7.1755724,12
924,0.11853027,0.012145996,0.009338379,3.1450381,0.045801528,-6.4274807,12
925,0.119506836,0.012756348,0.0061035156,1.9923664,1.1374046,-5.633588,12
926,0.11804199,0.012023926,0.009521484,2.4580152,2.0076337,-6.038168,12
927,0.1184082,0.011779785,0.010314941,-0.35114503,0.58778626,-6.1679387,12
928,0.118774414,0.01159668,0.008117676,-0.86259544,2.5496182,-3.8396947,12
929,0.11846924,0.011413574,0.010437012,-0.77099234,2.816794,-6.557252,12
930,0.118652344,0.010986328,0.010681152,-2.427481,1.961832,-3.4503818,12
931,0.118896484,0.011657715,0.008178711,-2.832061,2,-5.5267177,12
932,0.11932373,0.011169434,0.006958008,-5.0076337,0.9389313,-5.221374,12
933,0.12072754,0.013122559,0.005432129,-6.29771,0.22137405,-3.1526718,12
934,0.12097168,0.012878418,0.0052490234,-5.3053436,0.47328246,-2.0305343,12
935,0.119262695,0.0126953125,0.0072021484,-4.6412215,-0.18320611,-2.3816793,12
936,0.119384766,0.013061523,0.0067749023,-5.931298,0.53435117,-4.0610685,12
937,0.11804199,0.014526367,0.004638672,-4.9847326,1.480916,-2.1984732,12
938,0.11663818,0.013061523,0.0037841797,-4.5725193,0.70229006,-1.7099236,12
939,0.1194458,0.016784668,0.0056762695,-3.3435113,0.18320611,-2.8091602,12
940,0.119018555,0.015625,0.006713867,-3.038168,1.908397,-4.5419846,12
941,0.11804199,0.015319824,0.008056641,-3.9312978,0.9541985,-4.2748094,12
942,0.118774414,0.017028809,0.0048217773,-2.519084,-0.8167939,-4.1297708,12
943,0.12042236,0.016967773,0.0044555664,-1.259542,-0.20610687,-3.9923663,12
944,0.11895752,0.016723633,0.0072021484,0.17557251,-0.053435113,-7.145038,12
945,0.119262695,0.015563965,0.0061035156,3.0229008,-0.90076333,-4.3129773,12
946,0.12005615,0.016113281,0.0061035156,4.3206105,0.9847328,-5.3969464,12
947,0.119140625,0.013061523,0.0053100586,4.068702,-1.3664122,-5.80916,12
948,0.12652588,0.017150879,0.051879883,4.29771,1.3129771,-3.6259542,12
949,0.12060547,0.012756348,0.006164551,2.3816793,0.091603056,-6.1603055,12
950,0.12243652,0.011657715,0.0032958984,2.816794,-0.5954198,-6.8396945,12
951,0.119506836,0.012084961,0.004333496,1.70229,-0.66412216,-4.0916033,12
952,0.11804199,0.010437012,0.003540039,1.2137405,-0.22900763,-5.3969464,12
953,0.119628906,0.0119018555,0.007019043,0.45801526,-1.167939,-4.10687,12
954,0.119140625,0.012451172,0.0053710938,-1.5343511,-0.77862597,-1.6946565,12
955,0.120788574,0.012451172,0.0005493164,-3.40458,-1.0458015,0.030534351,12
956,0.1204834,0.012329102,0.0052490234,-0.47328246,0.9312977,-3,12
957,0.11730957,0.012390137,0.014587402,-1.1603054,0.33587787,-1.0534351,12
958,0.11828613,0.014526367,0.0051879883,-1.8549619,1.6030535,-1.0534351,12
959,0.120910645,0.014892578,0.004211426,0.24427481,0.38931298,-3.1374047,12
960,0.11730957,0.013183594,0.00592041,-2.183206,1.5343511,-1.5572519,12
961,0.12182617,0.012451172,0.0009155273,-0.5648855,0.9236641,-4.778626,12
962,0.118774414,0.015014648,-0.0030517578,-1.8778626,0.46564886,-6.5648856,12
963,0.11663818,0.014831543,0.0026855469,-0.66412216,0.38931298,-8.274809,12
964,0.11907959,0.013793945,0.0004272461,0.38931298,0.54198474,-6.0534353,12
965,0.1227417,0.014160156,0.0002441406,2,-0.648855,-7.847328,12
966,0.115234375,0.015686035,0.0043945312,0.58778626,-1.6717557,-8.465649,12
967,0.11743164,0.014038086,0.0043945312,-0.77099234,-0.740458,-5.5114503,12
968,0.1184082,0.016052246,-0.0004882813,-0.53435117,0.007633588,-6.8778625,12
969,0.1194458,0.016296387,0.0010375977,-1.0763359,-0.99236643,-5.4961834,12
970,0.11651611,0.012268066,0.0038452148,0.5496183,-1.351145,-4.6564884,12
971,0.12298584,0.012634277,-0.0013427734,-0.5954198,-0.52671754,-5.3511453,12
972,0.11859131,0.012023926,0.006958008,1.2442749,-1.3740458,-3.5496182,12
973,0.118774414,0.012084961,0.0014038086,0.45801526,-0.35877863,-0.9389313,12
974,0.121154785,0.012634277,-0.0015258789,0.2977099,0.5114504,-0.8854962,12
975,0.11621094,0.011657715,-0.0025024414,-2.2900763,-0.28244275,-2.1755726,12
976,0.11975098,0.0138549805,0.0052490234,-2.8244274,-1.519084,-2.312977,12
977,0.119262695,0.014831543,0.0072631836,-3.0305343,-0.77862597,-3.312977,12
978,0.11907959,0.014465332,0.00592041,-3,-0.5496183,-1.3664122,12
979,0.1182251,0.014953613,0.0073242188,-3.183206,0.9312977,-3.2519083,12
980,0.11785889,0.01586914,0.005126953,-0.7557252,0.79389316,-2.4351146,12
981,0.11785889,0.014526367,0.0061035156,2.5038168,1.8015267,-2.7328243,12
982,0.117370605,0.014160156,0.004333496,2.1908398,2.1450381,-2.7328243,12
983,0.11785889,0.014160156,0.0033569336,2.2442749,1.961832,-3.129771,12
984,0.11871338,0.013793945,0.0030517578,4.2061067,1.389313,-3.6412213,12
985,0.11920166,0.015136719,0.0028686523,2.6717558,1.0610687,-4.671756,12
986,0.11907959,0.014282227,0.0032348633,2.5419848,-0.870229,-3.3435113,12
987,0.11859131,0.015075684,0.0049438477,0.28244275,-1.3435115,-4.854962,12
988,0.118896484,0.015563965,0.005432129,1.5496184,-1.29771,-7.152672,12
989,0.11883545,0.014526367,0.006286621,1.9312977,-1.1068702,-8.297709,12
990,0.1182251,0.013977051,0.00592041,2.9694657,-1.1374046,-7.9389315,12
991,0.11633301,0.014587402,0.0037841797,3.9541984,0.90076333,-8.206107,12
992,0.11743164,0.012573242,0.0045166016,6.847328,1.0839695,-7.9160304,12
993,0.11773682,0.0126953125,0.00579834,6.5114503,1.3664122,-9.19084,12
994,0.119140625,0.011962891,0.0029296875,7.847328,-0.58778626,-6.7099237,12
995,0.11810303,0.008422852,0.004638672,8.488549,0.091603056,-6.587786,12
996,0.11883545,0.009155273,0.0051879883,5.5801525,-1.4274809,-5.1221375,12
997,0.1182251,0.009643555,0.0065307617,3.7175572,-0.53435117,-4.4961834,12
998,0.11907959,0.008239746,0.0026855469,0.83206105,-1.1068702,-3.870229,12
999,0.117614746,0.009521484,0.0045776367,-2.7862597,0.18320611,-2.091603,12
1000,0.118652344,0.010864258,0.005004883,-5.7099237,-0.55725193,-1.7480916,12
1001,0.11987305,0.011230469,0.0040893555,-6.778626,0.07633588,1.3282443,12
1002,0.11859131,0.01171875,0.0048828125,-5.6412215,2.2900763,0.6259542,12
1003,0.12011719,0.014892578,0.0026855469,-6.8778625,2.3053436,2.9160306,12
1004,0.12005615,0.015319824,0.0013427734,-7.587786,1.1145039,1.8167939,12
1005,0.119628906,0.016479492,-0.0014038086,-7.183206,0.90839696,2.0076337,12
1006,0.11993408,0.016418457,0.0026245117,-8.175572,0.022900764,-0.77099234,12
1007,0.11816406,0.01739502,-0.0008544922,-6.8015265,-0.22137405,-2.427481,12
1008,0.11859131,0.0138549805,-0.00390625,-7.0992365,-2.1526718,-4,12
1009,0.11883545,0.01763916,0.0001831055,-5.4732823,-1.5725191,-4.4198475,12
1010,0.11669922,0.014892578,0.0041503906,-6.0458016,-0.9160305,-4.1297708,12
1011,0.11810303,0.015808105,0.0004882813,-1.6870229,-1.1832061,-5.6488547,12
1012,0.11462402,0.015991211,6.1035156E-05,0.58778626,0.091603056,-6.7862597,12
1013,0.121154785,0.014831543,0.034484863,3.778626,0.9541985,-6.625954,12
1014,0.117492676,0.013671875,0.0020141602,6.374046,2.8549619,-6.671756,12
1015,0.11608887,0.012573242,0.0025024414,6,1.4656489,-5.3511453,12
1016,0.123413086,0.01159668,0.0005493164,3.8778627,1.740458,-4.068702,12
1017,0.11956787,0.009399414,0.003479004,5.3893127,2.2366412,-5.557252,12
1018,0.12121582,0.009643555,0.0002441406,1.7709924,2.2748091,-4.3129773,12
1019,0.11956787,0.014526367,0.0020141602,0.36641222,1.7709924,-4.854962,12
1020,0.11633301,0.010253906,0.0041503906,-1.3587786,0.48854962,-3.1908398,12
1021,0.12451172,0.012084961,0.0025024414,-1.9541985,0.8549618,-1.3664122,12
1022,0.11883545,0.016113281,0.016235352,-2.053435,1.3969465,-3.5419848,12
1023,0.120788574,0.015930176,-0.0036010742,-2.816794,0.6335878,-5.5038166,12
1024,0.119262695,0.013061523,0.004272461,-2.1603053,0.8549618,-5.328244,12
1025,0.11993408,0.012878418,-0.0009155273,-2.8396947,1.961832,-3.40458,12
1026,0.121276855,0.014770508,-0.0009765625,-2.7480917,1.9923664,-4.9160304,12
1027,0.11608887,0.015625,-0.0001220703,-2.8778627,1.1068702,-6.335878,12
1028,0.11657715,0.015319824,-0.0020751953,-1.6946565,0.45801526,-5.7099237,12
1029,0.118652344,0.017822266,-0.0032958984,-1.0763359,-0.2519084,-7.114504,12
1030,0.123046875,0.014587402,-0.0010375977,-3.312977,1.2137405,-6.1374044,12
1031,0.12084961,0.014526367,0.009460449,-0.6183206,0.19847329,-7.0992365,12
1032,0.11846924,0.013671875,0.005432129,-2.2366412,-0.3740458,-5.1374044,12
1033,0.11883545,0.014099121,0.0059814453,-1.3282443,-0.610687,-7.5038166,12
1034,0.11853027,0.0138549805,0.005859375,-0.740458,-0.10687023,-4.59542,12
1035,0.1184082,0.014221191,0.006591797,-0.3740458,0.20610687,-5.374046,12
1036,0.119018555,0.014709473,0.006958008,0.26717559,-0.8015267,-5.40458,12
1037,0.11853027,0.013916016,0.0051879883,-0.22137405,-0.54198474,-6.1297708,12
1038,0.11706543,0.013671875,0.006652832,-0.73282444,-0.9312977,-5.5114503,12
1039,0.114746094,0.011962891,0.0051879883,-3.4351146,0.6870229,-6.2442746,12
1040,0.11340332,0.013122559,0.0068359375,-6.335878,-1.221374,-7.9770994,12
1041,0.115600586,0.013977051,0.0068359375,-9.083969,1.4503816,-11.511451,12
1042,0.120910645,0.015075684,0.008728027,-10.702291,2.442748,-10.656488,12
1043,0.1260376,0.01574707,0.0115356445,-11.5801525,3.6259542,-12.59542,12
1044,0.12652588,0.015136719,0.010437012,-8.038168,7.0152674,-12.267176,12
1045,0.12207031,0.016113281,0.011474609,-1.0992366,8.022901,-10.770992,12
1046,0.12005615,0.014709473,0.011230469,2.4503818,9.832061,-6.038168,12
1047,0.1184082,0.01586914,0.0045166016,5.671756,11.0992365,-1.8931298,12
1048,0.16229248,0.06854248,0.059509277,47.74046,46.648853,-16.595419,12
1049,0.16766357,0.085754395,0.04449463,-36.068703,45.82443,-82.740456,12
1050,0.12658691,0.014099121,0.024902344,11.2213745,28.969465,-66.40458,12
1051,0.11566162,0.02319336,0.030517578,26.290077,-11.137404,-53.648853,12
1052,0.09979248,0.01763916,0.0018920898,13.274809,-13.305344,14.61832,12
1053,0.12359619,0.008972168,0.010498047,9.59542,-0.053435113,9.862596,12
1054,0.12060547,0.028686523,0.0075683594,3.7328243,18.70229,16.51145,12
1055,0.119384766,0.017333984,0.020446777,16.80916,25.503817,6.6030536,12
1056,0.13085938,0.021484375,0.017578125,27.419847,-4.412214,7.0458016,12
1057,0.11193848,0.014221191,0.011230469,38.55725,10.7404585,-6.89313,12
1058,0.116882324,0.0115356445,0.012207031,22.885496,17.122137,-4,12
1059,0.12310791,0.00970459,0.013183594,8.167939,18.557251,-13.656488,12
1060,0.1262207,0.008056641,0.0036010742,8.916031,4.8320613,-20.343512,12
1061,0.1281128,0.008056641,0.002319336,11.21374,2.1984732,-9.725191,12
1062,0.12512207,0.0076293945,0.0045776367,8.7786255,7.6183205,-7.259542,12
1063,0.12799072,0.009399414,0.0095825195,4.5725193,4.664122,-4.89313,12
1064,0.1251831,0.008972168,0.015625,6.40458,-2.778626,-6.8015265,12
1065,0.11639404,0.009521484,0.014831543,6.9923663,2.038168,-4.2290077,12
1066,0.09802246,0.06616211,-0.019592285,99.580154,28.145039,-42.992367,12
1067,0.090026855,0.024353027,-0.008850098,221.50381,-22.206106,-96.740456,12
1068,0.05529785,-0.055541992,0.013305664,-81.19847,42.0229,74.33588,12
1069,0.1453247,-0.005065918,-0.004211426,-162.00763,34.282444,30.335878,12
1070,0.09509277,0.022155762,-0.015808105,-66.58778,24.541985,-55.15267,12
1071,0.1281128,0.0075683594,0.008911133,-8.801527,-2.2900763,5.5267177,12
1072,0.11578369,0.012390137,0.008361816,-12.664123,-4.3587785,-1.8015267,12
1073,0.11773682,0.013793945,0.006652832,1.351145,-5.7480917,1.8854961,12
1074,0.11932373,0.0053710938,0.013549805,-26.839695,-4.2519083,-2.1755726,12
1075,0.12072754,0.01940918,0.010437012,-41.267174,-4.8244276,0.122137405,12
1076,0.12200928,0.017944336,0.013427734,-23.389313,-7.625954,0.5496183,12
1077,0.120666504,0.016723633,0.014465332,-28.549618,-5.5725193,-2.0229008,12
1078,0.120666504,0.02331543,0.049438477,-30.42748,-4.4503818,-3.4961832,12
1079,0.12237549,0.023803711,0.012084961,-24.206106,-3.664122,-4.625954,12
1080,0.120788574,0.02154541,0.009094238,-14.503817,-3.4198472,-3.206107,12
1081,0.11993408,0.022094727,0.010070801,-4.9541984,-3.610687,-5.4656487,12
1082,0.12188721,0.01940918,0.012023926,-0.5038168,-4.1374044,-6.3129773,12
1083,0.12207031,0.018554688,0.013671875,-0.5801527,-4.5419846,-7.2442746,12
1084,0.12109375,0.017944336,0.009460449,-1.8167939,-4.7557254,-7.0916033,12
1085,0.12359619,0.018249512,0.011047363,-2.427481,-4.0229006,-8,12
1086,0.12036133,0.015991211,0.011230469,-1.5038168,-5.3435116,-7.145038,12
1087,0.1194458,0.01550293,0.0072021484,1.6870229,-2.557252,-5.7938933,12
1088,0.11798096,0.015625,0.015686035,1.6030535,-2.5496182,-5.0458016,12
1089,0.11968994,0.015380859,0.0087890625,1.1221374,-1.3053435,-4.8396945,12
1090,0.11907959,0.015380859,0.016479492,2.4503818,-2.053435,-4.0229006,12
1091,0.12005615,0.016296387,0.016296387,2.4122138,-0.73282444,-3.076336,12
1092,0.12451172,0.014587402,0.010131836,2.9160306,0.3053435,-3.5038168,12
1093,0.12121582,0.015686035,0.016113281,3.6717558,1.0839695,-3.8244274,12
1094,0.121276855,0.015930176,0.015258789,5.633588,1.1145039,-1.8931298,12
1095,0.11987305,0.016052246,0.014465332,5.5038166,0.18320611,-1.8625954,12
1096,0.12011719,0.015991211,0.012817383,3.870229,-0.8549618,-3.870229,12
1097,0.119628906,0.016479492,0.013549805,2.2748091,-0.21374045,-2.5267177,12
1098,0.11895752,0.01550293,0.013916016,-0.7557252,-2.183206,-3.7099237,12
1099,0.11883545,0.016052246,0.014038086,-0.7251908,-3.0839694,-3.5419848,12
1100,0.11853027,0.015930176,0.0115356445,-4.259542,-3.206107,-4.6564884,12
1101,0.11828613,0.016174316,0.014221191,-3.221374,-1.8015267,-3.816794,12
1102,0.12011719,0.015930176,0.013671875,-3.9312978,-1.610687,-2.40458,12
1103,0.11859131,0.016052246,0.015075684,-0.47328246,1.1221374,-2.6183207,12
1104,0.117492676,0.01763916,0.014282227,3.7099237,1.8549619,-1.3282443,12
1105,0.11633301,0.015625,0.016357422,6.7633586,3.4198472,-0.7633588,12
1106,0.116760254,0.016174316,0.012756348,6.412214,4.6030536,2.0992367,12
1107,0.118896484,0.016052246,0.012451172,7.2137403,6.366412,3.4961832,12
1108,0.11883545,0.016113281,0.0126953125,7.6793895,3.1908398,4.8320613,12
1109,0.120666504,0.015197754,0.01373291,1.8015267,2.6259542,1.9236641,12
1110,0.119628906,0.01977539,0.013000488,-2.6946564,1.7328244,3.129771,12
1111,0.12084961,0.020751953,0.016296387,-3.4198472,1.7099236,4.9923663,12
1112,0.11895752,0.020996094,0.016357422,-2.793893,-1.2366412,3.053435,12
1113,0.11846924,0.021728516,0.014526367,-1.9007634,-0.70229006,0.03816794,12
1114,0.11694336,0.022216797,0.016174316,0.67175573,1.6793894,-3.1755726,12
1115,0.12915039,0.018737793,0.014770508,6.6106873,-0.7633588,-4.1679387,12
1116,0.12561035,0.013793945,0.012817383,7.6183205,-3.5267177,-5.9160304,12
1117,0.12835693,0.010437012,0.007019043,8.564885,-4.1297708,-7.1755724,12
1118,0.12750244,0.007385254,0.006958008,6.9541984,-7.0458016,-6.076336,12
1119,0.1282959,0.0043945312,0.009094238,3.6335878,-8.984733,-5.7175574,12
1120,0.12579346,0.0041503906,0.0071411133,-5.961832,-12.862596,-4.183206,12
1121,0.12402344,0.0012817383,0.016113281,-25.725191,-15.770992,-4.2519083,12
1122,0.12133789,0.0030517578,0.015380859,-51.900764,-14.068703,-3.1221373,12
1123,0.11920166,0.012023926,0.016235352,-67.65649,-10.282443,0.8244275,12
1124,0.121154785,0.015075684,0.014892578,-69.69466,-10.038168,4.9923663,12
1125,0.115478516,0.016967773,0.015075684,-65.46565,-8.885496,6.4198475,12
1126,0.115112305,0.019104004,0.015258789,-57.099236,-1.1908396,9.954199,12
1127,0.118652344,0.02142334,0.017211914,-43.190838,1.8549619,9.977099,12
1128,0.12023926,0.024780273,0.014038086,-29.725191,4.374046,10.175572,12
1129,0.12133789,0.02520752,0.011474609,-15.274809,7.6564884,10.145039,12
1130,0.11895752,0.02142334,0.011413574,-6.5496182,10.160305,5.6106873,12
1131,0.114990234,0.022338867,0.010864258,-3.9312978,8.717557,-1.5725191,12
1132,0.11578369,0.016723633,0.00982666,-4.2061067,8.083969,-7.5648856,12
1133,0.11871338,0.015563965,0.0018920898,-7.625954,3.335878,-15.351145,12
1134,0.11975098,0.010314941,0.010131836,-9.374045,0.16793893,-19.717558,12
1135,0.121032715,0.007080078,-0.0021362305,-14.656488,-5.7328243,-24.221375,12
1136,0.12719727,0.0025634766,-0.0037841797,-15.709924,-12.625955,-27.091602,12
1137,0.12225342,-0.001953125,-0.006652832,-15.801527,-23.206106,-29.25191,12
1138,0.12579346,-0.0016479492,-0.0025024414,-25.877863,-27.030535,-25.862595,12
1139,0.12451172,-0.0021362305,-0.0016479492,-34.068703,-30.053434,-19.328245,12
1140,0.12994385,-0.0002441406,0.003479004,-45.46565,-33.633587,-11.007633,12
1141,0.1204834,0.000793457,0.0052490234,-59.290077,-33.76336,-7.3129773,12
1142,0.11590576,0.005432129,0.0026245117,-65.63359,-30.335878,-1.1755725,12
1143,0.1227417,0.014709473,0.050598145,-58.84733,-26.412214,2.7862597,12
1144,0.11328125,0.0115356445,0.0048828125,-45.625954,-26.931297,8.251908,12
1145,0.11828613,0.012145996,0.005065918,-36.84733,-22.801527,11.053435,12
1146,0.121276855,0.0076293945,0.007446289,-38.801525,-19.862595,13.4198475,12
1147,0.119140625,0.008911133,0.0036621094,-41.23664,-17.80916,16.923664,12
1148,0.11645508,0.0087890625,0.008300781,-43.84733,-15.2213745,18.404581,12
1149,0.11413574,0.0119018555,0.0008544922,-42.335876,-8.885496,22.404581,12
1150,0.10809326,0.016784668,-0.001953125,-25.198473,-1.0229008,29.007633,12
1151,0.10852051,0.0146484375,-0.0115356445,8.229008,6.4274807,34.83206,12
1152,0.1217041,0.01373291,0.002319336,37.801525,6.7709923,47.328243,12
1153,0.1159668,0.006225586,-0.0064086914,50.55725,4.6564884,52.47328,12
1154,0.119628906,-0.0001220703,-0.0095825195,38.74046,4.6412215,48.85496,12
1155,0.11730957,-0.005126953,-0.008422852,6.9465647,7.2748094,41.74046,12
1156,0.11242676,-0.0025024414,-0.006225586,-33.664124,12.664123,29.48855,12
1157,0.113098145,0.0071411133,-0.0068359375,-53.137405,16.160305,20.458015,12
1158,0.1171875,0.009033203,-0.0073242188,-52.053436,16.503817,16,12
1159,0.11621094,0.009765625,-0.0025634766,-48.809162,15.351145,15.870229,12
1160,0.11279297,0.008728027,0.0014038086,-56.335876,9.984733,8.885496,12
1161,0.111083984,0.007080078,0.005126953,-68.75572,11.320611,-0.8396947,12
1162,0.11254883,0.010253906,0.001159668,-82.05344,15.625955,-13.175572,12
1163,0.11206055,0.012817383,-0.0015258789,-74.20611,16.91603,-20.007633,12
1164,0.1138916,0.015197754,0.002746582,-53.900764,16.473282,-23.389313,12
1165,0.117126465,0.012084961,-0.0025634766,-31.740458,18.145039,-25.137405,12
1166,0.12286377,0.008300781,-0.005065918,-14.832061,20.374046,-25.51145,12
1167,0.1251831,0.005493164,-0.0017700195,-5.4656487,18.839695,-26.450382,12
1168,0.12512207,0.0030517578,-0.003112793,-2.3969467,15.412213,-24.305344,12
1169,0.12145996,0.0017089844,-0.0040283203,-3.0305343,12.40458,-24.404581,12
1170,0.119262695,0,-0.0004272461,-10.557252,7.7175574,-25.396946,12
1171,0.11791992,0.0010375977,0.0026855469,-19.564886,5.3435116,-27.038168,12
1172,0.119384766,0.0025634766,0.0032958984,-20.32061,2.0687022,-28.351145,12
1173,0.12524414,0.008728027,0.007446289,-20.099237,0.9465649,-26.305344,12
1174,0.12640381,0.009765625,0.006958008,-20.114504,2.2519083,-22.641222,12
1175,0.124816895,0.009155273,0.012878418,-18.740458,2.793893,-19.091602,12
1176,0.12524414,0.010864258,0.011962891,-19.786259,3.40458,-17.137405,12
1177,0.11816406,0.011962891,0.014526367,-17.648855,1.740458,-19.587786,12
1178,0.11621094,0.012939453,0.010253906,-22.961832,3.8931298,-18.908398,12
1179,0.11303711,0.014282227,0.01550293,-23.977098,3.3664122,-19.732824,12
1180,0.11340332,0.014709473,0.009155273,-27.61832,1.6717557,-21.419847,12
1181,0.115234375,0.016906738,0.016784668,-33.015266,4.6488547,-17.167938,12
1182,0.11987305,0.018737793,0.019226074,-33.053436,6.740458,-16.465649,12
1183,0.12579346,0.020080566,0.019470215,-28.29771,6.4885497,-11.335877,12
1184,0.12506104,0.021850586,0.016052246,-22.099237,2.221374,-7.961832,12
1185,0.12573242,0.02166748,0.016052246,-14.572519,0.7557252,-11.015267,12
1186,0.12145996,0.01965332,0.01776123,-13.106871,0.90076333,-18.396946,12
1187,0.12475586,0.01977539,0.015930176,-6.5496182,-1.2366412,-16.274809,12
1188,0.1272583,0.022705078,0.017028809,1.3358779,-3.1221373,-14.923664,12
1189,0.12689209,0.020019531,0.014526367,6.29771,-1.648855,-10.366412,12
1190,0.12634277,0.01953125,0.017822266,3.5038168,-2.9160306,-6.70229,12
1191,0.12420654,0.016418457,0.016296387,-5.89313,-4.7709923,-6.2061067,12
1192,0.11480713,0.015991211,0.016357422,-18.740458,-4.847328,-2.3435113,12
1193,0.11187744,0.016601562,0.016601562,-28.152672,-5.2900763,-3.946565,12
1194,0.11279297,0.022277832,0.010070801,-29.496183,-6.9389315,-1.3206106,12
1195,0.115478516,0.024536133,0.020629883,-30.030535,-6.6488547,1.091603,12
1196,0.11218262,0.019104004,0.016784668,-37.778625,-2.5114503,6.961832,12
1197,0.109191895,0.026794434,0.018127441,-38.374046,-1.7175573,13.091603,12
1198,0.1217041,0.027770996,0.014709473,-35.48855,0.5114504,19.595419,12
1199,0.121154785,0.026367188,0.026489258,-31.137405,2,29.076336,12
1200,0.12536621,0.028137207,0.018859863,-30.221375,1.3206106,34.21374,12
1201,0.12322998,0.030334473,0.018798828,-29.587786,4.10687,37.23664,12
1202,0.11895752,0.02947998,0.022155762,-28.419847,4.519084,36.748093,12
1203,0.12298584,0.03149414,0.019958496,-23.259542,5.328244,31.519083,12
1204,0.124694824,0.030029297,0.020019531,-13.801527,6.2900763,24.557251,12
1205,0.12219238,0.030700684,0.023254395,1.4351145,4.5038166,20.91603,12
1206,0.121032715,0.030456543,0.020629883,16.458015,1.8167939,14.145039,12
1207,0.12322998,0.02520752,0.021240234,24.564886,1.3053435,8.679389,12
1208,0.12957764,0.02368164,0.06085205,23.801527,-2.335878,3.9007633,12
1209,0.12335205,0.01977539,0.018798828,19.610687,-8.709924,-6.885496,12
1210,0.13415527,0.011047363,0.025146484,3.8854961,-9.763359,-13.984733,12
1211,0.13787842,0.0025024414,0.027770996,-27.580153,-6.9541984,-16.931297,12
1212,0.13269043,0.0032958984,0.028625488,-51.045803,-7.3129773,-20.625954,12
1213,0.11999512,-0.0020751953,0.030334473,-58.282444,0.129771,-21.877863,12
1214,0.11230469,-0.0028076172,0.026550293,-56.198475,9.251908,-19.419847,12
1215,0.11029053,0.001953125,0.020812988,-30.648855,16.099237,-11.488549,12
1216,0.1105957,0.002746582,0.020996094,22.335878,16.38168,-1.8091604,12
1217,0.11682129,-0.0017700195,0.036987305,64.48092,14.274809,8.564885,12
1218,0.11834717,-0.009887695,0.0211792,71.55725,10.854961,14.320611,12
1219,0.11767578,-0.01586914,0.018127441,62.603054,7.40458,14.503817,12
1220,0.11920166,-0.015930176,0.017700195,32.29771,4.10687,7.5038166,12
1221,0.12231445,-0.011779785,0.013793945,0.5114504,1.2748091,3.8854961,12
1222,0.123291016,-0.0034179688,0.0138549805,-15.145039,-1.2442749,3.442748,12
1223,0.12591553,0.0025024414,0.014343262,-9.389313,-3.6564887,5.961832,12
1224,0.12567139,0.0007324219,0.013671875,-3.427481,-6.8015265,8,12
1225,0.12512207,0.0020751953,0.012512207,-10.106871,-7.2442746,6.7480917,12
1226,0.12298584,0.005859375,0.017333984,-7.2290077,-6.7709923,4.740458,12
1227,0.12365723,0.0052490234,0.0178833,-2.740458,-7.4198475,3.1984732,12
1228,0.12225342,0.005859375,0.01751709,3.7633588,-8.770992,3.664122,12
1229,0.11907959,0.0049438477,0.016906738,5.1374044,-7.4198475,2.2137403,12
1230,0.116760254,0.003967285,0.01928711,2.8244274,-6.4885497,0.259542,12
1231,0.11743164,0.005004883,0.016845703,3.4732823,-5.6564884,-0.84732825,12
1232,0.11846924,0.0053100586,0.017822266,8.770992,-3.1908398,0.41984734,12
1233,0.119628906,0.005554199,0.01586914,14.21374,-2.5648854,1.9923664,12
1234,0.12420654,0.0072021484,0.015014648,16.32061,-1.9312977,3.7175572,12
1235,0.118774414,0.008056641,0.012573242,23.396946,-0.4351145,2.3206108,12
1236,0.11968994,0.010131836,0.0028686523,29.290077,2.0839694,2.923664,12
1237,0.118896484,0.0076904297,0.009338379,38.29771,0.053435113,0.6946565,12
1238,0.11871338,0.0033569336,0.004760742,44.72519,-2.389313,-1.961832,12
1239,0.12182617,0.0020141602,0.0041503906,49.549618,-6.59542,-3.6793892,12
1240,0.12207031,0.002319336,0.00390625,49.52672,-7.7251906,-2.259542,12
1241,0.12591553,0.002746582,0.002746582,48.900764,-12.007633,0.21374045,12
1242,0.12475586,0.0017089844,0.0051879883,48.007633,-18.290077,-2.2748091,12
1243,0.12005615,-0.0021972656,0.007507324,38.946564,-25.358778,-8.763359,12
1244,0.1184082,-0.0012207031,0.00793457,24.534351,-27.87023,-15.450381,12
1245,0.12213135,-0.0004272461,0.006652832,14.946565,-30.32061,-23.419847,12
1246,0.12347412,-0.0002441406,0.009399414,11.557252,-31.328245,-25.335878,12
1247,0.121520996,-0.0018310547,0.0095825195,8.022901,-31.885496,-30.610687,12
1248,0.12487793,-0.0051879883,0.009887695,6.5496182,-29.977098,-32.23664,12
1249,0.12884521,-0.0048828125,0.013061523,7.2748094,-25.984734,-33.72519,12
1250,0.124572754,-0.0032958984,0.010559082,10.366412,-22.290077,-34.27481,12
1251,0.12030029,-0.0037841797,0.0115356445,14.961832,-17.946566,-32.099236,12
1252,0.121398926,6.1035156E-05,0.0076293945,24.229008,-9.526717,-30.389313,12
1253,0.121154785,-0.000793457,0.004272461,32.244274,-6.29771,-26.969465,12
1254,0.12335205,-0.0037841797,0.0025024414,38.809162,-5.335878,-23.786259,12
1255,0.11114502,-0.0048828125,-0.0034179688,44.34351,-4.1679387,-21.801527,12
1256,0.1116333,-0.010375977,-0.0010986328,39.282444,-1.8091604,-18.51145,12
1257,0.11602783,-0.00579834,-0.0049438477,27.816793,4.854962,-15.7404585,12
1258,0.10986328,-0.0053100586,-0.0010986328,16.900763,12.068703,-8.572519,12
1259,0.10748291,0.0051879883,-0.009521484,17.80916,17,-0.045801528,12
1260,0.11682129,0.006591797,-0.0057373047,29.595419,21.595419,6.7328243,12
1261,0.12237549,0.0048828125,-0.0051879883,38.72519,26.183207,9.923664,12
1262,0.12799072,0.00390625,-0.004211426,43.992367,26.923664,12.679389,12
1263,0.13195801,0.005859375,6.1035156E-05,52.82443,23.57252,10.954199,12
1264,0.13769531,0.010375977,0.020690918,49.93893,21.564886,5.2290077,12
1265,0.1270752,0.004699707,-0.005493164,41.14504,17.80916,-6.0534353,12
1266,0.12213135,0.001953125,0.0006713867,30.740458,15.366412,-16.687023,12
1267,0.11810303,0.004211426,0.0012817383,26.396946,10.725191,-18.961832,12
1268,0.11437988,0.0037231445,0.0017089844,24.76336,6.9465647,-21.022902,12
1269,0.11608887,0.003479004,0.0049438477,22.038168,5.9160304,-18.87023,12
1270,0.11621094,0.0048217773,0.004272461,20.213741,5.40458,-16.633587,12
1271,0.11853027,0.005493164,0.007507324,24.526718,6.1297708,-13.938931,12
1272,0.11981201,0.0068359375,0.008361816,26.824427,6.664122,-11.80916,12
1273,0.12243652,0.010925293,0.004760742,30.709923,8.19084,-8.267176,12
1274,0.11480713,0.008605957,0.010192871,34.809162,10.587787,-7.625954,12
1275,0.113464355,0.00970459,0.01361084,38.374046,12.198473,-5.7480917,12
1276,0.11541748,0.011108398,0.013916016,38.541985,12.694656,-4.8625956,12
1277,0.11883545,0.01184082,0.015075684,41.251907,14.587787,-1,12
1278,0.119506836,0.012939453,0.015136719,43.52672,12.015267,0.6335878,12
1279,0.12084961,0.013366699,0.015930176,41.282444,10.854961,-3.1984732,12
1280,0.12109375,0.0134887695,0.016235352,39.221375,9.854961,-6.5267177,12
1281,0.122680664,0.0154418945,0.016540527,38.221375,7.114504,-12.755725,12
1282,0.12261963,0.01727295,0.025024414,39.748093,5.6030536,-14.496183,12
1283,0.12615967,0.01776123,0.014770508,38.91603,5.5114503,-14.648855,12
1284,0.12664795,0.015808105,0.017333984,38.44275,4.2137403,-14.748092,12
1285,0.124572754,0.01574707,0.020385742,31.671755,1.1221374,-16.038168,12
1286,0.12298584,0.016357422,0.018859863,23.091602,1.221374,-18.030535,12
1287,0.12689209,0.016723633,0.020568848,21.717558,4.5725193,-17.801527,12
1288,0.1281128,0.018310547,0.020507812,22.57252,1.4427481,-15.557252,12
1289,0.12536621,0.017822266,0.017150879,25.030535,-0.48854962,-15.908397,12
1290,0.11999512,0.017150879,0.018371582,24.38168,-1.778626,-17.740458,12
1291,0.118896484,0.016357422,0.020812988,22.725191,-3.1221373,-16.900763,12
1292,0.120666504,0.015197754,0.019042969,18.931297,-5.7938933,-19.76336,12
1293,0.12335205,0.013000488,0.020263672,13.351145,-5.9923663,-17.450382,12
1294,0.12420654,0.014099121,0.021118164,5.076336,-6.3587785,-13.61832,12
1295,0.12036133,0.012268066,0.022216797,-5.2366414,-8.145039,-12.122137,12
1296,0.12158203,0.01373291,0.020629883,-10.946565,-7.854962,-13.916031,12
1297,0.11578369,0.0154418945,0.020202637,-10.5801525,-6.1755724,-10.465649,12
1298,0.11541748,0.015075684,0.018981934,-6.4503818,-3.167939,-8.396947,12
1299,0.11743164,0.017700195,0.0178833,0.23664123,-1.0229008,-5.1603055,12
1300,0.11791992,0.015563965,0.018859863,7.3053436,0.16030534,-1.1450381,12
1301,0.1184082,0.016418457,0.016906738,7.6564884,1.8931298,3.7099237,12
1302,0.11968994,0.016906738,0.014709473,7.5496182,2.6564887,10.335877,12
1303,0.119384766,0.016174316,0.013671875,7.480916,3.4198472,13.732824,12
1304,0.11785889,0.011962891,0.0138549805,0.84732825,0.10687023,15.396947,12
1305,0.12188721,0.015808105,0.015136719,-2.1755726,-1.7328244,14.534351,12
1306,0.12658691,0.013061523,0.00970459,-2.076336,-0.4427481,14.106871,12
1307,0.13275146,0.0134887695,0.011352539,-1.0076336,-1.1603054,14.053435,12
1308,0.124938965,0.013000488,0.011108398,-1.3816794,-1.8854961,11.557252,12
1309,0.124694824,0.009216309,0.009460449,-0.099236645,0.64122134,8.610687,12
1310,0.122802734,0.0138549805,0.0033569336,9.19084,2.5114503,7.5648856,12
1311,0.13391113,0.011047363,0.008666992,21.114504,7.0992365,13.007633,12
1312,0.13006592,0.016296387,0.0001831055,37.21374,9.816793,16.152672,12
1313,0.1262207,0.010253906,0.0051879883,49.49618,10.656488,16.06107,12
1314,0.12182617,0.009033203,0.0008544922,48.70229,9.396947,10.763359,12
1315,0.1105957,0.0033569336,-0.0014648438,41.35878,7.2290077,5.0458016,12
1316,0.11260986,0.0031738281,0.0007324219,38.755726,1.1374046,-2.8625953,12
1317,0.10852051,0.0025634766,-0.0013427734,36.72519,-3.335878,-9.442748,12
1318,0.11303711,0.0010986328,0.0003662109,27.954199,-7.1679387,-13.824428,12
1319,0.11859131,-0.0020751953,0.0076293945,16.786259,-9.030535,-10.885496,12
1320,0.122680664,-0.0028686523,0.0073242188,3.1068702,-11.152672,-9.251908,12
1321,0.12194824,-0.0014648438,0.013305664,-7.1755724,-13.549619,-9.0992365,12
1322,0.12023926,-0.0001220703,0.008605957,-12.633588,-13.877863,-7.29771,12
1323,0.12225342,0.0014648438,0.003479004,-15.61832,-10.977099,-9.511451,12
1324,0.12298584,0.0012207031,0.007873535,-9.946565,-10.885496,-10.076336,12
1325,0.11785889,0.0001220703,0.009460449,-7.2900763,-7.2748094,-11.816793,12
1326,0.11639404,0.0004882813,0.008422852,-1.3740458,-2.1068702,-13.496183,12
1327,0.11529541,0.0007324219,0.007873535,7.7862597,1.9465649,-12.091603,12
1328,0.117492676,0.0006103516,0.0099487305,19.839695,6.3206105,-9.748092,12
1329,0.11981201,-0.0014648438,0.011108398,22.992367,8.396947,-6.335878,12
1330,0.11987305,-0.0022583008,0.0033569336,22.877863,10.427481,-6.557252,12
1331,0.12011719,-0.0015869141,0.0032958984,22.167938,9.076336,-6.7175574,12
1332,0.12023926,-0.0012207031,0.0038452148,22.91603,7.3206105,-7.6106873,12
1333,0.119018555,-0.0040283203,0.0036621094,19.030535,4.2748094,-6.3969464,12
1334,0.11828613,-0.0037231445,0.005493164,7.6946564,3.1603053,-8.038168,12
1335,0.11791992,-0.0018920898,0.0053100586,-8.496183,3.3587787,-9.290076,12
1336,0.11871338,0.0025024414,0.0030517578,-10.229008,3.4503818,-6.9083967,12
1337,0.11968994,0.0025024414,0.004638672,-5.9465647,3.7328243,-6.480916,12
1338,0.12524414,0.004333496,0.03253174,-6.3511453,2.1755726,-4.0992365,12
1339,0.11999512,0.006591797,0.0025024414,-4.0916033,3.221374,-4.5343513,12
1340,0.12176514,0.003479004,0.0012817383,2.2366412,-0.38931298,-2.2442749,12
1341,0.12030029,0.0005493164,0.0012817383,-3.7480917,-1.8549619,-3.3740458,12
1342,0.11968994,0.0016479492,0.0014038086,-9.435115,-2.664122,0.16793893,12
1343,0.11987305,0.0052490234,0.0001220703,-11.282443,-2.7099237,-0.2977099,12
1344,0.119628906,0.0065307617,0.005004883,-10.824428,-0.58778626,-0.5648855,12
1345,0.119506836,0.010070801,0.0052490234,-2.1984732,1.2442749,-1.519084,12
1346,0.1159668,0.007446289,0.0079956055,6.4580154,3.610687,-3.687023,12
1347,0.118896484,0.010253906,0.008666992,17.496183,4.740458,-2.1145039,12
1348,0.11767578,0.008972168,0.011657715,24.389313,6.2824426,-4.5648856,12
1349,0.11816406,0.0076293945,0.010009766,21.221375,6.9465647,-4.9389315,12
1350,0.12133789,0.008300781,0.008239746,20.839695,7.3969464,-4.5725193,12
1351,0.1194458,0.006652832,0.007385254,21.12977,5.2519083,-6.221374,12
1352,0.123535156,0.0034179688,0.003479004,17.816793,1.9312977,-3.5419848,12
1353,0.12158203,0.0028686523,0.004699707,14.816793,2.0610688,-6.8244276,12
1354,0.123046875,-0.0017089844,0.0009765625,8.946565,-0.19847329,-6.480916,12
1355,0.123046875,-0.0014648438,0.0037231445,8.396947,1.778626,-6.7709923,12
1356,0.124816895,-0.0010375977,0.0028686523,8.824428,0.7251908,-4.59542,12
1357,0.12182617,-0.0005493164,0.0071411133,10.152672,0.29007635,-5.9923663,12
1358,0.122680664,0.0033569336,0.005432129,12.175572,0.5801527,-7.1755724,12
1359,0.12042236,0.0033569336,0.0053710938,18.961832,1.3664122,-4.80916,12
1360,0.12023926,0.0026855469,0.0064086914,18.89313,0.3053435,-4.7709923,12
1361,0.119506836,0.0026245117,0.006713867,15.053435,1.3053435,-8.885496,12
1362,0.12506104,0.0020141602,0.010009766,13.641221,0.39694658,-7.3206105,12
1363,0.11920166,-0.0015258789,0.025390625,-12.297709,-1.4503816,-14.297709,12
1364,0.12530518,0.028015137,0.0073242188,-11.358779,-6.259542,-12.977099,12
1365,0.12426758,0.014282227,0.003540039,25.534351,-10.725191,-13.7786255,12
1366,0.12451172,-0.002380371,-0.0025634766,-3.4122138,-15.587787,-22.519083,12
1367,0.11956787,0.010070801,-0.0026245117,-40.16794,-12.083969,-24.045801,12
1368,0.11853027,0.014770508,-0.0017700195,-29.595419,-9.839695,-25.442749,12
1369,0.123413086,0.0003662109,-0.008300781,-9.458015,-13.893129,-21.847328,12
1370,0.1217041,0.0072631836,0.004760742,0.08396947,-10.175572,-13.931297,12
1371,0.11352539,0.015136719,0.006225586,26.198473,-6.89313,-8.862596,12
1372,0.12402344,0.00793457,0.010437012,30.206106,-3.480916,-12.870229,12
1373,0.12097168,0.022766113,-0.0020141602,51.251907,-6.7099237,2.1221373,12
1374,0.12188721,0.01928711,0.006164551,72.62595,-9.7404585,2.2671757,12
1375,0.11407471,0.000793457,0.0064697266,62.251907,-5.8702292,5.038168,12
1376,0.11682129,0.001953125,0.0020141602,22.824427,-3.687023,3.2824428,12
1377,0.10333252,-0.0067749023,-0.002319336,-15.145039,-1.740458,-4.9160304,12
1378,0.0993042,-0.0045166016,-0.0012207031,-58.908398,-2.923664,-14.106871,12
1379,0.107543945,0.008239746,0.0053710938,-74,0.1908397,-15.59542,12
1380,0.11114502,0.010681152,0.013366699,-89.740456,8.526717,-24.641222,12
1381,0.12188721,0.015319824,-0.0008544922,-76.28244,9.770992,-20.160305,12
1382,0.12823486,0.016540527,-0.0003662109,-51.045803,9.251908,-19.740458,12
1383,0.12921143,0.021911621,0.014465332,-33.25954,10.290076,-19.534351,12
1384,0.12976074,0.025024414,0.019897461,2.2290077,14.984733,-9.664123,12
1385,0.13916016,0.02368164,0.0079956055,50.49618,11.687023,-3.389313,12
1386,0.13183594,0.008911133,0.008605957,63.450382,1.2137405,0.6335878,12
1387,0.12982178,0.010498047,0.0071411133,42.809162,-2.0152671,-2.427481,12
1388,0.12194824,0.011657715,0.009460449,14.396947,2.076336,-4.671756,12
1389,0.119384766,0.015625,0.005004883,7.5114503,4.4885497,-0.9541985,12
1390,0.115478516,0.013183594,0.008972168,19.961832,3.5114503,9.954199,12
1391,0.11419678,0.015808105,0.0099487305,24.885496,6.10687,21.053434,12
1392,0.11029053,0.018676758,0.015625,31.603054,8.908397,32.412212,12
1393,0.113220215,0.010314941,0.0016479492,40.732826,11.320611,38.25954,12
1394,0.12176514,0.0059814453,0.011047363,30.587786,8.297709,38.67939,12
1395,0.11682129,0.006958008,0.007019043,3,7.3053436,26.91603,12
1396,0.12322998,0.01184082,-0.000793457,-7.854962,1.4045801,21.122137,12
1397,0.121032715,0.008239746,-0.00592041,-0.21374045,-1.1832061,12.793893,12
1398,0.122924805,0.0040283203,0.0025024414,-4.59542,-6.0076337,8.061069,12
1399,0.11791992,0.008422852,0.005126953,-1.0687023,-5.9083967,2.351145,12
1400,0.11383057,0.00579834,0.0041503906,8.267176,-8.80916,0.7480916,12
1401,0.11566162,0.0013427734,0.0028686523,7.4198475,-10.083969,-3.816794,12
1402,0.11798096,-0.0008544922,0.00793457,-4.8702292,-9.633588,-8.053435,12
1403,0.12658691,-0.0030517578,0.012145996,-11.0992365,-10.717557,-13.862596,12
1404,0.12207031,0.0017700195,0.0030517578,-10.824428,-6.923664,-15.549619,12
1405,0.12176514,-0.0006103516,0.006652832,-10.21374,-3.8091602,-19.053434,12
1406,0.121154785,-0.0037231445,0.0087890625,-11.549619,-4.740458,-23.167938,12
1407,0.123413086,0.0001220703,0.010070801,-15.19084,-3.9312978,-26.603054,12
1408,0.12652588,0.0026245117,0.010925293,-6.114504,-2.7480917,-25.862595,12
1409,0.12310791,0.0051879883,0.008361816,1.4045801,0.030534351,-22.42748,12
1410,0.12487793,0.0052490234,0.008544922,-0.7633588,-0.35877863,-21.900763,12
1411,0.11993408,0.004638672,0.011413574,-2.0152671,-0.2519084,-21.351145,12
1412,0.11791992,0.006958008,0.0087890625,-9.2213745,3.5267177,-21.305344,12
1413,0.115722656,0.006591797,0.0063476562,-1.9923664,4.5648856,-18.198473,12
1414,0.12109375,0.0064697266,0.003479004,-4.145038,6,-17.480917,12
1415,0.11639404,0.01776123,0.0072631836,-10.648855,10.0992365,-14.877863,12
1416,0.119506836,0.009643555,0.003967285,6.664122,12.076336,-5.4885497,12
1417,0.11883545,0.0021972656,0.0033569336,1.167939,13.5801525,-2.442748,12
1418,0.12237549,0.007019043,0.0012207031,-11.007633,11.748092,-1.9007634,12
1419,0.123413086,0.012634277,0.0003662109,-17.366413,10.351145,-8.206107,12
1420,0.11895752,0.0029296875,0.0078125,-17.152672,10.78626,-11.59542,12
1421,0.12872314,0.012451172,-0.018920898,-23.671755,5.2519083,-4.0076337,12
1422,0.1295166,0.010437012,-0.016418457,-6.6564884,-1.5648855,-6.4198475,12
1423,0.12213135,0.0056152344,-0.0033569336,-8.229008,-12.969465,-7.7938933,12
1424,0.11480713,0.008911133,0.0017700195,-6.5496182,-9.946565,-1.9007634,12
1425,0.11828613,0.014587402,0.0025634766,-6.6564884,-2.9770992,-2.664122,12
1426,0.12188721,0.01184082,0.0072021484,0.9236641,-1.4732825,1.8473282,12
1427,0.12445068,0.013244629,0.0048217773,6.89313,-8.923664,-4.2442746,12
1428,0.12017822,0.012512207,0.004272461,8.755725,-3.9694657,-3.3206108,12
1429,0.12719727,0.014099121,0.008728027,4.3816795,-0.061068702,0.90839696,12
1430,0.1274414,0.011352539,0.006591797,5.5496182,-4.0458016,1.7557251,12
1431,0.11755371,0.010925293,0.0037231445,3.664122,-7.5801525,-2.5267177,12
1432,0.11199951,0.014160156,0.0068359375,-2.5877862,-6.221374,-1.091603,12
1433,0.11517334,0.012451172,0.007019043,-5.0305343,-2.8244274,0.8549618,12
1434,0.113098145,0.013122559,0.0044555664,-7.5496182,-1.6259542,2.740458,12
1435,0.110839844,0.010986328,0.005126953,-14.183207,0.3816794,3.8015268,12
1436,0.109558105,0.016296387,0.018981934,-15.412213,4.5267177,2.5114503,12
1437,0.10925293,0.017028809,0.0043945312,-6.2061067,9.847328,3.5267177,12
1438,0.11444092,0.014831543,0.0026245117,-0.32824427,11.870229,-0.22137405,12
1439,0.121398926,0.01373291,0.0072631836,-1.7328244,12.145039,1.3282443,12
1440,0.12628174,0.012817383,0.004699707,-1.2519084,11.145039,-3.519084,12
1441,0.12982178,0.011962891,0.0040283203,1.9007634,6.8015265,-8.198473,12
1442,0.13165283,0.011169434,0.008483887,12.603053,4.6106873,-9.290076,12
1443,0.13024902,0.009216309,0.010131836,22.183207,0.33587787,-8.824428,12
1444,0.1262207,0.0057373047,0.007385254,25.091602,-0.6946565,-10.183207,12
1445,0.12371826,0.0044555664,0.009460449,20.923664,-1.167939,-7.7938933,12
1446,0.12164307,0.005065918,0.009216309,11.893129,-0.3053435,-5.633588,12
1447,0.120666504,0.0073242188,0.013977051,2.1145039,0.2977099,-0.7633588,12
1448,0.11871338,0.008605957,0.01171875,-4.557252,-0.77099234,1.0534351,12
1449,0.11798096,0.012268066,0.00970459,-11.763359,-0.061068702,3.832061,12
1450,0.11920166,0.014221191,0.012390137,-12.198473,1.0305344,2.8244274,12
1451,0.12030029,0.014343262,0.0126953125,-5.9160304,1.5572519,3.8625953,12
1452,0.121154785,0.014404297,0.012084961,0.99236643,1.7557251,2.427481,12
1453,0.1204834,0.012451172,0.012390137,9.793893,1.7938931,1.4961832,12
1454,0.12023926,0.01184082,0.010437012,11.870229,0.66412216,-1.7175573,12
1455,0.118896484,0.011108398,0.009399414,16.122137,1.4122137,-3.0839694,12
1456,0.118896484,0.008239746,0.0078125,17.946566,2.8244274,-3.1984732,12
1457,0.11920166,0.006713867,0.008117676,18.549618,0.5496183,-3.9770992,12
1458,0.11907959,0.006225586,0.0076293945,16.648855,1.0992366,-4.2442746,12
1459,0.123413086,0.0053100586,0.05279541,14.969465,1.0687023,-0.030534351,12
1460,0.120910645,0.004638672,0.006713867,10.312977,0.129771,-4.3053436,12
1461,0.119384766,0.0051879883,0.0087890625,8.145039,0.41221374,-4.4274807,12
1462,0.11785889,0.005859375,0.008056641,7.076336,0.17557251,-5.0458016,12
1463,0.120910645,0.0041503906,0.008666992,4.923664,1.0763359,-4.7175574,12
1464,0.11920166,0.00579834,0.009094238,3.70229,0.053435113,-5.7175574,12
1465,0.12042236,0.0067749023,0.007019043,5.3206105,0.58778626,-6.6030536,12
1466,0.120666504,0.0057373047,0.008605957,3.2519083,0.03816794,-7.5343513,12
1467,0.1204834,0.008483887,0.006286621,3.8625953,-0.48091602,-5.5038166,12
1468,0.124572754,0.010314941,0.0021362305,2.534351,1.4427481,-6.5419846,12
1469,0.11828613,0.009399414,0.0064697266,2,0.8854962,-5.0305343,12
1470,0.119262695,0.0076904297,0.008728027,1.9236641,1.6793894,-4.7480917,12
1471,0.117370605,0.005554199,0.0064086914,3.70229,0.870229,-4.1984735,12
1472,0.120666504,0.006591797,0.003967285,3.3816793,1.4122137,-4.3893127,12
1473,0.11853027,0.007446289,0.0053100586,5.366412,1.1526718,-4.3206105,12
1474,0.11651611,0.0063476562,0.0040283203,5.8396945,0.27480915,-4.778626,12
1475,0.12011719,0.0064697266,0.00592041,6.1221375,0.122137405,-3.8854961,12
1476,0.12158203,0.0041503906,0.0056152344,5.5648856,0.091603056,-2.0229008,12
1477,0.12408447,0.005126953,0,6.335878,-0.6183206,-4.374046,12
1478,0.122802734,0.0064086914,0.0018920898,5.7938933,-0.030534351,-5.3206105,12
1479,0.1227417,0.004211426,0.004333496,5.366412,-0.33587787,-2.4351146,12
1480,0.1239624,0.0063476562,0.00390625,4.847328,-1.9694656,-3.740458,12
1481,0.119018555,0.0044555664,0.006591797,4.931298,-1.351145,-4.854962,12
1482,0.11987305,0.0065307617,0.005126953,3.0839694,-0.16793893,-3.6259542,12
1483,0.12567139,0.0045776367,0.0036010742,3.7557251,-1.70229,-3.3435113,12
1484,0.11590576,0.00793457,0.0038452148,2.9847329,-1.70229,-4.5343513,12
1485,0.119384766,0.006958008,0.001953125,2.7862597,-0.90839696,-3.053435,12
1486,0.12463379,0.0063476562,0.0036010742,2.9770992,0.4351145,-4.2061067,12
1487,0.12200928,0.008850098,0.0029296875,5.1679387,1.7328244,-5.7633586,12
1488,0.118896484,0.0037841797,0.0028076172,5.3129773,1.4885496,-4.0305343,12
1489,0.11981201,0.007385254,0.0029296875,5.7862597,1.3129771,-4.19084,12
1490,0.117248535,0.003112793,0.0017700195,7.29771,1.1145039,-3.4732823,12
1491,0.11956787,0.0036621094,0.0022583008,8.770992,0.71755725,-2.7862597,12
1492,0.12036133,0.0038452148,0.0016479492,10.015267,0.7557252,-4.3587785,12
1493,0.11907959,0.0076904297,0.00390625,9.854961,0.7099237,-3.5801528,12
1494,0.12219238,0.0049438477,0.0068359375,10.022901,0.3053435,-3.3816793,12
1495,0.12359619,0.0072021484,0.0057373047,8.908397,-0.67175573,-2.2137403,12
1496,0.12200928,0.0041503906,0.007751465,7.9389315,-0.67175573,-3.816794,12
1497,0.12261963,0.0053710938,0.016967773,3.9312978,-0.29007635,-5.854962,12
1498,0.12145996,0.0061035156,0.008605957,6.0610685,-3.29771,-4.8320613,12
1499,0.121154785,0.005065918,0.01751709,6.8244276,-1.1221374,-7.9847326,12
1500,0.12072754,0.00390625,0.010986328,5.9160304,-0.73282444,-7.183206,12
1501,0.121398926,0.0041503906,0.013549805,5.9389315,-1.0763359,-8.488549,12
1502,0.12011719,0.0038452148,0.008300781,4.442748,-0.34351146,-6.5725193,12
1503,0.12017822,0.004333496,0.008422852,1.832061,-2.480916,-6.3893127,12
1504,0.11981201,0.0045166016,0.0087890625,1.6030535,-0.6870229,-7.7633586,12
1505,0.11907959,0.0044555664,0.01159668,2.8473282,-0.40458015,-6.0305343,12
1506,0.119628906,0.0052490234,0.009094238,3.7251909,-2.1374047,-4.2824426,12
1507,0.11987305,0.004333496,0.008056641,2.2366412,-1,-3.7709923,12
1508,0.12036133,0.004760742,0.009094238,1.6335878,0.14503817,-5.587786,12
1509,0.1194458,0.0052490234,0.008605957,-0.77099234,0.29007635,-3.2748091,12
1510,0.11993408,0.00579834,0.008300781,-1.221374,1.1068702,-3.389313,12
1511,0.11987305,0.0056152344,0.0078125,-1.8091604,1.6412214,-4.8702292,12
1512,0.12121582,0.005493164,0.007080078,-4.0152674,0.8778626,-6.0610685,12
1513,0.11907959,0.007080078,0.0053710938,-3.5419848,0.870229,-5.40458,12
1514,0.12030029,0.0061035156,0.0045166016,-4.2519083,0,-5.1755724,12
1515,0.12060547,0.0059814453,0.0056152344,-5.2290077,-0.27480915,-7.19084,12
1516,0.12036133,0.005432129,0.007019043,-4.4274807,-1.0992366,-6.5725193,12
1517,0.12005615,0.005859375,0.0037231445,-4.816794,-2.5648854,-8.137404,12
1518,0.12164307,0.005554199,0.0060424805,-4.5038166,-2.0610688,-6.2061067,12
1519,0.119140625,0.0060424805,0.003540039,-4.1297708,-1.5114504,-5.9694657,12
1520,0.121032715,0.005554199,0.0041503906,-5.5648856,-1.0763359,-7.10687,12
1521,0.121276855,0.0064086914,0.006652832,-7.5648856,-1.6412214,-7.183206,12
1522,0.121520996,0.006591797,0.0043945312,-8.572519,-3.1068702,-7.4351144,12
1523,0.1194458,0.006958008,0.0048217773,-8.007633,-1.70229,-6.8778625,12
1524,0.12713623,0.007751465,0.011169434,-5.5267177,0.41984734,-5.221374,12
1525,0.12145996,0.0063476562,0.0041503906,-6.0076337,-0.9694657,-6.5496182,12
1526,0.118896484,0.004638672,0.0030517578,-6.625954,-0.7633588,-5.0076337,12
1527,0.11791992,0.008605957,0.003540039,-6.19084,0.34351146,-4.7938933,12
1528,0.11773682,0.005493164,0.002746582,-4.7480917,0.86259544,-4.068702,12
1529,0.122558594,0.008911133,0.004760742,-4.8015265,1.4732825,-4.6488547,12
1530,0.12591553,0.012634277,-0.0010986328,-5.2748094,1.8549619,-3.4503818,12
1531,0.12121582,0.009399414,0.0034179688,-5.4885497,1.6564885,-5.2366414,12
1532,0.12030029,0.009216309,0.0015258789,-8.061069,0.84732825,-6.5725193,12
1533,0.12005615,0.013183594,-0.0067749023,-6.2519083,-0.7099237,-5.5038166,12
1534,0.12298584,0.006591797,0.003479004,-3.9847329,-0.6335878,-6.0839696,12
1535,0.119384766,0.0076293945,0.003112793,1.4732825,0.58778626,-5.80916,12
1536,0.11566162,0.009338379,0.0025634766,5.664122,2.7633588,-3.1221373,12
1537,0.119262695,0.010681152,0.003112793,7.625954,2.923664,0.4427481,12
1538,0.11816406,0.010620117,0.0009155273,8.984733,5.2061067,2.8091602,12
1539,0.118774414,0.012268066,-0.0028076172,11.396947,5.366412,5.9541984,12
1540,0.12414551,0.00793457,-0.0003662109,9.015267,2.6183207,7.2442746,12
1541,0.12756348,0.00970459,-0.0034179688,-2.648855,0.32061067,3.2671757,12
1542,0.12652588,0.007751465,-0.0017089844,-14.106871,-5.29771,-7.3511453,12
1543,0.12261963,0.008483887,0.0040283203,-6.2900763,-5.9847326,-12.053435,12
1544,0.12182617,0.003479004,0.005126953,-2.076336,-6.442748,-12.725191,12
1545,0.12017822,0.0048217773,0.0009765625,8.412213,-1.9847329,-10.992367,12
1546,0.119140625,0.0010375977,0.007385254,13.267176,0.610687,-6.5648856,12
1547,0.1184082,0.005432129,6.1035156E-05,16.312977,3.8549619,-2.351145,12
1548,0.11883545,0.0051879883,-0.0028076172,16.007633,5.259542,4.0992365,12
1549,0.12084961,0.0032348633,0.0006103516,15.045801,2.3816793,5.076336,12
1550,0.1237793,0.004699707,0.0036621094,16.725191,0.6335878,6.931298,12
1551,0.12335205,0.0018920898,0.027832031,13.198473,-0.77099234,2.4122138,12
1552,0.12420654,0.0048828125,0.0001220703,4.931298,-1.8396946,-0.4427481,12
1553,0.11993408,0.0015869141,0.0032958984,-1.8244275,-3.7709923,-1.519084,12
1554,0.11730957,0.003540039,0.007873535,-5.328244,-2.206107,-1.7709924,12
1555,0.1171875,0.0040893555,0.008728027,-6.2061067,-2.1603053,-1.4961832,12
1556,0.1171875,0.00592041,0.008666992,-4.625954,-0.79389316,0.26717559,12
1557,0.118896484,0.0051879883,0.007019043,-1.7709924,2.7175572,2.29771,12
1558,0.12042236,0.006652832,0.008239746,-0.9465649,4.4274807,1.8091604,12
1559,0.11987305,0.0075683594,0.0049438477,6.6946564,5.2366414,2.572519,12
1560,0.121276855,0.005554199,0.007019043,12.839695,7.1755724,2.7862597,12
1561,0.11987305,0.004272461,0.0045776367,10.832061,5.9160304,0.8244275,12
1562,0.11907959,0.0040283203,0.007507324,7.8702292,6.3587785,-1.5725191,12
1563,0.120910645,0.003967285,0.004211426,4.5419846,3.816794,-5.8015265,12
1564,0.11999512,0.0056152344,0.0006103516,2.1984732,3.206107,-3.0839694,12
1565,0.12011719,0.006164551,0.0022583008,4.5343513,2.1450381,-3.59542,12
1566,0.11999512,0.006164551,0.0009155273,7.5267177,2.038168,-3.427481,12
1567,0.121032715,0.00579834,0.0034179688,14.312977,1.1908396,-6.1297708,12
1568,0.121398926,0.0020751953,0.006225586,16.137405,0.045801528,-6.2824426,12
1569,0.12164307,0.0021362305,0.0053710938,13.2213745,0.19847329,-7.4503818,12
1570,0.12237549,0.0003662109,0.0001831055,13.526717,-1.4961832,-8.167939,12
1571,0.12310791,0.0004272461,0.006286621,7.4503818,-3.5877862,-8.763359,12
1572,0.12060547,0.0022583008,0.0051879883,3.8473282,-4.2442746,-9.763359,12
1573,0.12261963,-6.1035156E-05,0.006958008,3.664122,-6.70229,-8.725191,12
1574,0.12420654,-0.0006713867,0.0079956055,0.6793893,-3.6793892,-9.59542,12
1575,0.12322998,-0.0012207031,0.005126953,2.740458,-3.7633588,-7.1221375,12
1576,0.12011719,-0.0044555664,0.0065307617,0.21374045,-5.5038166,-4.2366414,12
1577,0.115722656,-0.0048828125,0.00592041,-9.427481,-6.6793895,-4.3129773,12
1578,0.11590576,-0.0009765625,0.006225586,-14.038168,-3.7633588,-4.9083967,12
1579,0.11694336,-0.0003051758,0.009399414,-17.183207,-3.557252,-2.9923663,12
1580,0.11682129,0.0006713867,0.008666992,-22.435114,-2.6564887,-2.5648854,12
1581,0.119506836,0.0012207031,0.007019043,-21.358778,0.83206105,-4.5267177,12
1582,0.119506836,0.0038452148,0.0061035156,-14.534351,3.3740458,-4.8244276,12
1583,0.117004395,0.0021972656,-0.0001831055,-9.511451,2.7251909,-4.89313,12
1584,0.12164307,0.0033569336,0.0003662109,-7.671756,4.2442746,-3.7862597,12
1585,0.12390137,0.0001220703,0.0006713867,-10.549619,2.793893,-4.5038166,12
1586,0.12640381,0.0031738281,0.0002441406,-14.38168,1.6564885,-7.0458016,12
1587,0.12701416,0.005126953,-0.0038452148,-13.206107,0.2519084,-8.122137,12
1588,0.122802734,0.0032348633,-0.0017700195,-14.435115,-4.8778625,-8.969465,12
1589,0.12817383,0.0045776367,0.049194336,-12.572519,-5.2900763,-8.267176,12
1590,0.12298584,0.003967285,0,-15.923664,-3.832061,-8.977099,12
1591,0.11791992,0.005126953,0.0041503906,-13.007633,-2.335878,-10.015267,12
1592,0.11871338,0.006164551,0.0018310547,-12.732824,-1.2061069,-7.0229006,12
1593,0.11975098,0.0076904297,0.0003051758,-17.06107,-1.1603054,-4.9007635,12
1594,0.116882324,0.009094238,0.004211426,-16.526718,2.6564887,-5.931298,12
1595,0.12036133,0.008605957,-0.00579834,-13.763359,4.335878,-3.3206108,12
1596,0.11657715,0.008483887,-0.0010375977,-7.7328243,7.6412215,-1.1832061,12
1597,0.11993408,0.0078125,-0.0063476562,-1.8625954,6.5038166,-0.24427481,12
1598,0.12176514,0.008911133,-0.0115356445,0.9847328,7.3053436,1.3664122,12
1599,0.121398926,0.010375977,-0.0061035156,3.1526718,5.931298,1.2671756,12
1600,0.124694824,0.012451172,-0.0079956055,3.2137403,5.2671757,-1.5725191,12
1601,0.12286377,0.006652832,-0.0040283203,4.2137403,3.183206,-1.7328244,12
1602,0.1251831,0.008666992,-0.0030517578,6.5343513,0.39694658,-3.4198472,12
1603,0.12225342,0.0040283203,0.0002441406,13.816793,-0.053435113,-4.519084,12
1604,0.117492676,0.0041503906,-0.0003662109,14.755725,-0.053435113,-5.0076337,12
1605,0.12243652,0.0033569336,0.0049438477,13.847328,0.99236643,-5.7862597,12
1606,0.11846924,0.0025024414,0.0016479492,12.9007635,-0.45038167,-5.8015265,12
1607,0.12145996,0.006713867,0.00390625,11.541985,1.259542,-4.9694657,12
1608,0.12145996,0.0032348633,0.004272461,11.015267,3.0992367,-3.1221373,12
1609,0.12042236,0.0005493164,-0.0006103516,11.389313,3.2748091,-0.83206105,12
1610,0.121154785,6.1035156E-05,0.0006713867,9.847328,5.3511453,-1.9007634,12
1611,0.12194824,0.004638672,0.0057373047,8.503817,4.1984735,-1.29771,12
1612,0.12310791,0.0045776367,0.0146484375,10.030535,3.9007633,-4.0458016,12
1613,0.12243652,0.0049438477,0.005004883,10.679389,3.1984732,-2.0305343,12
1614,0.122680664,0.00390625,0.005004883,12.755725,3.038168,-3.8778627,12
