measurement,Acc_X,Acc_Y,Acc_Z,Gyr_X,Gyr_Y,Gyr_Z,Time(hh:mm:ss),Label
149.0,0.031921387,0.11621094,-0.038146973,-36.93893,8.78626,-6.4961834000000005,2019-09-03 17:15:57,5.0
150.0,0.024719237999999998,0.11071777,-0.029296875,-32.435116,6.885496000000001,-5.778626,2019-09-03 17:15:57,5.0
151.0,0.025512695,0.113464355,-0.03479004,-30.48855,5.3129773,-7.5725193,2019-09-03 17:15:57,5.0
152.0,0.024230957,0.111816406,-0.028747559,-29.068703000000003,6.3587785000000006,-8.923664,2019-09-03 17:15:57,5.0
153.0,0.032409667999999996,0.11480713,-0.026123047000000003,-41.946564,3.7099237,-10.801527,2019-09-03 17:15:57,5.0
154.0,0.033508300000000005,0.10668945,-0.023986816,-18.793894,2.221374,-10.442748,2019-09-03 17:15:57,5.0
155.0,0.033508300000000005,0.11383057,-0.02520752,-9.480916,7.412214,-10.702291,2019-09-03 17:15:57,5.0
156.0,0.02532959,0.12457275400000001,-0.022033691,-9.305344,5.6793895,-11.305344,2019-09-03 17:15:57,5.0
157.0,0.017944336,0.1260376,-0.01977539,-18.236639999999998,8.106871,-2.1374047000000003,2019-09-03 17:15:57,5.0
158.0,0.023132324,0.12042236,-0.024475097999999997,-28.343512,-7.038167999999999,-0.6183206,2019-09-03 17:15:57,5.0
159.0,0.030151367000000002,0.11743164,-0.02166748,-29.549618,1.2671756,-1.2061069,2019-09-03 17:15:57,5.0
160.0,0.03161621,0.12695312,-0.018493652,-28.10687,-1.5267175,7.076336,2019-09-03 17:15:57,5.0
161.0,0.024536132999999998,0.14312744,-0.008178711,-85.9542,-3.946565,19.183207,2019-09-03 17:15:57,5.0
162.0,0.021911621000000003,0.12475586,-0.009765625,-112.76336,-18.267176,27.213741,2019-09-03 17:15:57,5.0
163.0,0.022888184,0.12109375,-0.0031738281,-112.56488999999999,-24.282442,24.824427,2019-09-03 17:15:57,5.0
164.0,0.028320312,0.12152099599999999,0.022521972999999997,-126.89313,-18.748089999999998,22.931297,2019-09-03 17:15:57,5.0
165.0,0.024169922000000003,0.12908936,0.032409667999999996,-184.91603,-53.0,16.320610000000002,2019-09-03 17:15:57,5.0
166.0,0.026184082,0.13366699,0.03503418,-228.49618999999998,-71.80915999999999,6.1679387000000006,2019-09-03 17:15:57,5.0
167.0,0.04675293,0.12213135,0.019470215,-250.1374,-63.076336,3.6793892,2019-09-03 17:15:57,5.0
168.0,0.03717041,0.11029053,0.035217285,-250.1374,-53.351147,-10.702291,2019-09-03 17:15:57,5.0
169.0,0.04058838,0.08532715,0.047851562,-250.1374,-54.427482999999995,-27.076335999999998,2019-09-03 17:15:57,5.0
170.0,0.04876709,0.1003418,0.06378174,-250.1374,-45.969467,-31.007633000000002,2019-09-03 17:15:57,5.0
171.0,0.0435791,0.08636474599999999,0.07891846,-250.1374,-36.778625,-30.74809,2019-09-03 17:15:57,5.0
172.0,0.042114257999999995,0.060791015999999996,0.07983398400000001,-250.1374,-19.725191,-30.06107,2019-09-03 17:15:57,5.0
173.0,0.039978027,0.026550293,0.09075928,-97.0229,-5.961832,-31.0,2019-09-03 17:15:57,5.0
174.0,0.031982422,0.036132812,0.08947754,14.793892999999999,7.1679387000000006,-33.946564,2019-09-03 17:15:57,5.0
175.0,0.03387451,0.080078125,0.11102295,20.473282,5.5343513,-28.137404999999998,2019-09-03 17:15:57,5.0
176.0,0.041259766,0.053588867000000005,0.10595703,-24.801527,16.992367,-20.961832,2019-09-03 17:15:57,5.0
177.0,0.043640137,0.047424315999999994,0.10675049,-8.633588,15.916031,-18.145039,2019-09-03 17:15:57,5.0
178.0,0.0357666,0.05694580000000001,0.10778808599999999,-12.229008,12.312977,-14.320610999999998,2019-09-03 17:15:57,5.0
179.0,0.033996582000000004,0.06036377,0.11389160000000002,-19.183207,11.206107000000001,-12.854961,2019-09-03 17:15:57,5.0
180.0,0.043823242000000005,0.04547119,0.10803223,0.35877863,6.114504,-12.061069,2019-09-03 17:15:57,5.0
181.0,0.030090332,0.06774902,0.10974121,4.3893127,4.6946564,-10.961832000000001,2019-09-03 17:15:57,5.0
182.0,0.03302002,0.06317139,0.10748291,0.36641222,4.9770994,-10.679389,2019-09-03 17:15:57,5.0
183.0,0.034851073999999996,0.06274414,0.110839844,-9.2213745,6.80916,-9.015267,2019-09-03 17:15:57,5.0
184.0,0.028625487999999998,0.05340576,0.10510254,-1.5725191,6.152672,-6.1297708,2019-09-03 17:15:58,5.0
185.0,0.030090332,0.05596924,0.10369873,-1.8702290000000001,6.3053436,-5.6488547,2019-09-03 17:15:58,5.0
186.0,0.042053223,0.061767578,0.10882568,-8.526717,7.900763499999999,-4.923664,2019-09-03 17:15:58,5.0
187.0,0.030090332,0.051635742000000005,0.11370849599999999,-4.6793895,9.251908,-3.9389312000000007,2019-09-03 17:15:58,5.0
188.0,0.038879395,0.0546875,0.11126709,1.5877863,8.946565,-3.40458,2019-09-03 17:15:58,5.0
189.0,0.037963867000000005,0.066345215,0.10961914,22.374046,8.160305000000001,2.053435,2019-09-03 17:15:58,5.0
190.0,0.036010742000000005,0.050109863,0.09875488,43.129771999999996,10.022901,4.671755999999999,2019-09-03 17:15:58,5.0
191.0,0.059265137,0.05206299,0.10192871,70.36641,14.641221,6.5038165999999995,2019-09-03 17:15:58,5.0
192.0,0.036376953,0.07434082,0.10491943,113.25954399999999,19.671754999999997,12.19084,2019-09-03 17:15:58,5.0
193.0,0.032226562,0.08312988,0.0925293,131.75572,12.351144999999999,18.709923,2019-09-03 17:15:58,5.0
194.0,0.04156494,0.07537842,0.08544922,138.63359,18.160304999999997,14.129771,2019-09-03 17:15:58,5.0
195.0,0.03552246,0.09240723,0.076660156,139.35115,20.458015,15.503817000000002,2019-09-03 17:15:58,5.0
196.0,0.035583496,0.09527588,0.07836914,131.74046,21.366413,16.396946,2019-09-03 17:15:58,5.0
197.0,0.03717041,0.08850098,0.06597900400000001,148.73282,23.954199,14.923664000000002,2019-09-03 17:15:58,5.0
198.0,0.027709961,0.09326172,0.058044434000000006,180.27481,29.442749,13.931297,2019-09-03 17:15:58,5.0
199.0,0.026794434,0.105407715,0.05419922,182.6565,33.305344,7.7328243,2019-09-03 17:15:58,5.0
200.0,0.025634766,0.11383057,0.028015137000000002,162.37403999999998,31.091602,10.954199000000001,2019-09-03 17:15:58,5.0
201.0,0.034240723,0.11804199,0.035095215,131.22137,27.038168,8.312977,2019-09-03 17:15:58,5.0
202.0,0.033691406,0.13470459,0.0357666,87.26717,24.824427,8.320611,2019-09-03 17:15:58,5.0
203.0,0.038146973,0.11987305,0.024475097999999997,50.572517,15.274809,10.030535,2019-09-03 17:15:58,5.0
204.0,0.048034667999999996,0.107543945,0.029052734,53.106869999999994,16.702289999999998,4.4961834000000005,2019-09-03 17:15:58,5.0
205.0,0.040100098,0.090026855,0.04333496,98.58015400000001,20.137404999999998,-5.0992365,2019-09-03 17:15:58,5.0
206.0,0.036254882999999995,0.11004639,0.015991211,134.03816,-2.6335877999999995,-10.992367,2019-09-03 17:15:58,5.0
207.0,0.042419434000000006,0.13134766,0.005432129,123.72519,-1.9083970000000001,-14.671756,2019-09-03 17:15:58,5.0
208.0,0.0357666,0.12371826,-0.006591797,88.19084000000001,-8.458015,-16.801527,2019-09-03 17:15:58,5.0
209.0,0.030578612999999998,0.11987305,-0.007629394499999999,72.36641,-5.7099237,-11.480916,2019-09-03 17:15:58,5.0
210.0,0.039611816,0.117370605,-0.014465332,82.87786,-4.923664,-14.40458,2019-09-03 17:15:58,5.0
211.0,0.036254882999999995,0.113464355,-0.026916503999999997,84.28244000000001,-23.885496,-10.007633,2019-09-03 17:15:58,5.0
212.0,0.03387451,0.11627197,-0.04345703,69.47328,-9.129771,-5.40458,2019-09-03 17:15:58,5.0
213.0,0.032592773,0.12060547,-0.037841797,81.83969,0.8854962,0.16793893,2019-09-03 17:15:58,5.0
214.0,0.02734375,0.117004395,-0.044067382999999995,83.07633,-7.1221375,0.57251906,2019-09-03 17:15:58,5.0
215.0,0.040893555,0.11486816400000001,-0.043701172,64.55725,-7.847328,1.1145038999999999,2019-09-03 17:15:58,5.0
216.0,0.033691406,0.11450195,-0.05078125,64.99235999999999,1.4427481000000002,0.9541985000000001,2019-09-03 17:15:58,5.0
217.0,0.036132812,0.105529785,-0.05065918,64.1145,-3.8549618999999997,-0.6488550000000001,2019-09-03 17:15:58,5.0
218.0,0.041992188,0.10314941400000001,-0.054016113,44.923664,-8.106871,-1.5038168,2019-09-03 17:15:58,5.0
219.0,0.039855957000000004,0.10046387,-0.059143065999999994,28.80916,0.78625953,-10.122137,2019-09-03 17:15:58,5.0
220.0,0.032043457000000004,0.10144043,-0.05834961,40.282444,0.8091603,-14.312976999999998,2019-09-03 17:15:59,5.0
221.0,0.026733398,0.10546875,-0.061645507999999995,43.091602,-3.3587787000000002,-18.366413,2019-09-03 17:15:59,5.0
222.0,0.03643799,0.110839844,-0.059692382999999995,19.51145,-3.8396947,-18.564885999999998,2019-09-03 17:15:59,5.0
223.0,0.028625487999999998,0.11480713,-0.068481445,-12.21374,-6.931298,-12.167939,2019-09-03 17:15:59,5.0
224.0,0.034606934,0.101745605,-0.07019043,-22.297710000000002,-6.0458016,-8.847328,2019-09-03 17:15:59,5.0
225.0,0.01928711,0.10321045,-0.07128906,-9.564885,-1.3587786,-9.885496,2019-09-03 17:15:59,5.0
226.0,0.03137207,0.13653564,-0.06701660000000001,1.0992366000000002,-7.1755724,-3.9694656999999998,2019-09-03 17:15:59,5.0
227.0,0.033569336,0.13208008,-0.09643555,-86.12214,-29.633587,15.145039,2019-09-03 17:15:59,5.0
228.0,0.0423584,0.11798096,-0.07659912,-185.58015,5.4885497,32.0229,2019-09-03 17:15:59,5.0
229.0,0.024108887000000002,0.1038208,-0.087402344,-233.54199,-13.702291,35.06107,2019-09-03 17:15:59,5.0
230.0,0.036071777,0.13824463,-0.035461426000000004,-250.1374,16.931297,34.17557,2019-09-03 17:15:59,5.0
231.0,0.0146484375,0.15203857,-0.0020141601999999997,-250.1374,6.6412214999999994,46.12214,2019-09-03 17:15:59,5.0
232.0,0.00579834,0.11669922,-0.0067749023,-250.1374,-18.068703,38.641220000000004,2019-09-03 17:15:59,5.0
233.0,0.010314941,0.06732178,0.010681152,-250.1374,-21.290077,20.007633,2019-09-03 17:15:59,5.0
234.0,0.040283203,0.078308105,0.06713867,-250.1374,-5.5648856,-2.4961832000000004,2019-09-03 17:15:59,5.0
235.0,0.033813477,0.08764648400000001,0.07055664,-250.1374,-6.2900763,-6.2977099999999995,2019-09-03 17:15:59,5.0
236.0,0.050354004,0.04937744,0.085754395,-250.1374,5.4580154,-5.091603299999999,2019-09-03 17:15:59,5.0
237.0,0.054626465,0.018432617,0.10766601599999999,-88.03053,6.2290077,-14.748092000000002,2019-09-03 17:15:59,5.0
238.0,0.041381836,0.04699707,0.10882568,5.671755999999999,-0.32061067,-16.564885999999998,2019-09-03 17:15:59,5.0
239.0,0.05505371,0.07250976599999999,0.09808349599999999,7.8015265,1.1374046,-9.755725,2019-09-03 17:15:59,5.0
240.0,0.04852295,0.07916260000000001,0.1104126,-28.61832,3.9694656999999998,-5.091603299999999,2019-09-03 17:15:59,5.0
241.0,0.047851562,0.06964111,0.10235596,-32.14504,2.923664,-0.6335878,2019-09-03 17:15:59,5.0
242.0,0.031921387,0.06378174,0.10876465,-34.541985,1.6870228999999999,-0.45801526,2019-09-03 17:15:59,5.0
243.0,0.05340576,0.05999756,0.10998535,-16.549618,-6.480916000000001,-2.1221373,2019-09-03 17:15:59,5.0
244.0,0.038513184,0.05456543,0.10681152,-26.664121999999995,-4.3816795,-1.0076336,2019-09-03 17:15:59,5.0
245.0,0.033813477,0.049194336,0.109191895,-23.564885999999998,-3.167939,-0.49618322,2019-09-03 17:15:59,5.0
246.0,0.034423828,0.05078125,0.10321045,-13.106871,0.0,-1.7328244,2019-09-03 17:15:59,5.0
247.0,0.02508545,0.054504395,0.10650635,-18.702289999999998,-0.45038167,-2.4503817999999997,2019-09-03 17:15:59,5.0
248.0,0.03692627,0.045837402,0.10925293,-24.832062,3.8931297999999996,-3.1526718,2019-09-03 17:15:59,5.0
249.0,0.038635254,0.04541015599999999,0.10858154,-6.3053436,0.9847328000000002,-5.7709923,2019-09-03 17:15:59,5.0
250.0,0.04522705,0.046325684000000006,0.10589599599999999,2.0152671000000004,4.076336,-6.3511453,2019-09-03 17:15:59,5.0
251.0,0.041015625,0.0635376,0.11206055,-5.190840000000001,3.5801528,-8.847328,2019-09-03 17:15:59,5.0
252.0,0.042663574,0.052612305,0.10980224599999999,-9.9007635,5.557252,-7.587786,2019-09-03 17:15:59,5.0
253.0,0.04437256,0.046691895,0.10723877,-9.763359,5.2671757,-8.045800999999999,2019-09-03 17:15:59,5.0
254.0,0.041625977,0.05340576,0.10675049,-0.77862597,6.6488547,-8.427481,2019-09-03 17:15:59,5.0
255.0,0.033081055,0.06280517599999999,0.10992432,-1.5343511,6.0076336999999995,-7.1450380000000004,2019-09-03 17:15:59,5.0
256.0,0.04437256,0.053894042999999996,0.10699463,-8.251908,7.4961834000000005,-5.1679387000000006,2019-09-03 17:16:00,5.0
257.0,0.045654297,0.05206299,0.10571289,-6.335878,8.625955000000001,-7.778625999999999,2019-09-03 17:16:00,5.0
258.0,0.03942871,0.049621582000000004,0.11499023400000001,-7.8549619999999996,10.030535,-6.671755999999999,2019-09-03 17:16:00,5.0
259.0,0.0435791,0.05218506,0.10864258,-8.557252,9.19084,-7.152672,2019-09-03 17:16:00,5.0
260.0,0.039367676000000004,0.05847168,0.11157226599999999,-5.7709923,8.160305000000001,-7.137404400000001,2019-09-03 17:16:00,5.0
261.0,0.043884277,0.055603027,0.10870361,-7.1450380000000004,6.3816795,-6.145038,2019-09-03 17:16:00,5.0
262.0,0.037231445,0.049133300000000005,0.10986328,-7.0534353,7.2442746,-6.7557254,2019-09-03 17:16:00,5.0
263.0,0.035217285,0.054016113,0.10845947,-2.5648854,5.0992365,-7.3893127000000005,2019-09-03 17:16:00,5.0
264.0,0.048706055,0.05206299,0.111206055,-6.80916,6.1374044,-7.1450380000000004,2019-09-03 17:16:00,5.0
265.0,0.04034424,0.047302246,0.1083374,-6.839694500000001,5.473282299999999,-5.778626,2019-09-03 17:16:00,5.0
266.0,0.04345703,0.055603027,0.10449219,-8.083969,4.10687,-3.076336,2019-09-03 17:16:00,5.0
267.0,0.035888672,0.056884765999999996,0.11102295,-12.427481,5.9694657,-1.9389313000000001,2019-09-03 17:16:00,5.0
268.0,0.035827637,0.05218506,0.11688232400000001,-8.816792999999999,4.6183205,-6.3129773,2019-09-03 17:16:00,5.0
269.0,0.027954102,0.049194336,0.10583496,-10.816792999999999,4.656488400000001,-7.816794,2019-09-03 17:16:00,5.0
270.0,0.04107666,0.049133300000000005,0.10913086,-10.374044999999999,2.9312978,-4.8320612999999994,2019-09-03 17:16:00,5.0
271.0,0.03387451,0.053894042999999996,0.11224365,-10.916031,2.091603,-4.763358599999999,2019-09-03 17:16:00,5.0
272.0,0.03277588,0.05090332,0.10968017599999999,-11.648855000000001,2.961832,-1.610687,2019-09-03 17:16:00,5.0
273.0,0.034179688,0.055664062,0.107543945,-14.137404,2.6335877999999995,0.55725193,2019-09-03 17:16:00,5.0
274.0,0.045654297,0.04901123,0.11462402,-13.351145,3.0,0.97709924,2019-09-03 17:16:00,5.0
275.0,0.040283203,0.04473877,0.10894775400000001,-9.946565,2.6335877999999995,-0.22900763,2019-09-03 17:16:00,5.0
276.0,0.0390625,0.042907715,0.10675049,-3.5038167999999996,3.4503817999999997,0.21374045,2019-09-03 17:16:00,5.0
277.0,0.04333496,0.04852295,0.10205078,-3.091603,5.183206,-1.7709924,2019-09-03 17:16:00,5.0
278.0,0.046813965,0.05621338,0.10852051,-5.4961834000000005,5.931298,-3.4503817999999997,2019-09-03 17:16:00,5.0
279.0,0.053344727,0.051513672,0.10345459,-8.564885,7.70229,-3.59542,2019-09-03 17:16:00,5.0
280.0,0.040405273,0.038085938,0.10668945,-11.167939,12.229008,-6.603053599999999,2019-09-03 17:16:00,5.0
281.0,0.04168701,0.04949951,0.11462402,-11.328244,12.625955000000001,-11.038167999999999,2019-09-03 17:16:00,5.0
282.0,0.043029785,0.04937744,0.11328125,-16.137404999999998,13.129771,-11.404580000000001,2019-09-03 17:16:00,5.0
283.0,0.03692627,0.048461914,0.11425781,-14.068703,11.229008,-9.297709,2019-09-03 17:16:00,5.0
284.0,0.03387451,0.051086426,0.109313965,-5.8015265,9.122137,-8.908397,2019-09-03 17:16:00,5.0
285.0,0.044006348,0.051513672,0.12384033,-3.6793892,12.78626,-5.0076336999999995,2019-09-03 17:16:00,5.0
286.0,0.036254882999999995,0.05609131,0.12530518,-3.221374,13.335876999999998,2.29771,2019-09-03 17:16:00,5.0
287.0,0.038391113,0.03765869,0.11694336,-17.412214000000002,13.480916,1.8244275,2019-09-03 17:16:00,5.0
288.0,0.045166015999999996,0.04296875,0.10327148400000001,-17.503817,8.0992365,5.8244276,2019-09-03 17:16:00,5.0
289.0,0.038513184,0.036621094,0.09631348,-18.694656,10.297709,0.8091603,2019-09-03 17:16:00,5.0
290.0,0.030944824,0.039001465,0.11102295,-19.946566,12.145039,-6.190840000000001,2019-09-03 17:16:00,5.0
291.0,0.03643799,0.04949951,0.1116333,-20.450382,10.114504,-7.9160304,2019-09-03 17:16:01,5.0
292.0,0.039367676000000004,0.034973145,0.11877441400000001,-17.0,8.832061,-10.076336,2019-09-03 17:16:01,5.0
293.0,0.037231445,0.044555664,0.11669922,-10.106871,5.183206,-7.10687,2019-09-03 17:16:01,5.0
294.0,0.03515625,0.03845215,0.11450195,-8.068703,5.6946564,-10.0,2019-09-03 17:16:01,5.0
295.0,0.03491211,0.04083252,0.11682129,-9.2213745,3.4198472,-6.6870227,2019-09-03 17:16:01,5.0
296.0,0.03302002,0.046325684000000006,0.111206055,-16.595419,4.8702292,-5.190840000000001,2019-09-03 17:16:01,5.0
297.0,0.029785156,0.03503418,0.11676025400000001,-7.40458,4.473282299999999,-3.3358779999999997,2019-09-03 17:16:01,5.0
298.0,0.0390625,0.04498291,0.1282959,-9.80916,6.3511453,-1.7633588,2019-09-03 17:16:01,5.0
299.0,0.043273926,0.040283203,0.105407715,-14.748092000000002,3.793893,7.3664119999999995,2019-09-03 17:16:01,5.0
300.0,0.028259277000000003,0.036071777,0.11486816400000001,-14.671756,-1.3053435,13.755725,2019-09-03 17:16:01,5.0
301.0,0.037475586,0.041320800000000005,0.105651855,-4.885496,-1.1145038999999999,8.015267,2019-09-03 17:16:01,5.0
302.0,0.035888672,0.03741455,0.11590576,-5.9923663000000005,-1.9160305,4.4503818,2019-09-03 17:16:01,5.0
303.0,0.030883789,0.031066895,0.11077881,12.931297,-1.8167938999999997,1.3435115,2019-09-03 17:16:01,5.0
304.0,0.04443359400000001,0.051208496,0.11407471,3.7099237,-0.2977099,3.2824428,2019-09-03 17:16:01,5.0
305.0,0.034179688,0.043518065999999994,0.10900879,-8.641221,3.2442749,2.4961832000000004,2019-09-03 17:16:01,5.0
306.0,0.043823242000000005,0.04541015599999999,0.11791992,-15.541985,6.10687,2.5114503,2019-09-03 17:16:01,5.0
307.0,0.03503418,0.017700195,0.11157226599999999,-18.977098,14.549619,-3.6335877999999995,2019-09-03 17:16:01,5.0
308.0,0.03277588,0.043151855,0.12768555,2.2137403,5.343511599999999,-0.41984734,2019-09-03 17:16:01,5.0
309.0,0.03338623,0.034729004,0.119140625,-18.89313,5.8015265,1.4580153,2019-09-03 17:16:01,5.0
310.0,0.0345459,0.023254395,0.11688232400000001,2.778626,2.6641220000000003,-2.3969467,2019-09-03 17:16:01,5.0
311.0,0.038269042999999996,0.03967285,0.115356445,-5.259542,1.7251908999999999,-3.870229,2019-09-03 17:16:01,5.0
312.0,0.042114257999999995,0.023620605,0.11395264,-4.89313,2.534351,-5.1603055,2019-09-03 17:16:01,5.0
313.0,0.03765869,0.038879395,0.11877441400000001,9.412213000000001,3.4274809999999998,-5.9694657,2019-09-03 17:16:01,5.0
314.0,0.033996582000000004,0.04107666,0.123535156,14.954199,3.3435113,-3.1450381000000003,2019-09-03 17:16:01,5.0
315.0,0.036193848,0.048034667999999996,0.124938965,11.320611,-2.465649,-5.3587785000000006,2019-09-03 17:16:01,5.0
316.0,0.039001465,0.04449463,0.105407715,-2.3969467,-1.3282443000000002,-4.854962,2019-09-03 17:16:01,5.0
317.0,0.039611816,0.03314209,0.103027344,4.3129773,3.534351,-6.473282299999999,2019-09-03 17:16:01,5.0
318.0,0.04547119,0.046447754,0.10510254,12.290076,7.19084,-9.274809,2019-09-03 17:16:01,5.0
319.0,0.044128417999999996,0.048461914,0.11114502,2.167939,11.656488000000001,-8.549619,2019-09-03 17:16:01,5.0
320.0,0.040222167999999996,0.05053711,0.11645508,-3.9007633000000004,8.412213000000001,-3.1908397999999996,2019-09-03 17:16:01,5.0
321.0,0.025695799999999998,0.036315917999999996,0.115722656,-10.251908,9.519084,-1.7480916000000002,2019-09-03 17:16:01,5.0
322.0,0.03845215,0.034484863,0.115234375,-0.32061067,6.709923700000001,-1.389313,2019-09-03 17:16:01,5.0
323.0,0.028320312,0.049865723,0.11602783,4.4351144,4.5343513,-2.5419848,2019-09-03 17:16:01,5.0
324.0,0.039916992000000005,0.04486084,0.11279297,-1.1221374,4.4351144,-3.4732822999999997,2019-09-03 17:16:01,5.0
325.0,0.02923584,0.043029785,0.11193848,-0.091603056,2.3740457999999998,-3.5267177000000003,2019-09-03 17:16:01,5.0
326.0,0.043151855,0.042785645,0.11541748,3.4732822999999997,1.8931297999999999,-6.0610685,2019-09-03 17:16:01,5.0
327.0,0.03894043,0.044006348,0.11016846,1.9541985,-1.3816794,-7.0076336999999995,2019-09-03 17:16:02,5.0
328.0,0.042114257999999995,0.03527832,0.11810303,5.7099237,-5.9389315,-11.946565,2019-09-03 17:16:02,5.0
329.0,0.05407715,0.03778076,0.13012695,8.839694999999999,-12.007633,-16.709923,2019-09-03 17:16:02,5.0
330.0,0.061645507999999995,0.020568848,0.1293335,-0.35114503,-11.458015,-17.57252,2019-09-03 17:16:02,5.0
331.0,0.060180664,0.018676758,0.13708496,-2.7099237,-14.824428,-23.694656,2019-09-03 17:16:02,5.0
332.0,0.05670166,0.042297363,0.14898682,2.1908397999999996,-30.412214000000002,-30.229008,2019-09-03 17:16:02,5.0
333.0,0.054992676,0.0625,0.13635254,12.030535,-47.435116,-35.55725,2019-09-03 17:16:02,5.0
334.0,0.04650879,0.047424315999999994,0.10180664,18.351145000000002,-55.16794,-37.519085,2019-09-03 17:16:02,5.0
335.0,0.07189941400000001,0.09552002,0.10113525400000001,-7.5801525,-63.106869999999994,-82.36641,2019-09-03 17:16:02,5.0
336.0,0.039489746,0.057373047,0.08068848,-184.41985,-16.229008,-49.93893,2019-09-03 17:16:02,5.0
337.0,0.032836914,0.022644043,0.08947754,-96.9771,-21.57252,-76.87786,2019-09-03 17:16:02,5.0
338.0,0.015930176,0.04168701,0.08508301,-56.48855,-21.404581,-70.53435,2019-09-03 17:16:02,5.0
339.0,0.02178955,0.03338623,0.08605957,-34.885498,-7.534351299999999,-63.809162,2019-09-03 17:16:02,5.0
340.0,0.0051879883,0.025939941,0.08557129,10.519084,-4.2519083,-60.82443000000001,2019-09-03 17:16:02,5.0
341.0,0.021850586,0.047058105,0.07989502,51.519085,-6.5343513,-53.23664,2019-09-03 17:16:02,5.0
342.0,0.02331543,0.06597900400000001,0.08288574,64.94655999999999,-3.4122138,-46.564884,2019-09-03 17:16:02,5.0
343.0,0.028686523,0.06701660000000001,0.09991455,56.251906999999996,2.534351,-38.78626,2019-09-03 17:16:02,5.0
344.0,0.04284668,0.10498047,0.10748291,57.62595400000001,-5.3206105,-28.480916999999998,2019-09-03 17:16:02,5.0
345.0,0.056396484000000004,0.101379395,0.119262695,-13.755725,12.618319999999999,-12.465649,2019-09-03 17:16:02,5.0
346.0,0.058044434000000006,0.06481933599999999,0.10913086,-24.786259,21.503817,2.2595419999999997,2019-09-03 17:16:02,5.0
347.0,0.043884277,0.047180176,0.09539795,-9.122137,18.534351,5.053435299999999,2019-09-03 17:16:02,5.0
348.0,0.046081542999999996,0.059387207000000004,0.103637695,2.3969467,16.839695000000003,0.86259544,2019-09-03 17:16:02,5.0
349.0,0.043151855,0.055908203,0.10485839999999998,8.755725,10.603053,-0.39694658,2019-09-03 17:16:02,5.0
350.0,0.039855957000000004,0.054382324,0.10986328,-6.038168,10.007633,-6.664122,2019-09-03 17:16:02,5.0
351.0,0.04107666,0.052490234000000004,0.09851074,-7.847328,13.328244,-11.076336,2019-09-03 17:16:02,5.0
352.0,0.040771484,0.061157227,0.10870361,15.946565,12.870229,-13.969465,2019-09-03 17:16:02,5.0
353.0,0.050354004,0.06347656,0.10418701,29.70229,8.267176,-16.564885999999998,2019-09-03 17:16:02,5.0
354.0,0.036743164,0.06964111,0.10211182,6.9465647,13.610686999999999,-11.106871,2019-09-03 17:16:02,5.0
355.0,0.041015625,0.08215332,0.097595215,0.53435117,12.0992365,-7.236641400000001,2019-09-03 17:16:02,5.0
356.0,0.044006348,0.06939697,0.10308838,-16.099237,12.412213000000001,-2.3740457999999998,2019-09-03 17:16:02,5.0
357.0,0.03765869,0.045959473,0.10192871,-3.1068702,9.412213000000001,-1.4580153,2019-09-03 17:16:02,5.0
358.0,0.03387451,0.061401367000000005,0.103027344,11.244275,9.458015,-3.29771,2019-09-03 17:16:02,5.0
359.0,0.033691406,0.057434082000000004,0.10504150400000001,10.282442999999999,8.7786255,-6.5343513,2019-09-03 17:16:02,5.0
360.0,0.046936035,0.07086182,0.10534668,-0.19847329,9.885496,-9.496183,2019-09-03 17:16:02,5.0
361.0,0.041320800000000005,0.06774902,0.10601807,5.40458,6.259542,-8.679389,2019-09-03 17:16:02,5.0
362.0,0.035827637,0.07232666,0.09942627,5.9770994,6.5496182,-7.2442746,2019-09-03 17:16:02,5.0
363.0,0.037353516,0.08135986,0.097595215,-9.450381,8.045800999999999,-8.633588,2019-09-03 17:16:03,5.0
364.0,0.030517577999999997,0.07293701,0.09655762,-34.312977000000004,8.2213745,-12.862596,2019-09-03 17:16:03,5.0
365.0,0.029724121000000003,0.051391599999999996,0.12792969,-34.755726,4.7557254,-19.244274,2019-09-03 17:16:03,5.0
366.0,0.030700684,0.05480957,0.10961914,27.770992,-3.9541983999999997,-11.938931,2019-09-03 17:16:03,5.0
367.0,0.03326416,0.07019043,0.08044433599999999,62.221375,-4.412214,-10.633588,2019-09-03 17:16:03,5.0
368.0,0.035888672,0.10266113,0.09985351599999999,21.076335999999998,0.83206105,-0.9389313,2019-09-03 17:16:03,5.0
369.0,0.033325195,0.07135010000000001,0.09326172,-2.389313,4.1603055,0.610687,2019-09-03 17:16:03,5.0
370.0,0.043945312,0.07708739999999999,0.09637451,11.893129,2.0610688,5.152672,2019-09-03 17:16:03,5.0
371.0,0.04711914,0.08068848,0.09753418,22.709923,4.8015265,8.847328,2019-09-03 17:16:03,5.0
372.0,0.045166015999999996,0.08129883,0.09741211,2.923664,9.358779,6.8778625,2019-09-03 17:16:03,5.0
373.0,0.042663574,0.062683105,0.099609375,-18.839695000000003,13.763359,2.7328243,2019-09-03 17:16:03,5.0
374.0,0.036315917999999996,0.059692382999999995,0.10485839999999998,15.068703,7.3053436000000005,0.70229006,2019-09-03 17:16:03,5.0
375.0,0.033203125,0.062438965,0.10455322,18.114504,5.10687,-0.129771,2019-09-03 17:16:03,5.0
376.0,0.035217285,0.061645507999999995,0.09222412,11.7786255,6.4274807,-0.35114503,2019-09-03 17:16:03,5.0
377.0,0.032226562,0.07519531,0.09985351599999999,38.190838,-2.816794,-1.0229008,2019-09-03 17:16:03,5.0
378.0,0.034729004,0.09478760000000001,0.09283447,16.519083,-2.389313,3.5877862,2019-09-03 17:16:03,5.0
379.0,0.04309082,0.06414795,0.08892822,-5.9160304,2.832061,-0.65648854,2019-09-03 17:16:03,5.0
380.0,0.0435791,0.06677246,0.07855224599999999,25.923664000000002,1.0458015,-4.816794,2019-09-03 17:16:03,5.0
381.0,0.035949707000000004,0.09112549,0.08148193,32.687022999999996,-0.38931298,-5.5343513,2019-09-03 17:16:03,5.0
382.0,0.036987305,0.10198974599999999,0.07287598,1.1526718,5.183206,-1.4122137,2019-09-03 17:16:03,5.0
383.0,0.03338623,0.08032226599999999,0.089660645,-1.7251908999999999,10.908397,-0.9847328000000002,2019-09-03 17:16:03,5.0
384.0,0.044616699999999995,0.08508301,0.08917236,0.9541985000000001,6.8549619999999996,-2.8625952999999997,2019-09-03 17:16:03,5.0
385.0,0.037231445,0.07507324,0.08752441400000001,-9.458015,8.938931,-7.137404400000001,2019-09-03 17:16:03,5.0
386.0,0.036865234,0.074157715,0.09326172,5.3511453,4.557252,-11.961832000000001,2019-09-03 17:16:03,5.0
387.0,0.043945312,0.08691406,0.08782959,-3.648855,3.351145,-14.923664000000002,2019-09-03 17:16:03,5.0
388.0,0.038085938,0.10314941400000001,0.08685303,-24.473282,9.137404,-12.992367,2019-09-03 17:16:03,5.0
389.0,0.030944824,0.09106445,0.08880615,-35.839695,10.862596,-8.793892999999999,2019-09-03 17:16:03,5.0
390.0,0.04724121,0.08807373,0.08673096,-37.778625,8.9007635,-6.1984735,2019-09-03 17:16:03,5.0
391.0,0.03668213,0.08721924,0.09442139,-47.328243,10.167939,-4.4961834000000005,2019-09-03 17:16:03,5.0
392.0,0.038757323999999996,0.06927489999999999,0.09680176,-55.48855,12.175572,-1.8396946,2019-09-03 17:16:03,5.0
393.0,0.040527344,0.07244873,0.10180664,-40.610687,13.480916,-2.0992367,2019-09-03 17:16:03,5.0
394.0,0.035705566,0.07183838,0.095825195,-38.519085,14.709923999999999,-0.13740458,2019-09-03 17:16:03,5.0
395.0,0.039367676000000004,0.07397461,0.097839355,-28.091602,10.694656,0.34351146,2019-09-03 17:16:03,5.0
396.0,0.027893066,0.070373535,0.11279297,-24.694656,11.893129,2.778626,2019-09-03 17:16:03,5.0
397.0,0.037963867000000005,0.066223145,0.10241699,-13.748092000000002,9.183207000000001,2.5954200000000003,2019-09-03 17:16:04,5.0
398.0,0.04534912,0.060302734000000004,0.10534668,8.083969,6.8015265,1.3129771000000001,2019-09-03 17:16:04,5.0
399.0,0.038391113,0.06958008,0.1015625,33.206109999999995,-0.36641222,-0.8015267,2019-09-03 17:16:04,5.0
400.0,0.03692627,0.07769775400000001,0.099609375,11.206107000000001,-2.5038167999999996,1.3282443000000002,2019-09-03 17:16:04,5.0
401.0,0.036804199999999995,0.072387695,0.10046387,-11.839694999999999,6.442748,1.2366412,2019-09-03 17:16:04,5.0
402.0,0.037231445,0.06201172,0.09893799,6.839694500000001,3.1374047000000003,-3.091603,2019-09-03 17:16:04,5.0
403.0,0.03363037,0.07208252,0.09875488,19.251910000000002,1.2290076,-2.572519,2019-09-03 17:16:04,5.0
404.0,0.029418945,0.07745361,0.08941650400000001,15.305344,-1.5572518999999998,-2.519084,2019-09-03 17:16:04,5.0
405.0,0.031799316,0.07543945,0.09344482400000001,-1.2671756,4.961832,-5.7022900000000005,2019-09-03 17:16:04,5.0
406.0,0.042114257999999995,0.08026123,0.09509277,15.938931,-1.0763359,-6.152672,2019-09-03 17:16:04,5.0
407.0,0.045288086,0.09924316400000001,0.09197998,3.5190839999999994,-2.3206108,-1.0,2019-09-03 17:16:04,5.0
408.0,0.04034424,0.05859375,0.079589844,-44.496179999999995,17.603054,0.28244275,2019-09-03 17:16:04,5.0
409.0,0.036499023,0.049194336,0.08239746,18.335878,8.328244,-2.1526718,2019-09-03 17:16:04,5.0
410.0,0.042297363,0.08892822,0.09533691400000001,25.679389999999998,6.038168,-1.3129771000000001,2019-09-03 17:16:04,5.0
411.0,0.030029297000000003,0.09283447,0.09112549,-38.0,18.412214000000002,5.6106873,2019-09-03 17:16:04,5.0
412.0,0.033447266,0.059692382999999995,0.0949707,-34.15267,15.893129,6.80916,2019-09-03 17:16:04,5.0
413.0,0.038208007999999995,0.066589355,0.10144043,-25.290077,7.206106699999999,3.8396947,2019-09-03 17:16:04,5.0
414.0,0.034606934,0.052124023,0.10888672,-17.358778,5.5419846,-1.4122137,2019-09-03 17:16:04,5.0
415.0,0.032714844,0.054748535,0.09967041,1.1679389999999998,4.480916000000001,-7.137404400000001,2019-09-03 17:16:04,5.0
416.0,0.039245605,0.07409668,0.09667969,13.671756,3.351145,-7.030534299999999,2019-09-03 17:16:04,5.0
417.0,0.03704834,0.08306885,0.09594726599999999,0.5496183000000001,4.1679387000000006,-6.1603055,2019-09-03 17:16:04,5.0
418.0,0.030334472999999997,0.07556152,0.09545898400000001,-5.1755724,6.625953999999999,-6.0610685,2019-09-03 17:16:04,5.0
419.0,0.0435791,0.07208252,0.09472656,-7.8244276,7.6106872999999995,-4.7480917,2019-09-03 17:16:04,5.0
420.0,0.046447754,0.07879639,0.091918945,-11.610686999999999,9.152672,-3.3053436,2019-09-03 17:16:04,5.0
421.0,0.04107666,0.07208252,0.10437012,-20.801527,10.885496,-4.809159999999999,2019-09-03 17:16:04,5.0
422.0,0.034606934,0.06750488,0.10028076,-13.557251999999998,10.145039,-3.4809160000000006,2019-09-03 17:16:04,5.0
423.0,0.033813477,0.06890869,0.10058594,1.8778626,5.343511599999999,-2.946565,2019-09-03 17:16:04,5.0
424.0,0.038085938,0.06915283,0.09539795,0.5496183000000001,4.2290077,-2.6793892,2019-09-03 17:16:04,5.0
425.0,0.036743164,0.072753906,0.10296631,3.3282442000000003,2.8625952999999997,-3.6641220000000003,2019-09-03 17:16:04,5.0
426.0,0.02545166,0.07104492,0.09552002,4.0076336999999995,5.1297708,-4.656488400000001,2019-09-03 17:16:04,5.0
427.0,0.046142578,0.074279785,0.09692383,-8.709924,7.908396700000001,-3.5038167999999996,2019-09-03 17:16:04,5.0
428.0,0.031555176000000004,0.07891846,0.09124756,-8.206107000000001,7.10687,-3.0458016,2019-09-03 17:16:04,5.0
429.0,0.028076172000000003,0.087768555,0.09478760000000001,1.2442749,4.343511599999999,-4.7328243,2019-09-03 17:16:04,5.0
430.0,0.037109375,0.07897949,0.10235596,2.2366412,3.3740457999999998,-4.778626,2019-09-03 17:16:04,5.0
431.0,0.03338623,0.08264160000000001,0.09234619,-3.9770992,4.4198474999999995,-4.3129773,2019-09-03 17:16:04,5.0
432.0,0.04473877,0.07733154,0.09515381,-13.801526999999998,5.7099237,-2.687023,2019-09-03 17:16:04,5.0
433.0,0.034423828,0.074035645,0.09637451,-19.10687,9.061069,-3.4427480000000004,2019-09-03 17:16:05,5.0
434.0,0.031555176000000004,0.06896973,0.09667969,-17.137404999999998,7.740458,-1.4122137,2019-09-03 17:16:05,5.0
435.0,0.038757323999999996,0.06103515599999999,0.10058594,-31.832062,7.4503818,-0.77862597,2019-09-03 17:16:05,5.0
436.0,0.039611816,0.059387207000000004,0.099609375,-25.923664000000002,7.6870227,-4.5648856,2019-09-03 17:16:05,5.0
437.0,0.033935547,0.06817627,0.09985351599999999,-11.549619,5.885496,-3.4809160000000006,2019-09-03 17:16:05,5.0
438.0,0.034362792999999996,0.07867432,0.10180664,-6.1755724,5.656488400000001,-5.7328243,2019-09-03 17:16:05,5.0
439.0,0.0390625,0.072753906,0.10241699,-15.19084,5.908396700000001,-3.9541983999999997,2019-09-03 17:16:05,5.0
440.0,0.038146973,0.07006836,0.10534668,-14.587786999999999,4.4961834000000005,-3.038168,2019-09-03 17:16:05,5.0
441.0,0.034484863,0.072265625,0.09667969,-15.412213000000001,5.2748094000000005,-2.3511450000000003,2019-09-03 17:16:05,5.0
442.0,0.034179688,0.07202148400000001,0.107543945,-13.160305,5.038168,-1.091603,2019-09-03 17:16:05,5.0
443.0,0.039733887,0.061584473,0.10192871,-11.015267,7.259542,-1.0152671,2019-09-03 17:16:05,5.0
444.0,0.028686523,0.07391357400000001,0.10687256,2.4045799999999997,0.70229006,0.8854962,2019-09-03 17:16:05,5.0
445.0,0.03186035,0.08898926,0.10430908,-12.335877,-3.091603,8.229008,2019-09-03 17:16:05,5.0
446.0,0.030090332,0.07519531,0.10797119,-33.335876,-0.60305345,16.007633,2019-09-03 17:16:05,5.0
447.0,0.02734375,0.06958008,0.09869385,-21.519083,-8.9007635,21.10687,2019-09-03 17:16:05,5.0
448.0,0.03717041,0.07128906,0.10241699,-31.007633000000002,-7.70229,21.709923,2019-09-03 17:16:05,5.0
449.0,0.042175292999999996,0.05230713,0.10223389,-27.61832,-4.931298,14.022901000000001,2019-09-03 17:16:05,5.0
450.0,0.04675293,0.047729492000000005,0.09777832,-21.603054,-0.33587787,7.671755999999999,2019-09-03 17:16:05,5.0
451.0,0.057250977,0.03656006,0.09674072,-18.045801,5.236641400000001,4.1603055,2019-09-03 17:16:05,5.0
452.0,0.041015625,0.043762207000000004,0.10723877,-12.893129,7.030534299999999,-5.0076336999999995,2019-09-03 17:16:05,5.0
453.0,0.04626465,0.04864502,0.11187744,-9.0,11.78626,-10.320611,2019-09-03 17:16:05,5.0
454.0,0.038879395,0.04425049,0.10205078,-5.4351144,10.297709,-13.893129,2019-09-03 17:16:05,5.0
455.0,0.047790527,0.052612305,0.10534668,9.816792999999999,9.076336,-15.122137,2019-09-03 17:16:05,5.0
456.0,0.03503418,0.06005859400000001,0.10046387,18.664122,5.5114503,-13.580152499999999,2019-09-03 17:16:05,5.0
457.0,0.03955078,0.07379150400000001,0.10296631,10.022901,6.114504,-11.236641,2019-09-03 17:16:05,5.0
458.0,0.036132812,0.06420898400000001,0.10229492,-0.70229006,3.961832,-5.221374,2019-09-03 17:16:05,5.0
459.0,0.03643799,0.06732178,0.10003662,-1.2748091000000001,3.2290077,-3.1984732000000005,2019-09-03 17:16:05,5.0
460.0,0.03186035,0.0715332,0.10467529,-3.0610687999999997,0.90839696,-1.2824427,2019-09-03 17:16:05,5.0
461.0,0.042907715,0.06304932,0.09564209,-7.816794,4.328244000000001,-0.9160305000000001,2019-09-03 17:16:05,5.0
462.0,0.043151855,0.05279541,0.10101318,-6.603053599999999,7.5038165999999995,-0.8396947,2019-09-03 17:16:05,5.0
463.0,0.03692627,0.060668945,0.09851074,-1.519084,8.129771,-2.5267177000000003,2019-09-03 17:16:05,5.0
464.0,0.04345703,0.06005859400000001,0.09838867,-7.152672,8.763359,-4.1679387000000006,2019-09-03 17:16:05,5.0
465.0,0.04443359400000001,0.059814453,0.10321045,-2.3053436,7.839694500000001,-6.1374044,2019-09-03 17:16:05,5.0
466.0,0.03729248,0.062561035,0.10455322,-0.49618322,4.2061067,-4.885496,2019-09-03 17:16:05,5.0
467.0,0.037597656,0.076171875,0.09552002,-5.4274807,2.465649,-2.6793892,2019-09-03 17:16:05,5.0
468.0,0.03503418,0.06951904,0.10192871,-23.793894,-0.40458015,1.1068702,2019-09-03 17:16:05,5.0
469.0,0.028625487999999998,0.08551025400000001,0.1071167,-39.793890000000005,-1.9083970000000001,16.595419,2019-09-03 17:16:06,5.0
470.0,0.033081055,0.078125,0.11126709,-44.732826,-1.3816794,31.366413,2019-09-03 17:16:06,5.0
471.0,0.034118652,0.06817627,0.10766601599999999,-25.770992,-5.3206105,49.74046,2019-09-03 17:16:06,5.0
472.0,0.037109375,0.06512451,0.08935547,-6.816794,1.4198473999999999,60.0229,2019-09-03 17:16:06,5.0
473.0,0.033203125,0.061279297,0.09362793,22.770992,9.526717,70.36641,2019-09-03 17:16:06,5.0
474.0,0.034729004,0.061462402,0.08544922,27.816793,13.954199,74.0687,2019-09-03 17:16:06,5.0
475.0,0.055541992000000005,0.07006836,0.09118652,11.351144999999999,32.572517,80.84733,2019-09-03 17:16:06,5.0
476.0,0.040893555,0.047607422,0.10479736,-7.778625999999999,40.755726,77.099236,2019-09-03 17:16:06,5.0
477.0,0.051452637,0.027709961,0.09802246,8.465649,44.381679999999996,66.33588,2019-09-03 17:16:06,5.0
478.0,0.060180664,0.03741455,0.093566895,21.992367,47.312977000000004,62.748093000000004,2019-09-03 17:16:06,5.0
479.0,0.059448242000000005,0.050964355,0.12182617,-12.893129,48.83206,56.38168,2019-09-03 17:16:06,5.0
480.0,0.05303955,0.030639648,0.11767578,-43.648853,49.427483,50.282444,2019-09-03 17:16:06,5.0
481.0,0.04876709,0.010681152,0.11541748,-27.87023,44.282444,40.931297,2019-09-03 17:16:06,5.0
482.0,0.04486084,0.024719237999999998,0.11828613,-3.6793892,34.839695,34.114502,2019-09-03 17:16:06,5.0
483.0,0.053588867000000005,0.02722168,0.12048339999999998,-24.793894,30.671754999999997,25.419847,2019-09-03 17:16:06,5.0
484.0,0.04144287,0.016845703,0.12799072,-24.183207,22.183207,18.137404999999998,2019-09-03 17:16:06,5.0
485.0,0.056640625,0.021728516,0.12567139,-25.374046,16.0,11.21374,2019-09-03 17:16:06,5.0
486.0,0.045654297,0.011169433999999999,0.12469482400000001,-16.908398000000002,8.167939,0.7099236999999999,2019-09-03 17:16:06,5.0
487.0,0.04498291,0.02154541,0.11981201,-0.3740458,3.7175572,-7.1755724,2019-09-03 17:16:06,5.0
488.0,0.038269042999999996,0.03149414,0.12078857400000001,3.0,-0.129771,-12.633588,2019-09-03 17:16:06,5.0
489.0,0.038269042999999996,0.028869628999999997,0.11883545,-11.274809,-1.0839695,-12.7404585,2019-09-03 17:16:06,5.0
490.0,0.045898438,0.033203125,0.11871338,1.8549619,-1.351145,-14.38168,2019-09-03 17:16:06,5.0
491.0,0.041992188,0.041381836,0.11499023400000001,5.9389315,1.2748091000000001,-13.557251999999998,2019-09-03 17:16:06,5.0
492.0,0.039978027,0.04144287,0.10803223,5.152672,4.7480917,-11.717557000000001,2019-09-03 17:16:06,5.0
493.0,0.043395996,0.037902832000000004,0.11462402,2.7404580000000003,5.961832,-8.389313000000001,2019-09-03 17:16:06,5.0
494.0,0.061828613,0.040527344,0.10882568,7.030534299999999,4.053435299999999,-8.458015,2019-09-03 17:16:06,5.0
495.0,0.033508300000000005,0.039855957000000004,0.11016846,-4.10687,2.7404580000000003,-4.2671757,2019-09-03 17:16:06,5.0
496.0,0.039916992000000005,0.036743164,0.10699463,-3.3740457999999998,3.2137403,-5.0992365,2019-09-03 17:16:06,5.0
497.0,0.04248047,0.04058838,0.10296631,-2.2748091,5.961832,-4.89313,2019-09-03 17:16:06,5.0
498.0,0.047912598,0.04095459,0.11102295,-4.0,9.664123,-4.412214,2019-09-03 17:16:06,5.0
499.0,0.041992188,0.034362792999999996,0.11486816400000001,-7.4198475,11.374044999999999,-0.97709924,2019-09-03 17:16:06,5.0
500.0,0.046569824,0.029968262000000002,0.10675049,-13.335876999999998,11.450381,-0.2519084,2019-09-03 17:16:06,5.0
501.0,0.046020507999999995,0.027648926,0.11840819999999999,-11.167939,13.389313000000001,-0.9465648999999999,2019-09-03 17:16:06,5.0
502.0,0.04058838,0.038879395,0.11199951,-6.7251906,10.847328,-1.4351145,2019-09-03 17:16:06,5.0
503.0,0.04046631,0.029907227,0.11883545,-10.473283,13.549619,-2.0992367,2019-09-03 17:16:06,5.0
504.0,0.04547119,0.035217285,0.109375,1.9770991999999998,12.007633,-6.4961834000000005,2019-09-03 17:16:06,5.0
505.0,0.046875,0.03729248,0.117370605,-6.80916,7.5801525,-4.038168,2019-09-03 17:16:07,5.0
506.0,0.040893555,0.03942871,0.11486816400000001,-8.198473,6.3053436,-5.7938933,2019-09-03 17:16:07,5.0
507.0,0.036804199999999995,0.030944824,0.12609863,2.2366412,3.2519082999999998,-3.6564887,2019-09-03 17:16:07,5.0
508.0,0.03765869,0.036743164,0.12145996,-3.8167940000000002,-0.099236645,-4.9541984,2019-09-03 17:16:07,5.0
509.0,0.04058838,0.032287598,0.109558105,-7.664122,-2.0152671000000004,-2.7709923,2019-09-03 17:16:07,5.0
510.0,0.04736328,0.03466797,0.10717773400000001,4.343511599999999,-4.4351144,-0.73282444,2019-09-03 17:16:07,5.0
511.0,0.049072265999999996,0.037597656,0.1194458,-1.7938931,-0.16030534,-2.389313,2019-09-03 17:16:07,5.0
512.0,0.052001953,0.031555176000000004,0.10675049,-10.7786255,4.1755724,-3.3282442000000003,2019-09-03 17:16:07,5.0
513.0,0.042785645,0.032104492000000005,0.11383057,-8.709924,8.496183,-5.40458,2019-09-03 17:16:07,5.0
514.0,0.045654297,0.03491211,0.109375,1.648855,7.183206,-3.59542,2019-09-03 17:16:07,5.0
515.0,0.031188965,0.03942871,0.11437988,-2.312977,8.801527,-5.89313,2019-09-03 17:16:07,5.0
516.0,0.04833984400000001,0.03729248,0.11315918,-0.3740458,8.083969,-3.8625953,2019-09-03 17:16:07,5.0
517.0,0.051879882999999995,0.037841797,0.11834717,-1.091603,8.946565,-2.6412212999999998,2019-09-03 17:16:07,5.0
518.0,0.047790527,0.034484863,0.11016846,-8.167939,10.2213745,-1.7862595000000001,2019-09-03 17:16:07,5.0
519.0,0.04815674,0.04156494,0.11608887,-4.4656487,7.931298,-2.2442749,2019-09-03 17:16:07,5.0
520.0,0.046325684000000006,0.045959473,0.11352539,-2.793893,8.312977,-2.9007633,2019-09-03 17:16:07,5.0
521.0,0.043273926,0.03527832,0.11047363,-8.580152499999999,8.793892999999999,-1.091603,2019-09-03 17:16:07,5.0
522.0,0.039916992000000005,0.04058838,0.119018555,-6.8320612999999994,9.19084,-1.4274809,2019-09-03 17:16:07,5.0
523.0,0.048706055,0.032470703,0.11676025400000001,-4.89313,7.29771,-2.6946564,2019-09-03 17:16:07,5.0
524.0,0.044799805,0.040100098,0.117248535,-3.053435,6.328244000000001,-1.8702290000000001,2019-09-03 17:16:07,5.0
525.0,0.044616699999999995,0.038146973,0.10723877,-7.541984599999999,7.740458,-3.9312977999999994,2019-09-03 17:16:07,5.0
526.0,0.03778076,0.032165527,0.10858154,-5.7251905999999995,6.480916000000001,-3.9923663,2019-09-03 17:16:07,5.0
527.0,0.039123535,0.039245605,0.115356445,-6.885496000000001,6.3206105,-4.9389315,2019-09-03 17:16:07,5.0
528.0,0.044067382999999995,0.04119873,0.11187744,-6.6946563999999995,6.4580154,-5.2290077,2019-09-03 17:16:07,5.0
529.0,0.04107666,0.040527344,0.11444092,-3.3893129999999996,5.396946400000001,-4.5419846,2019-09-03 17:16:07,5.0
530.0,0.04510498,0.031921387,0.11431885,-4.091603299999999,4.8778625,-4.473282299999999,2019-09-03 17:16:07,5.0
531.0,0.05712890599999999,0.0423584,0.11651611,-1.4732825,4.2748094000000005,-4.9007635,2019-09-03 17:16:07,5.0
532.0,0.028076172000000003,0.04095459,0.11395264,-5.0610685,4.076336,-2.2671757,2019-09-03 17:16:07,5.0
533.0,0.042907715,0.04144287,0.11401367,-7.740458,6.7557254,-1.6793894,2019-09-03 17:16:07,5.0
534.0,0.04437256,0.036071777,0.11364746,-5.068702,5.3206105,-1.038168,2019-09-03 17:16:07,5.0
535.0,0.04272461,0.03869629,0.12377930000000001,2.2366412,5.7862597000000004,-1.6946564999999998,2019-09-03 17:16:07,5.0
536.0,0.03515625,0.027832031,0.10522461,1.8396946,2.0992367,-2.9694657,2019-09-03 17:16:07,5.0
537.0,0.028198242000000002,0.028869628999999997,0.11657715,11.175572,-2.8244274,-4.1984735,2019-09-03 17:16:07,5.0
538.0,0.051513672,0.036132812,0.11730957,19.694656,-5.8320612999999994,-8.381680000000001,2019-09-03 17:16:07,5.0
539.0,0.040527344,0.04486084,0.11035156,5.8778625,-9.595419999999999,-8.877863,2019-09-03 17:16:07,5.0
540.0,0.044006348,0.03869629,0.105407715,-2.832061,-9.511451,-10.625955000000001,2019-09-03 17:16:08,5.0
541.0,0.03552246,0.036132812,0.10559082,-4.091603299999999,-8.106871,-8.175572,2019-09-03 17:16:08,5.0
542.0,0.05987549,0.04425049,0.10809326,-3.167939,-3.167939,-8.083969,2019-09-03 17:16:08,5.0
543.0,0.03942871,0.038391113,0.11206055,-0.96183205,1.1603054,-6.5648856,2019-09-03 17:16:08,5.0
544.0,0.04248047,0.046447754,0.10888672,18.931297,1.2442749,-2.687023,2019-09-03 17:16:08,5.0
545.0,0.041992188,0.051940917999999996,0.11828613,10.183207000000001,11.198473,-5.2900763,2019-09-03 17:16:08,5.0
546.0,0.054260254,0.053588867000000005,0.0993042,-2.7557251,1.1374046,-0.7480916,2019-09-03 17:16:08,5.0
547.0,0.034423828,0.042236328,0.10626221,-5.396946400000001,5.6793895,-1.4961832,2019-09-03 17:16:08,5.0
548.0,0.04827881,0.05328369,0.10675049,-2.8091602000000004,6.7251906,0.32824427,2019-09-03 17:16:08,5.0
549.0,0.05041504,0.042053223,0.10699463,-15.045801,6.625953999999999,0.55725193,2019-09-03 17:16:08,5.0
550.0,0.045715332000000004,0.044189453,0.11022949,-16.717558,9.664123,1.4656489,2019-09-03 17:16:08,5.0
551.0,0.049438477,0.04272461,0.10760498,-10.549619,12.854961,0.16030534,2019-09-03 17:16:08,5.0
552.0,0.046203613,0.044128417999999996,0.10784912,-4.5343513,13.541985,3.6870230000000004,2019-09-03 17:16:08,5.0
553.0,0.052612305,0.044677734000000004,0.10913086,-12.587786999999999,16.068703,1.8931297999999999,2019-09-03 17:16:08,5.0
554.0,0.055603027,0.031188965,0.11846924,-9.435115,14.641221,2.0839694,2019-09-03 17:16:08,5.0
555.0,0.050964355,0.03741455,0.11468506,-0.16030534,12.145039,-0.8167939000000001,2019-09-03 17:16:08,5.0
556.0,0.04541015599999999,0.03375244,0.1161499,0.9847328000000002,5.4351144,-2.9541984,2019-09-03 17:16:08,5.0
557.0,0.033935547,0.03552246,0.115234375,4.0076336999999995,0.5038168,-4.2900763,2019-09-03 17:16:08,5.0
558.0,0.04827881,0.04510498,0.10906982400000001,11.488549,-1.5572518999999998,-7.862595599999999,2019-09-03 17:16:08,5.0
559.0,0.040283203,0.04638672,0.10870361,2.923664,-4.374046,-4.335878,2019-09-03 17:16:08,5.0
560.0,0.049133300000000005,0.050842285,0.10772705,3.5725190000000002,1.8778626,-7.0076336999999995,2019-09-03 17:16:08,5.0
561.0,0.052734375,0.04498291,0.10186767599999999,-4.091603299999999,3.793893,-4.343511599999999,2019-09-03 17:16:08,5.0
562.0,0.034729004,0.046691895,0.115112305,-22.442749,8.656488000000001,-3.076336,2019-09-03 17:16:08,5.0
563.0,0.048095703,0.038269042999999996,0.11016846,-12.274809,10.7786255,-2.2671757,2019-09-03 17:16:08,5.0
564.0,0.03967285,0.045043945,0.11621094,-0.015267176,15.206107000000001,-2.870229,2019-09-03 17:16:08,5.0
565.0,0.054138184000000006,0.042907715,0.11584473,-2.2442749,13.816792999999999,0.8244275,2019-09-03 17:16:08,5.0
566.0,0.04541015599999999,0.036621094,0.12054443,7.9541984,17.259542,-6.7709923,2019-09-03 17:16:08,5.0
567.0,0.04626465,0.051696777,0.114746094,3.5725190000000002,-0.8091603,1.6717557,2019-09-03 17:16:08,5.0
568.0,0.04425049,0.04547119,0.10443115,-10.122137,5.259542,-2.2366412,2019-09-03 17:16:08,5.0
569.0,0.045288086,0.043151855,0.11157226599999999,-12.282442999999999,1.1374046,-0.53435117,2019-09-03 17:16:08,5.0
570.0,0.04095459,0.036132812,0.10546875,-15.045801,3.4961832000000004,-3.5038167999999996,2019-09-03 17:16:08,5.0
571.0,0.04815674,0.036865234,0.107543945,-8.274809,7.068702,-6.7709923,2019-09-03 17:16:08,5.0
572.0,0.04888916,0.044799805,0.10577392599999999,-8.427481,13.038167999999999,-4.633588,2019-09-03 17:16:08,5.0
573.0,0.04156494,0.045043945,0.11291504,-23.251910000000002,14.580152499999999,-1.5877863,2019-09-03 17:16:08,5.0
574.0,0.05090332,0.037841797,0.11285400400000001,-13.885496,12.496183,-0.83206105,2019-09-03 17:16:08,5.0
575.0,0.04333496,0.039978027,0.11315918,-2.3969467,10.061069,-0.6335878,2019-09-03 17:16:09,5.0
576.0,0.048950195,0.04833984400000001,0.11358642599999999,-4.5801525000000005,9.587786999999999,-0.6488550000000001,2019-09-03 17:16:09,5.0
577.0,0.038391113,0.04156494,0.1116333,-2.6717557999999997,9.19084,-2.0839694,2019-09-03 17:16:09,5.0
578.0,0.03387451,0.042236328,0.11950683599999999,-14.503817000000002,11.236641,-3.40458,2019-09-03 17:16:09,5.0
579.0,0.050109863,0.044189453,0.117004395,-10.282442999999999,4.2748094000000005,-3.5267177000000003,2019-09-03 17:16:09,5.0
580.0,0.04675293,0.04437256,0.11273193,-0.030534351,6.7251906,-2.4580152,2019-09-03 17:16:09,5.0
581.0,0.036376953,0.045532227,0.11486816400000001,-8.610686999999999,9.145039,-3.4732822999999997,2019-09-03 17:16:09,5.0
582.0,0.038757323999999996,0.036865234,0.11352539,-11.473283,8.404580000000001,-2.183206,2019-09-03 17:16:09,5.0
583.0,0.04168701,0.04333496,0.11767578,-0.36641222,7.7557254,-1.389313,2019-09-03 17:16:09,5.0
584.0,0.048034667999999996,0.041748047,0.12152099599999999,2.793893,2.9923662999999996,-2.5114503,2019-09-03 17:16:09,5.0
585.0,0.042297363,0.041748047,0.10638428,1.480916,1.5877863,-5.091603299999999,2019-09-03 17:16:09,5.0
586.0,0.041992188,0.040649414,0.11761474599999999,-0.030534351,2.1374047000000003,-6.5648856,2019-09-03 17:16:09,5.0
587.0,0.043823242000000005,0.04168701,0.10577392599999999,-5.0458016,5.335878,-8.725191,2019-09-03 17:16:09,5.0
588.0,0.047546387,0.04736328,0.11499023400000001,-5.6946564,5.519083999999999,-6.8778625,2019-09-03 17:16:09,5.0
589.0,0.04650879,0.03942871,0.11248779,-9.083969,5.053435299999999,-2.1145039,2019-09-03 17:16:09,5.0
590.0,0.040283203,0.03857422,0.11358642599999999,-2.7709923,2.167939,-4.6488547,2019-09-03 17:16:09,5.0
591.0,0.044921875,0.043701172,0.11627197,-8.7786255,2.1450381000000003,-7.534351299999999,2019-09-03 17:16:09,5.0
592.0,0.038391113,0.046936035,0.11608887,-4.931298,3.351145,-6.89313,2019-09-03 17:16:09,5.0
593.0,0.049133300000000005,0.04272461,0.11633301,-10.152672,3.7175572,-5.1984735,2019-09-03 17:16:09,5.0
594.0,0.043029785,0.04626465,0.11090088,-14.763359,6.3206105,-5.1297708,2019-09-03 17:16:09,5.0
595.0,0.03729248,0.047058105,0.11114502,-2.465649,6.59542,-2.0610688,2019-09-03 17:16:09,5.0
596.0,0.04156494,0.041870117000000005,0.12133789,-4.59542,8.496183,0.23664123,2019-09-03 17:16:09,5.0
597.0,0.04852295,0.043029785,0.10290527,0.8244275,8.2595415,-3.5114503,2019-09-03 17:16:09,5.0
598.0,0.03564453,0.034118652,0.14593506,-23.030535,16.648854999999998,-11.480916,2019-09-03 17:16:09,5.0
599.0,0.052856445,0.03491211,0.11602783,-5.038168,-4.633588,0.9541985000000001,2019-09-03 17:16:09,5.0
600.0,0.040283203,0.037109375,0.11004639,-7.8778625,3.946565,2.0687022,2019-09-03 17:16:09,5.0
601.0,0.03930664,0.041259766,0.11273193,6.0458016,-2.1145039,-0.22137405,2019-09-03 17:16:09,5.0
602.0,0.050964355,0.047973632999999995,0.10900879,-9.374044999999999,3.9541983999999997,0.90839696,2019-09-03 17:16:09,5.0
603.0,0.049621582000000004,0.04046631,0.11517334,-8.648855000000001,3.9923663,1.4503816,2019-09-03 17:16:09,5.0
604.0,0.047424315999999994,0.038146973,0.10119629,6.0229006,3.8625953,-1.5496184,2019-09-03 17:16:09,5.0
605.0,0.045715332000000004,0.042663574,0.11657715,4.076336,10.633588,-4.0839696000000005,2019-09-03 17:16:09,5.0
606.0,0.044006348,0.046325684000000006,0.12615967,-6.709923700000001,4.5419846,-2.6641220000000003,2019-09-03 17:16:09,5.0
607.0,0.034118652,0.03845215,0.10040283,-15.198473000000002,5.885496,-3.7633588,2019-09-03 17:16:09,5.0
608.0,0.051757812,0.039489746,0.11810303,-2.1374047000000003,4.587786,-0.3053435,2019-09-03 17:16:09,5.0
609.0,0.04864502,0.04626465,0.11358642599999999,1.1221374,6.0992365,-1.2671756,2019-09-03 17:16:09,5.0
610.0,0.04046631,0.055480957000000004,0.10766601599999999,-11.748092,6.076336,1.1526718,2019-09-03 17:16:09,5.0
611.0,0.04260254,0.0435791,0.10760498,-20.633587,5.7862597000000004,0.46564886,2019-09-03 17:16:10,5.0
612.0,0.050048828,0.036071777,0.11004639,-13.473282999999999,6.6793895,0.045801528,2019-09-03 17:16:10,5.0
613.0,0.043640137,0.04260254,0.117126465,-6.625953999999999,3.4580152,-2.206107,2019-09-03 17:16:10,5.0
614.0,0.042236328,0.03881836,0.10968017599999999,-12.419847500000001,4.4198474999999995,-1.9160305,2019-09-03 17:16:10,5.0
615.0,0.042785645,0.040649414,0.11328125,-13.534351000000001,4.6488547,-2.6488549999999997,2019-09-03 17:16:10,5.0
616.0,0.05731201,0.03930664,0.113098145,-10.832061,6.053435299999999,-2.8625952999999997,2019-09-03 17:16:10,5.0
617.0,0.04522705,0.04144287,0.11352539,-3.1603053,6.068702,-4.236641400000001,2019-09-03 17:16:10,5.0
618.0,0.047180176,0.032226562,0.11676025400000001,4.4656487,6.183206,-4.5496182,2019-09-03 17:16:10,5.0
619.0,0.040771484,0.03173828,0.10687256,-8.839694999999999,15.801526999999998,-11.862596,2019-09-03 17:16:10,5.0
620.0,0.04925537,0.026245117000000002,0.10839844,3.908397,0.34351146,-0.43511450000000007,2019-09-03 17:16:10,5.0
621.0,0.040283203,0.058410645,0.107543945,1.1832061000000003,3.4503817999999997,-1.1450381,2019-09-03 17:16:10,5.0
622.0,0.043029785,0.04547119,0.11126709,-10.496183,6.6183205,0.06870229,2019-09-03 17:16:10,5.0
623.0,0.051696777,0.03704834,0.10668945,-10.282442999999999,1.4961832,-0.06870229,2019-09-03 17:16:10,5.0
624.0,0.05267334,0.048828125,0.103393555,-7.816794,5.2519083,-3.5267177000000003,2019-09-03 17:16:10,5.0
625.0,0.04833984400000001,0.04248047,0.11529541,-13.320610999999998,8.030535,-4.343511599999999,2019-09-03 17:16:10,5.0
626.0,0.03845215,0.035827637,0.11547851599999999,-7.6793895,10.312977,-6.2137402999999996,2019-09-03 17:16:10,5.0
627.0,0.040893555,0.044616699999999995,0.119262695,1.4351145,7.7862597000000004,-5.9770994,2019-09-03 17:16:10,5.0
628.0,0.04534912,0.028747559,0.11071777,-9.977099,16.366413,-13.015267,2019-09-03 17:16:10,5.0
629.0,0.032409667999999996,0.0423584,0.12756348,-1.9770991999999998,3.2366412,-1.961832,2019-09-03 17:16:10,5.0
630.0,0.055603027,0.042785645,0.11157226599999999,-11.847328,-0.19083970000000003,-5.190840000000001,2019-09-03 17:16:10,5.0
631.0,0.037963867000000005,0.03265381,0.1116333,3.8931297999999996,0.519084,-3.038168,2019-09-03 17:16:10,5.0
632.0,0.043884277,0.049926757999999995,0.113220215,0.7099236999999999,1.038168,-4.9389315,2019-09-03 17:16:10,5.0
633.0,0.04547119,0.050231934000000006,0.10974121,-5.442748,2.6946564,-0.7557252,2019-09-03 17:16:10,5.0
634.0,0.04559326,0.041503906,0.11151123,-9.748092,8.824428,-3.8396947,2019-09-03 17:16:10,5.0
635.0,0.04071045,0.040100098,0.10803223,-6.6946563999999995,9.2213745,-1.3969465,2019-09-03 17:16:10,5.0
636.0,0.043945312,0.03930664,0.11291504,-4.633588,7.091603299999999,-2.7404580000000003,2019-09-03 17:16:10,5.0
637.0,0.039245605,0.042297363,0.11071777,-10.351144999999999,6.5648856,-0.7099236999999999,2019-09-03 17:16:10,5.0
638.0,0.04925537,0.041748047,0.11059569999999999,-1.5343511,7.160305499999999,-2.9847328999999996,2019-09-03 17:16:10,5.0
639.0,0.0435791,0.03692627,0.11016846,-6.526717700000001,3.4961832000000004,-3.3282442000000003,2019-09-03 17:16:10,5.0
640.0,0.045654297,0.044067382999999995,0.11627197,-2.816794,3.2748091,-2.2137403,2019-09-03 17:16:10,5.0
641.0,0.041259766,0.04449463,0.11218262,-5.7938933,5.4961834000000005,-2.7328243,2019-09-03 17:16:10,5.0
642.0,0.04144287,0.038391113,0.10583496,-5.5496182,3.9847328999999996,-3.9389312000000007,2019-09-03 17:16:10,5.0
643.0,0.04852295,0.03881836,0.11267089999999998,-0.6793893,5.587786,-2.6259542000000002,2019-09-03 17:16:10,5.0
644.0,0.05065918,0.036804199999999995,0.10394287,-3.7404580000000003,6.3129773,-1.9847328999999998,2019-09-03 17:16:10,5.0
645.0,0.043640137,0.05206299,0.11706543,-4.6793895,8.290076,-2.4503817999999997,2019-09-03 17:16:10,5.0
646.0,0.047424315999999994,0.04724121,0.10809326,-3.6259542000000002,6.6793895,-2.3053436,2019-09-03 17:16:10,5.0
647.0,0.037353516,0.03881836,0.11987305,-2.9160306,5.3206105,-2.312977,2019-09-03 17:16:11,5.0
648.0,0.03942871,0.043029785,0.110839844,-3.1526718,6.587786,-3.8854961,2019-09-03 17:16:11,5.0
649.0,0.04284668,0.037841797,0.11260986,-5.7938933,6.152672,-3.9847328999999996,2019-09-03 17:16:11,5.0
650.0,0.045654297,0.038024902,0.1149292,-1.6183206,3.70229,-2.183206,2019-09-03 17:16:11,5.0
651.0,0.044128417999999996,0.046691895,0.111328125,-4.2748094000000005,6.1221375,-3.6564887,2019-09-03 17:16:11,5.0
652.0,0.03894043,0.039733887,0.11291504,-3.870229,6.2519083,-2.8778627,2019-09-03 17:16:11,5.0
653.0,0.043395996,0.046203613,0.10614014,-5.0305343,6.6793895,-3.1145039,2019-09-03 17:16:11,5.0
654.0,0.045166015999999996,0.04095459,0.11358642599999999,-0.07633588,5.3893127,-2.6030533,2019-09-03 17:16:11,5.0
655.0,0.044067382999999995,0.043823242000000005,0.11297607400000001,-4.961832,7.778625999999999,-2.206107,2019-09-03 17:16:11,5.0
656.0,0.04156494,0.043151855,0.10882568,-4.473282299999999,6.4351144,-2.167939,2019-09-03 17:16:11,5.0
657.0,0.044921875,0.047973632999999995,0.11151123,-5.5419846,6.885496000000001,-3.0687022,2019-09-03 17:16:11,5.0
658.0,0.04437256,0.04333496,0.11065674,-7.7557254,7.038167999999999,-3.3358779999999997,2019-09-03 17:16:11,5.0
659.0,0.03942871,0.048217773,0.10864258,-5.2900763,6.816794,-3.091603,2019-09-03 17:16:11,5.0
660.0,0.042053223,0.036621094,0.11138916,-7.2442746,6.5343513,-3.8931297999999996,2019-09-03 17:16:11,5.0
661.0,0.042541504,0.047668457000000004,0.11395264,-3.3969467000000004,4.89313,-2.0076337,2019-09-03 17:16:11,5.0
662.0,0.048828125,0.03704834,0.109191895,-8.2595415,5.7480917,-2.816794,2019-09-03 17:16:11,5.0
663.0,0.039733887,0.03930664,0.109313965,-3.946565,5.015267400000001,-3.183206,2019-09-03 17:16:11,5.0
664.0,0.045776367000000005,0.04876709,0.11450195,-4.145038,7.1221375,-3.2900763,2019-09-03 17:16:11,5.0
665.0,0.04296875,0.042297363,0.10491943,-7.038167999999999,6.5114503,-3.1603053,2019-09-03 17:16:11,5.0
666.0,0.04309082,0.049194336,0.117004395,-5.8778625,7.442748,-1.8702290000000001,2019-09-03 17:16:11,5.0
667.0,0.041809082000000004,0.036010742000000005,0.10821533,-5.2519083,5.396946400000001,-0.52671754,2019-09-03 17:16:11,5.0
668.0,0.04095459,0.04107666,0.10900879,-3.3816792999999996,6.1374044,-1.6335878000000001,2019-09-03 17:16:11,5.0
669.0,0.056396484000000004,0.04449463,0.11596680000000001,-3.5648854,5.145038,-2.610687,2019-09-03 17:16:11,5.0
670.0,0.034057617000000005,0.038391113,0.10845947,-2.7328243,5.778626,-3.129771,2019-09-03 17:16:11,5.0
671.0,0.046020507999999995,0.041137695,0.11059569999999999,-6.931298,6.1221375,-2.534351,2019-09-03 17:16:11,5.0
672.0,0.04748535,0.036376953,0.11517334,-2.9541984,4.7175574000000005,-3.2137403,2019-09-03 17:16:11,5.0
673.0,0.043640137,0.047058105,0.113098145,-4.5801525000000005,4.1603055,-3.7175572,2019-09-03 17:16:11,5.0
674.0,0.041748047,0.043395996,0.11035156,-9.832061,5.6946564,-2.793893,2019-09-03 17:16:11,5.0
675.0,0.04425049,0.044616699999999995,0.109375,-5.3587785000000006,5.4274807,-2.4122138,2019-09-03 17:16:11,5.0
676.0,0.047424315999999994,0.043640137,0.11151123,-8.893129,6.8549619999999996,-3.6793892,2019-09-03 17:16:11,5.0
677.0,0.038635254,0.04724121,0.11169433599999999,-7.603053599999999,5.7938933,-2.0992367,2019-09-03 17:16:11,5.0
678.0,0.036621094,0.047180176,0.10827637,-6.5648856,5.0610685,-1.7557251,2019-09-03 17:16:11,5.0
679.0,0.043029785,0.044128417999999996,0.11291504,-6.0458016,6.4198474999999995,-1.7938931,2019-09-03 17:16:11,5.0
680.0,0.050476074,0.03643799,0.11224365,-8.015267,6.3816795,-2.6717557999999997,2019-09-03 17:16:11,5.0
681.0,0.04638672,0.04071045,0.110839844,-3.4122138,5.4503818,-3.4351146,2019-09-03 17:16:11,5.0
682.0,0.038208007999999995,0.043884277,0.11212158,-3.8625953,6.2290077,-5.3893127,2019-09-03 17:16:12,5.0
683.0,0.053466797,0.042175292999999996,0.10797119,-3.7175572,6.6488547,-2.687023,2019-09-03 17:16:12,5.0
684.0,0.036071777,0.041809082000000004,0.11529541,-9.312977,6.6412214999999994,-1.9694656000000004,2019-09-03 17:16:12,5.0
685.0,0.04498291,0.041320800000000005,0.10839844,-1.2671756,5.4656487,-2.8778627,2019-09-03 17:16:12,5.0
686.0,0.044189453,0.036376953,0.11553955,-3.8854961,6.4274807,-2.8549618999999997,2019-09-03 17:16:12,5.0
687.0,0.039245605,0.04510498,0.10632324,-5.908396700000001,6.587786,-3.0305343,2019-09-03 17:16:12,5.0
688.0,0.049926757999999995,0.04449463,0.11401367,-6.969465700000001,9.2213745,-3.4961832000000004,2019-09-03 17:16:12,5.0
689.0,0.040161132999999995,0.04711914,0.117126465,-8.236641,7.396946400000001,-2.6488549999999997,2019-09-03 17:16:12,5.0
690.0,0.043273926,0.042785645,0.11468506,-9.526717,7.183206,-3.3893129999999996,2019-09-03 17:16:12,5.0
691.0,0.042053223,0.035095215,0.105651855,-7.1984735,5.847328,-3.9541983999999997,2019-09-03 17:16:12,5.0
692.0,0.040100098,0.039978027,0.11389160000000002,-2.206107,3.8015267999999995,-4.0992365,2019-09-03 17:16:12,5.0
693.0,0.04638672,0.045959473,0.11199951,6.778625999999999,3.4198472,-7.8244276,2019-09-03 17:16:12,5.0
694.0,0.044677734000000004,0.05657959,0.11224365,1.2824427,-6.4656487,-4.603053599999999,2019-09-03 17:16:12,5.0
695.0,0.05657959,0.032226562,0.10101318,-5.5114503,-3.4961832000000004,-7.862595599999999,2019-09-03 17:16:12,5.0
696.0,0.046569824,0.03375244,0.11273193,17.396946,0.38931298,-8.114504,2019-09-03 17:16:12,5.0
697.0,0.03930664,0.05810547,0.10638428,-0.9160305000000001,3.1526718,-3.1145039,2019-09-03 17:16:12,5.0
698.0,0.044616699999999995,0.044921875,0.11059569999999999,-12.236641,12.129771,0.053435113,2019-09-03 17:16:12,5.0
699.0,0.043518065999999994,0.045898438,0.11407471,-8.2213745,13.648855,1.6030535,2019-09-03 17:16:12,5.0
700.0,0.043151855,0.04937744,0.109313965,-10.519084,14.19084,2.0,2019-09-03 17:16:12,5.0
701.0,0.053710938,0.047546387,0.11553955,-13.78626,9.748092,1.9923664,2019-09-03 17:16:12,5.0
702.0,0.046569824,0.046081542999999996,0.11505127,-15.145039,10.618319999999999,-1.4580153,2019-09-03 17:16:12,5.0
703.0,0.049804688,0.039916992000000005,0.11450195,-10.389313000000001,7.1221375,-1.8015267,2019-09-03 17:16:12,5.0
704.0,0.036132812,0.046447754,0.11151123,-8.206107000000001,4.1984735,-2.8778627,2019-09-03 17:16:12,5.0
705.0,0.046020507999999995,0.044128417999999996,0.11413574,-5.7328243,2.4885497,-2.7099237,2019-09-03 17:16:12,5.0
706.0,0.051391599999999996,0.04321289,0.109375,-9.946565,4.6488547,-3.8549618999999997,2019-09-03 17:16:12,5.0
707.0,0.049865723,0.036987305,0.1071167,-6.6335880000000005,3.9312977999999994,-2.534351,2019-09-03 17:16:12,5.0
708.0,0.04925537,0.046081542999999996,0.107421875,-5.0305343,5.4656487,-2.442748,2019-09-03 17:16:12,5.0
709.0,0.044616699999999995,0.051879882999999995,0.11273193,-4.183206,5.603053599999999,-1.5725191,2019-09-03 17:16:12,5.0
710.0,0.039489746,0.04144287,0.10992432,-7.6412214999999994,8.412213000000001,-3.4580152,2019-09-03 17:16:12,5.0
711.0,0.046203613,0.041625977,0.11389160000000002,-9.198473,7.603053599999999,-3.8778627,2019-09-03 17:16:12,5.0
712.0,0.040039062,0.046081542999999996,0.11016846,-10.045800999999999,8.045800999999999,-2.5648854,2019-09-03 17:16:12,5.0
713.0,0.046691895,0.04711914,0.11291504,-2.9312978,4.1984735,-0.43511450000000007,2019-09-03 17:16:12,5.0
714.0,0.04083252,0.03894043,0.115234375,-3.7251909,3.8625953,-3.5725190000000002,2019-09-03 17:16:12,5.0
715.0,0.05102539,0.04443359400000001,0.11499023400000001,1.3282443000000002,1.4656489,-3.7175572,2019-09-03 17:16:12,5.0
716.0,0.04949951,0.04559326,0.11248779,10.137404,2.8625952999999997,-8.061069,2019-09-03 17:16:12,5.0
717.0,0.05242919999999999,0.051330565999999994,0.10858154,-2.0992367,3.183206,-6.5496182,2019-09-03 17:16:12,5.0
718.0,0.043640137,0.050476074,0.1104126,-12.198473,6.2900763,-2.870229,2019-09-03 17:16:13,5.0
719.0,0.046447754,0.043701172,0.10601807,-5.480916000000001,9.977099,-2.610687,2019-09-03 17:16:13,5.0
720.0,0.047424315999999994,0.040161132999999995,0.1104126,-13.061069,11.297709,-2.7328243,2019-09-03 17:16:13,5.0
721.0,0.046325684000000006,0.043884277,0.11035156,-15.137404,13.068703,-1.4580153,2019-09-03 17:16:13,5.0
722.0,0.043823242000000005,0.04748535,0.11151123,-14.0992365,14.389313000000001,-4.763358599999999,2019-09-03 17:16:13,5.0
723.0,0.044799805,0.037353516,0.11358642599999999,-8.801527,11.419847500000001,-3.183206,2019-09-03 17:16:13,5.0
724.0,0.04736328,0.041320800000000005,0.120910645,-1.5725191,12.358779,-4.5114503,2019-09-03 17:16:13,5.0
725.0,0.032043457000000004,0.04333496,0.10778808599999999,0.83206105,1.2366412,-2.557252,2019-09-03 17:16:13,5.0
726.0,0.043701172,0.046203613,0.10467529,-5.587786,-4.8320612999999994,-2.0687022,2019-09-03 17:16:13,5.0
727.0,0.038085938,0.04272461,0.10974121,-0.8167939000000001,-2.9694657,-5.4274807,2019-09-03 17:16:13,5.0
728.0,0.04522705,0.045776367000000005,0.10485839999999998,-3.778626,-0.7099236999999999,-4.9007635,2019-09-03 17:16:13,5.0
729.0,0.04296875,0.046325684000000006,0.10632324,-10.549619,5.809159999999999,-3.8091602,2019-09-03 17:16:13,5.0
730.0,0.036376953,0.047668457000000004,0.11456299,-10.442748,8.450381,-1.038168,2019-09-03 17:16:13,5.0
731.0,0.05255127,0.041625977,0.11370849599999999,-2.4885497,11.572519,-4.1679387000000006,2019-09-03 17:16:13,5.0
732.0,0.034606934,0.044006348,0.11279297,-7.465648700000001,8.389313000000001,-1.4656489,2019-09-03 17:16:13,5.0
733.0,0.042053223,0.045959473,0.11352539,-14.007632999999998,9.572519,-0.47328246,2019-09-03 17:16:13,5.0
734.0,0.047790527,0.03741455,0.11505127,-4.145038,4.4274807,-0.8778626,2019-09-03 17:16:13,5.0
735.0,0.04638672,0.040039062,0.11669922,-2.167939,4.59542,-1.7251908999999999,2019-09-03 17:16:13,5.0
736.0,0.041992188,0.047973632999999995,0.11755371,-5.5725193,2.8625952999999997,-1.6030535,2019-09-03 17:16:13,5.0
737.0,0.0390625,0.045959473,0.11108398400000001,-3.8091602,2.480916,-1.1908396,2019-09-03 17:16:13,5.0
738.0,0.049133300000000005,0.045532227,0.11303711,-0.41221374,4.0076336999999995,-3.4885497,2019-09-03 17:16:13,5.0
739.0,0.04296875,0.041931152,0.11199951,-5.2442746,4.5038165999999995,-2.961832,2019-09-03 17:16:13,5.0
740.0,0.038391113,0.04443359400000001,0.11053467,-6.10687,5.6412214999999994,-1.1984733,2019-09-03 17:16:13,5.0
741.0,0.041381836,0.039733887,0.11151123,-7.038167999999999,5.9007635,-2.519084,2019-09-03 17:16:13,5.0
742.0,0.042053223,0.0423584,0.11431885,-0.6335878,3.3435113,-3.3587787000000002,2019-09-03 17:16:13,5.0
743.0,0.04559326,0.046875,0.105651855,-5.5419846,5.9923663000000005,-2.4885497,2019-09-03 17:16:13,5.0
744.0,0.047729492000000005,0.048583984000000004,0.10986328,-9.839694999999999,5.0076336999999995,-1.4122137,2019-09-03 17:16:13,5.0
745.0,0.03894043,0.044555664,0.11352539,-11.206107000000001,4.1374044,-2.206107,2019-09-03 17:16:13,5.0
746.0,0.042053223,0.036376953,0.10968017599999999,-7.6793895,2.8854961,-1.5725191,2019-09-03 17:16:13,5.0
747.0,0.04650879,0.03857422,0.11047363,-2.6335877999999995,1.6641221000000002,-3.183206,2019-09-03 17:16:13,5.0
748.0,0.044189453,0.04272461,0.107910156,-2.2824428,3.0076337000000004,-4.0992365,2019-09-03 17:16:13,5.0
749.0,0.051330565999999994,0.04296875,0.11273193,-9.465649,-0.9465648999999999,-4.603053599999999,2019-09-03 17:16:13,5.0
750.0,0.048583984000000004,0.03845215,0.10443115,-10.442748,0.52671754,-5.885496,2019-09-03 17:16:13,5.0
751.0,0.053710938,0.043029785,0.11230469,-4.0305343,1.3129771000000001,-5.3206105,2019-09-03 17:16:13,5.0
752.0,0.04486084,0.05322265599999999,0.10656738,-7.740458,2.7099237,-2.923664,2019-09-03 17:16:13,5.0
753.0,0.056762695,0.04107666,0.11108398400000001,-6.2671757,2.0458016,-3.6183207000000004,2019-09-03 17:16:14,5.0
754.0,0.04498291,0.048217773,0.109313965,-12.977099,4.7709923,-3.6106870000000004,2019-09-03 17:16:14,5.0
755.0,0.05328369,0.04095459,0.10516357400000001,-13.244275,8.404580000000001,-2.778626,2019-09-03 17:16:14,5.0
756.0,0.055725098,0.03942871,0.11236572,-9.839694999999999,11.045800999999999,-0.6335878,2019-09-03 17:16:14,5.0
757.0,0.048828125,0.043395996,0.11505127,-6.969465700000001,10.267176,-2.5648854,2019-09-03 17:16:14,5.0
758.0,0.053466797,0.04675293,0.11071777,-15.557251999999998,10.931297,-2.7862597,2019-09-03 17:16:14,5.0
759.0,0.04522705,0.04675293,0.10845947,-11.396947,13.206107000000001,-3.8091602,2019-09-03 17:16:14,5.0
760.0,0.04473877,0.049194336,0.10772705,0.16030534,12.526717,-2.8244274,2019-09-03 17:16:14,5.0
761.0,0.04437256,0.041870117000000005,0.107543945,1.8702290000000001,12.832061,-3.206107,2019-09-03 17:16:14,5.0
762.0,0.043762207000000004,0.045043945,0.115356445,-0.007633588,7.4732823,-2.1221373,2019-09-03 17:16:14,5.0
763.0,0.04486084,0.04260254,0.10992432,-8.396947,3.0610687999999997,2.687023,2019-09-03 17:16:14,5.0
764.0,0.04248047,0.045898438,0.10760498,0.67175573,1.0229008,-1.0534351,2019-09-03 17:16:14,5.0
765.0,0.047546387,0.045776367000000005,0.11468506,-2.0839694,3.7557251000000003,-3.4809160000000006,2019-09-03 17:16:14,5.0
766.0,0.04425049,0.032958984,0.10687256,-8.244275,5.4351144,-4.2061067,2019-09-03 17:16:14,5.0
767.0,0.044311523,0.040283203,0.11029053,-7.763358599999999,7.5114503,-2.6335877999999995,2019-09-03 17:16:14,5.0
768.0,0.036010742000000005,0.045776367000000005,0.11547851599999999,-3.7099237,9.496183,-5.0,2019-09-03 17:16:14,5.0
769.0,0.047058105,0.040527344,0.10662842,-9.396947,13.282442999999999,-3.6946564,2019-09-03 17:16:14,5.0
770.0,0.043762207000000004,0.045532227,0.11218262,-8.717557000000001,14.908397,-4.7251905999999995,2019-09-03 17:16:14,5.0
771.0,0.041015625,0.04272461,0.11389160000000002,-3.7251909,13.435115,-2.7251909,2019-09-03 17:16:14,5.0
772.0,0.046875,0.047180176,0.11291504,-8.572519,12.358779,-2.6564887,2019-09-03 17:16:14,5.0
773.0,0.036315917999999996,0.042236328,0.11663818,-4.076336,7.335878,-3.3282442000000003,2019-09-03 17:16:14,5.0
774.0,0.037963867000000005,0.04443359400000001,0.11358642599999999,-9.320611,3.6717557999999997,-2.2824428,2019-09-03 17:16:14,5.0
775.0,0.036499023,0.04144287,0.11480713,-9.083969,2.4961832000000004,-0.740458,2019-09-03 17:16:14,5.0
776.0,0.03955078,0.041015625,0.11419678,-6.343511599999999,5.9694657,-4.9923663000000005,2019-09-03 17:16:14,5.0
777.0,0.044921875,0.038879395,0.111328125,-6.8778625,6.076336,-1.3969465,2019-09-03 17:16:14,5.0
778.0,0.03668213,0.043395996,0.1182251,-8.648855000000001,6.190840000000001,-0.061068702,2019-09-03 17:16:14,5.0
779.0,0.04071045,0.043029785,0.117370605,-5.5801525000000005,3.7251909,-1.0,2019-09-03 17:16:14,5.0
780.0,0.035827637,0.042907715,0.11108398400000001,-2.5801528,0.96183205,-0.9312976999999999,2019-09-03 17:16:14,5.0
781.0,0.045776367000000005,0.049072265999999996,0.11096191400000001,-7.587786,1.6641221000000002,0.22900763,2019-09-03 17:16:14,5.0
782.0,0.042785645,0.03955078,0.10986328,-12.2213745,2.1068702,-0.5648854999999999,2019-09-03 17:16:14,5.0
783.0,0.03137207,0.041992188,0.10961914,-6.885496000000001,3.0458016,-0.5954198,2019-09-03 17:16:14,5.0
784.0,0.051574707000000004,0.042114257999999995,0.11175537,-6.0229006,3.5190839999999994,-0.60305345,2019-09-03 17:16:14,5.0
785.0,0.046447754,0.041748047,0.117126465,-9.641221,5.7175574000000005,-2.7557251,2019-09-03 17:16:14,5.0
786.0,0.044555664,0.04119873,0.1104126,-5.3053436,7.4503818,-3.2900763,2019-09-03 17:16:14,5.0
787.0,0.0423584,0.039794922,0.11230469,-2.3816792999999996,6.5801525,-2.221374,2019-09-03 17:16:14,5.0
788.0,0.04272461,0.040649414,0.111206055,-6.5114503,5.923664,-4.0,2019-09-03 17:16:14,5.0
789.0,0.039123535,0.04144287,0.11450195,-0.89312977,1.389313,-2.572519,2019-09-03 17:16:15,5.0
790.0,0.05529785,0.038635254,0.107421875,-2.6259542000000002,2.5877862,-4.038168,2019-09-03 17:16:15,5.0
791.0,0.051086426,0.038635254,0.11602783,-2.6564887,4.8320612999999994,-3.6717557999999997,2019-09-03 17:16:15,5.0
792.0,0.041748047,0.041870117000000005,0.10888672,7.671755999999999,3.2137403,-5.2748094000000005,2019-09-03 17:16:15,5.0
793.0,0.051940917999999996,0.041931152,0.11383057,8.816792999999999,2.5038167999999996,-7.839694500000001,2019-09-03 17:16:15,5.0
794.0,0.05432129,0.03540039,0.10784912,16.114504,-0.16030534,-9.832061,2019-09-03 17:16:15,5.0
795.0,0.049438477,0.04309082,0.11621094,27.030534999999997,9.603053,-9.358779,2019-09-03 17:16:15,5.0
796.0,0.043823242000000005,0.054016113,0.12384033,57.572517000000005,9.412213000000001,1.221374,2019-09-03 17:16:15,5.0
797.0,0.050476074,0.07873535,0.13104248,77.9542,-0.7099236999999999,16.664122,2019-09-03 17:16:15,5.0
798.0,0.044067382999999995,0.08850098,0.117126465,77.183205,-16.57252,36.717556,2019-09-03 17:16:15,5.0
799.0,0.061828613,0.09106445,0.10192871,61.38168,-22.816793,52.870228000000004,2019-09-03 17:16:15,5.0
800.0,0.051208496,0.07672119,0.09289551,43.687022999999996,-26.595419,61.702290000000005,2019-09-03 17:16:15,5.0
801.0,0.057922363,0.07141113,0.09667969,24.267176,-23.801527,60.610687,2019-09-03 17:16:15,5.0
802.0,0.059936523,0.054504395,0.08068848,-16.274809,-11.770992,49.045803,2019-09-03 17:16:15,5.0
803.0,0.050720215,0.032592773,0.08233642599999999,-47.633587,-5.3893127,41.381679999999996,2019-09-03 17:16:15,5.0
804.0,0.055541992000000005,0.009277344,0.07940674,-50.473279999999995,-8.068703,27.389313,2019-09-03 17:16:15,5.0
805.0,0.046203613,0.004760742,0.082214355,-36.664124,5.1755724,3.465649,2019-09-03 17:16:15,5.0
806.0,0.057495117000000005,0.019165039,0.08319092,-63.083969999999994,11.961832000000001,-13.259541500000001,2019-09-03 17:16:15,5.0
807.0,0.056396484000000004,0.010131836,0.06982422,-98.25954399999999,29.08397,-35.351147,2019-09-03 17:16:15,5.0
808.0,0.03930664,0.008483886999999999,0.07757568,-83.37405,43.572517,-55.679390000000005,2019-09-03 17:16:15,5.0
809.0,0.035583496,0.021484375,0.08917236,-57.274809999999995,48.709922999999996,-62.76336,2019-09-03 17:16:15,5.0
810.0,0.02722168,0.049560547,0.10675049,-21.534351,39.87786,-66.221375,2019-09-03 17:16:15,5.0
811.0,0.033996582000000004,0.05480957,0.11236572,10.022901,32.282444,-71.0229,2019-09-03 17:16:15,5.0
812.0,0.035339355,0.07763672,0.12579346,28.48855,24.10687,-65.12977,2019-09-03 17:16:15,5.0
813.0,0.052124023,0.10296631,0.16766357,15.938931,10.419847500000001,-47.015266,2019-09-03 17:16:15,5.0
814.0,0.062561035,0.09478760000000001,0.11846924,-5.0610685,22.809160000000002,-17.259542,2019-09-03 17:16:15,5.0
815.0,0.047973632999999995,0.047973632999999995,0.1003418,-35.572517,20.160304999999997,-1.1297709999999999,2019-09-03 17:16:15,5.0
816.0,0.04833984400000001,0.049743652,0.103637695,25.473282,10.603053,-2.9160306,2019-09-03 17:16:15,5.0
817.0,0.051208496,0.076660156,0.11419678,19.267176,17.900763,-5.9389315,2019-09-03 17:16:15,5.0
818.0,0.033081055,0.059631348,0.10168457,-27.32061,26.030535,-1.2748091000000001,2019-09-03 17:16:15,5.0
819.0,0.047302246,0.049621582000000004,0.11022949,-41.045803,29.862595000000002,0.16793893,2019-09-03 17:16:15,5.0
820.0,0.044677734000000004,0.040527344,0.11730957,-42.984734,31.725191,-3.4122138,2019-09-03 17:16:15,5.0
821.0,0.0357666,0.043273926,0.115112305,-28.664121999999995,26.80916,-2.832061,2019-09-03 17:16:15,5.0
822.0,0.035217285,0.046813965,0.12139892599999999,-30.900763,15.267176000000001,-2.076336,2019-09-03 17:16:15,5.0
823.0,0.04095459,0.039978027,0.11126709,-14.0992365,13.061069,-5.5114503,2019-09-03 17:16:15,5.0
824.0,0.042053223,0.050048828,0.10778808599999999,-16.175573,10.320611,-5.145038,2019-09-03 17:16:15,5.0
825.0,0.036987305,0.04107666,0.11773682,-5.221374,3.3664122000000005,-4.5801525000000005,2019-09-03 17:16:16,5.0
826.0,0.03668213,0.04901123,0.11340332,-6.923664,5.3053436,-3.3282442000000003,2019-09-03 17:16:16,5.0
827.0,0.033996582000000004,0.05029297,0.11224365,1.7557251,4.8244276,-1.0076336,2019-09-03 17:16:16,5.0
828.0,0.039916992000000005,0.050842285,0.11016846,4.2137402999999996,2.572519,1.0076336,2019-09-03 17:16:16,5.0
829.0,0.045043945,0.048095703,0.11224365,-6.8778625,5.4198474999999995,2.9007633,2019-09-03 17:16:16,5.0
830.0,0.035888672,0.03942871,0.10925293,-13.206107000000001,9.923664,4.221374,2019-09-03 17:16:16,5.0
831.0,0.040222167999999996,0.038208007999999995,0.11126709,-17.305344,15.763359,3.351145,2019-09-03 17:16:16,5.0
832.0,0.029541016,0.03265381,0.11987305,-21.694656,18.007633,-0.9465648999999999,2019-09-03 17:16:16,5.0
833.0,0.033508300000000005,0.028015137000000002,0.12957764,-25.358778,19.229008,-9.068703,2019-09-03 17:16:16,5.0
834.0,0.040893555,0.019897461,0.09936523400000001,-9.145039,-2.3511450000000003,-11.748092,2019-09-03 17:16:16,5.0
835.0,0.031188965,0.03289795,0.12567139,-8.687023,-5.221374,-2.5801528,2019-09-03 17:16:16,5.0
836.0,0.033081055,0.04095459,0.13189697,4.5343513,-3.5496182000000003,-15.389313000000001,2019-09-03 17:16:16,5.0
837.0,0.037597656,0.05255127,0.11260986,3.8015267999999995,-15.832060999999998,-17.343512,2019-09-03 17:16:16,5.0
838.0,0.043518065999999994,0.06427002,0.111450195,-17.625954,-20.877863,-15.702291,2019-09-03 17:16:16,5.0
839.0,0.03881836,0.05596924,0.105407715,-36.641220000000004,-14.007632999999998,-13.488548999999999,2019-09-03 17:16:16,5.0
840.0,0.038146973,0.041748047,0.10559082,-36.381679999999996,-9.022901,-13.839695,2019-09-03 17:16:16,5.0
841.0,0.042236328,0.03503418,0.11138916,-8.641221,-2.038168,-13.38168,2019-09-03 17:16:16,5.0
842.0,0.039001465,0.044799805,0.10888672,0.31297709999999995,4.984732599999999,-13.664123000000002,2019-09-03 17:16:16,5.0
843.0,0.044799805,0.042114257999999995,0.11206055,-12.007633,15.442748000000002,-10.557252,2019-09-03 17:16:16,5.0
844.0,0.03265381,0.045532227,0.11761474599999999,-11.908397,15.793892999999999,-5.2824425999999995,2019-09-03 17:16:16,5.0
845.0,0.03161621,0.037719727,0.12152099599999999,-14.145039,16.114504,-3.3740457999999998,2019-09-03 17:16:16,5.0
846.0,0.033996582000000004,0.026306152000000003,0.11956787,-11.534351,13.0992365,-7.1297708,2019-09-03 17:16:16,5.0
847.0,0.03845215,0.042785645,0.11956787,1.9083970000000001,9.923664,-5.7328243,2019-09-03 17:16:16,5.0
848.0,0.039611816,0.04309082,0.11676025400000001,-1.3129771000000001,11.541985,-7.7557254,2019-09-03 17:16:16,5.0
849.0,0.036254882999999995,0.046691895,0.12207031,0.28244275,8.0992365,-4.7862597000000004,2019-09-03 17:16:16,5.0
850.0,0.0357666,0.047302246,0.11676025400000001,-3.648855,8.282442999999999,-4.2290077,2019-09-03 17:16:16,5.0
851.0,0.038208007999999995,0.046447754,0.12121582,-6.5114503,5.816794,-4.1755724,2019-09-03 17:16:16,5.0
852.0,0.030334472999999997,0.043823242000000005,0.11517334,-10.78626,5.4503818,-1.1908396,2019-09-03 17:16:16,5.0
853.0,0.034606934,0.042663574,0.12133789,-5.908396700000001,3.2366412,0.5801527,2019-09-03 17:16:16,5.0
854.0,0.04888916,0.036071777,0.117370605,-3.1450381000000003,3.5877862,0.015267176,2019-09-03 17:16:16,5.0
855.0,0.041015625,0.043273926,0.11267089999999998,-6.4274807,5.091603299999999,0.6183206,2019-09-03 17:16:16,5.0
856.0,0.03704834,0.04260254,0.11022949,-3.465649,5.0076336999999995,1.1450381,2019-09-03 17:16:16,5.0
857.0,0.039794922,0.042175292999999996,0.11383057,-5.7251905999999995,6.076336,-0.03816794,2019-09-03 17:16:16,5.0
858.0,0.035217285,0.043884277,0.11682129,-0.022900764,6.89313,-1.0152671,2019-09-03 17:16:16,5.0
859.0,0.041748047,0.042663574,0.11834717,1.4122137,5.4503818,-1.9465648999999998,2019-09-03 17:16:16,5.0
860.0,0.04449463,0.03729248,0.11285400400000001,-6.2061067,6.526717700000001,-3.053435,2019-09-03 17:16:16,5.0
861.0,0.03479004,0.045654297,0.11553955,-10.885496,4.6946564,-0.86259544,2019-09-03 17:16:17,5.0
862.0,0.038146973,0.04248047,0.11456299,-8.908397,3.3129769999999996,-0.39694658,2019-09-03 17:16:17,5.0
863.0,0.046936035,0.043640137,0.11450195,-5.740458,1.2442749,0.045801528,2019-09-03 17:16:17,5.0
864.0,0.03137207,0.03869629,0.11169433599999999,-11.030535,1.5877863,0.15267175,2019-09-03 17:16:17,5.0
865.0,0.03692627,0.042419434000000006,0.11157226599999999,-6.885496000000001,2.5801528,-0.13740458,2019-09-03 17:16:17,5.0
866.0,0.03643799,0.040893555,0.10607910000000002,-5.6488547,5.4274807,-1.519084,2019-09-03 17:16:17,5.0
867.0,0.032592773,0.035888672,0.11254883,-3.2595419999999997,7.8244276,-5.809159999999999,2019-09-03 17:16:17,5.0
868.0,0.042236328,0.033813477,0.119262695,-1.6717557,9.80916,-7.625953999999999,2019-09-03 17:16:17,5.0
869.0,0.038513184,0.03503418,0.11407471,-2.2671757,12.160305000000001,-9.091603,2019-09-03 17:16:17,5.0
870.0,0.034240723,0.04437256,0.12158203,-0.061068702,6.763358599999999,-8.076336,2019-09-03 17:16:17,5.0
871.0,0.0345459,0.043701172,0.12207031,-9.7404585,3.8091602,-7.969465700000001,2019-09-03 17:16:17,5.0
872.0,0.03540039,0.041809082000000004,0.12677002,-26.25191,-5.183206,-11.229008,2019-09-03 17:16:17,5.0
873.0,0.037475586,0.04498291,0.12030029,-44.78626,-12.435115,-10.305344,2019-09-03 17:16:17,5.0
874.0,0.036132812,0.04443359400000001,0.09942627,-25.267176,-16.839695000000003,-11.80916,2019-09-03 17:16:17,5.0
875.0,0.042053223,0.05267334,0.104003906,-29.358778000000004,-8.21374,-9.473283,2019-09-03 17:16:17,5.0
876.0,0.034484863,0.047973632999999995,0.10583496,-54.702290000000005,-0.5496183000000001,0.66412216,2019-09-03 17:16:17,5.0
877.0,0.03668213,0.030151367000000002,0.11059569999999999,-54.541985,7.19084,0.15267175,2019-09-03 17:16:17,5.0
878.0,0.03765869,0.00970459,0.11883545,-36.46565,8.7404585,0.97709924,2019-09-03 17:16:17,5.0
879.0,0.048217773,0.00048828125,0.11694336,-26.595419,11.618319999999999,-2.557252,2019-09-03 17:16:17,5.0
880.0,0.04510498,0.0064697266000000005,0.11859131,9.244275,16.473282,-4.2442746,2019-09-03 17:16:17,5.0
881.0,0.048095703,0.031982422,0.119140625,31.740458,14.59542,-7.778625999999999,2019-09-03 17:16:17,5.0
882.0,0.035827637,0.040283203,0.12225342,8.633588,15.015267000000001,-6.2900763,2019-09-03 17:16:17,5.0
883.0,0.030334472999999997,0.04034424,0.11242676,13.053435,11.297709,-3.3358779999999997,2019-09-03 17:16:17,5.0
884.0,0.04248047,0.036743164,0.11651611,1.4045801000000002,12.503817,-3.351145,2019-09-03 17:16:17,5.0
885.0,0.034729004,0.028869628999999997,0.11706543,2.2290077,11.2595415,-1.1221374,2019-09-03 17:16:17,5.0
886.0,0.031677246,0.02923584,0.10998535,15.122137,11.167939,-3.0687022,2019-09-03 17:16:17,5.0
887.0,0.043518065999999994,0.032714844,0.11706543,8.541985,11.030535,-6.6412214999999994,2019-09-03 17:16:17,5.0
888.0,0.03112793,0.036621094,0.11645508,-10.748092,16.450382,-6.80916,2019-09-03 17:16:17,5.0
889.0,0.02960205,0.027160645,0.11260986,9.78626,13.007633,-6.885496000000001,2019-09-03 17:16:17,5.0
890.0,0.03753662,0.040222167999999996,0.113098145,27.839695000000003,11.572519,-9.068703,2019-09-03 17:16:17,5.0
891.0,0.022888184,0.046325684000000006,0.12567139,16.328245000000003,6.526717700000001,-1.7862595000000001,2019-09-03 17:16:17,5.0
892.0,0.03326416,0.050842285,0.1182251,24.969465,2.3816792999999996,-5.2824425999999995,2019-09-03 17:16:17,5.0
893.0,0.035827637,0.061767578,0.11456299,27.473282,0.33587787,5.7251905999999995,2019-09-03 17:16:17,5.0
894.0,0.044555664,0.059509277,0.11663818,-5.1603055,8.251908,8.053435,2019-09-03 17:16:17,5.0
895.0,0.0423584,0.058410645,0.11328125,-6.0229006,6.7175574000000005,10.969465,2019-09-03 17:16:17,5.0
896.0,0.038269042999999996,0.05529785,0.11077881,-21.961832,11.725191,9.824428,2019-09-03 17:16:18,5.0
897.0,0.040893555,0.041809082000000004,0.11486816400000001,-12.290076,5.8320612999999994,7.480916000000001,2019-09-03 17:16:18,5.0
898.0,0.038391113,0.045654297,0.13562012,-7.59542,-2.8244274,7.5267177,2019-09-03 17:16:18,5.0
899.0,0.024597168,0.035949707000000004,0.10577392599999999,-6.1374044,6.7709923,-4.3587785000000006,2019-09-03 17:16:18,5.0
900.0,0.035583496,0.034606934,0.11370849599999999,5.3893127,2.5038167999999996,-6.259542,2019-09-03 17:16:18,5.0
901.0,0.0390625,0.05126953,0.10900879,-6.1679387000000006,6.709923700000001,-8.366412,2019-09-03 17:16:18,5.0
902.0,0.036865234,0.04144287,0.11108398400000001,-7.3816795,8.091603,-9.19084,2019-09-03 17:16:18,5.0
903.0,0.039733887,0.044677734000000004,0.119262695,-17.137404999999998,5.6946564,-11.061069,2019-09-03 17:16:18,5.0
904.0,0.045776367000000005,0.035339355,0.12243652,-13.519084,4.854962,-16.08397,2019-09-03 17:16:18,5.0
905.0,0.041259766,0.04156494,0.10772705,2.1755726,3.3587787000000002,-15.977098999999999,2019-09-03 17:16:18,5.0
906.0,0.025939941,0.043823242000000005,0.11810303,10.175572,2.183206,-16.641222,2019-09-03 17:16:18,5.0
907.0,0.032348632999999995,0.054260254,0.117004395,1.1908396,-4.809159999999999,-12.503817,2019-09-03 17:16:18,5.0
908.0,0.042236328,0.042236328,0.11389160000000002,-20.213741,1.9465648999999998,-6.7557254,2019-09-03 17:16:18,5.0
909.0,0.03125,0.050476074,0.11199951,-6.778625999999999,0.22900763,-4.1603055,2019-09-03 17:16:18,5.0
910.0,0.037597656,0.04449463,0.10992432,-16.847328,7.664122,-2.8931298,2019-09-03 17:16:18,5.0
911.0,0.04333496,0.047058105,0.1116333,-13.885496,8.442748,0.7251908,2019-09-03 17:16:18,5.0
912.0,0.03942871,0.05444336,0.11529541,-18.961832,13.183207000000001,1.0839695,2019-09-03 17:16:18,5.0
913.0,0.03930664,0.041259766,0.10858154,-12.473283,10.328244,0.45038167,2019-09-03 17:16:18,5.0
914.0,0.035095215,0.045654297,0.11621094,-2.2366412,8.442748,2.5038167999999996,2019-09-03 17:16:18,5.0
915.0,0.030090332,0.04541015599999999,0.11419678,-8.068703,11.893129,2.70229,2019-09-03 17:16:18,5.0
916.0,0.03137207,0.041320800000000005,0.11999512,-7.152672,10.572519,6.885496000000001,2019-09-03 17:16:18,5.0
917.0,0.044189453,0.03955078,0.117370605,-11.503817,11.2595415,9.061069,2019-09-03 17:16:18,5.0
918.0,0.037109375,0.039733887,0.10632324,6.519083999999999,13.801526999999998,6.625953999999999,2019-09-03 17:16:18,5.0
919.0,0.039855957000000004,0.045959473,0.111206055,2.167939,11.465649,8.114504,2019-09-03 17:16:18,5.0
920.0,0.03765869,0.047912598,0.10986328,-8.282442999999999,14.267176000000001,7.236641400000001,2019-09-03 17:16:18,5.0
921.0,0.034057617000000005,0.04046631,0.11022949,-19.587785999999998,15.977098999999999,9.2213745,2019-09-03 17:16:18,5.0
922.0,0.033813477,0.03918457,0.11480713,-9.381680000000001,20.839695000000003,7.59542,2019-09-03 17:16:18,5.0
923.0,0.033447266,0.04107666,0.11193848,2.8778627,12.648855000000001,9.137404,2019-09-03 17:16:18,5.0
924.0,0.042297363,0.049438477,0.10858154,-15.374045,18.732824,9.496183,2019-09-03 17:16:18,5.0
925.0,0.02960205,0.03869629,0.12054443,-24.587785999999998,20.702289999999998,7.221374000000001,2019-09-03 17:16:18,5.0
926.0,0.028625487999999998,0.04547119,0.11834717,-25.305344,14.435115,5.7099237,2019-09-03 17:16:18,5.0
927.0,0.043151855,0.04443359400000001,0.11035156,-10.442748,12.763359,4.961832,2019-09-03 17:16:18,5.0
928.0,0.027770996000000003,0.049743652,0.124938965,-9.435115,23.244274,3.2824428,2019-09-03 17:16:18,5.0
929.0,0.035949707000000004,0.038085938,0.11529541,-30.67939,15.038167999999999,5.633588,2019-09-03 17:16:18,5.0
930.0,0.028564452999999997,0.031311035,0.119018555,-18.366413,16.534351,2.221374,2019-09-03 17:16:18,5.0
931.0,0.026733398,0.03338623,0.11651611,-0.73282444,6.923664,-2.8625952999999997,2019-09-03 17:16:18,5.0
932.0,0.028137207,0.031555176000000004,0.12280273400000001,4.984732599999999,3.7175572,-7.5801525,2019-09-03 17:16:19,5.0
933.0,0.032287598,0.040283203,0.11456299,9.694656,-3.6641220000000003,-7.793893300000001,2019-09-03 17:16:19,5.0
934.0,0.021118164,0.043640137,0.12219238,9.702291,-3.7709922999999996,-11.015267,2019-09-03 17:16:19,5.0
935.0,0.034606934,0.04638672,0.11785889,-1.0839695,-2.4961832000000004,-10.061069,2019-09-03 17:16:19,5.0
936.0,0.029724121000000003,0.044555664,0.10852051,-1.3129771000000001,-3.167939,-10.419847500000001,2019-09-03 17:16:19,5.0
937.0,0.034179688,0.03564453,0.11138916,-4.2824425999999995,-1.8473282,-9.732824,2019-09-03 17:16:19,5.0
938.0,0.031982422,0.043395996,0.11370849599999999,-10.2595415,0.07633588,-8.007633,2019-09-03 17:16:19,5.0
939.0,0.039489746,0.035095215,0.11407471,-0.34351146,3.8244274,-8.877863,2019-09-03 17:16:19,5.0
940.0,0.030700684,0.045959473,0.12506104,13.801526999999998,6.2442746,-9.0992365,2019-09-03 17:16:19,5.0
941.0,0.032104492000000005,0.052978515999999996,0.11639404,-6.5343513,5.3206105,-5.816794,2019-09-03 17:16:19,5.0
942.0,0.033081055,0.047851562,0.113342285,-15.656488000000001,8.755725,-4.2671757,2019-09-03 17:16:19,5.0
943.0,0.02911377,0.042785645,0.11499023400000001,-2.8015267999999995,4.9694657,-3.167939,2019-09-03 17:16:19,5.0
944.0,0.03326416,0.047912598,0.11529541,-6.7557254,5.3129773,0.4427481,2019-09-03 17:16:19,5.0
945.0,0.034851073999999996,0.04034424,0.12329101599999999,-8.236641,4.778626,-0.06870229,2019-09-03 17:16:19,5.0
946.0,0.034484863,0.046081542999999996,0.11291504,-7.4503818,3.9694656999999998,-2.465649,2019-09-03 17:16:19,5.0
947.0,0.035827637,0.038208007999999995,0.11260986,-12.183207000000001,2.7099237,-1.4351145,2019-09-03 17:16:19,5.0
948.0,0.038330078,0.044006348,0.11505127,-7.19084,0.8702290000000001,-1.1297709999999999,2019-09-03 17:16:19,5.0
949.0,0.033203125,0.0423584,0.11444092,-4.4885497,2.572519,1.0152671,2019-09-03 17:16:19,5.0
950.0,0.036499023,0.03515625,0.11340332,-3.534351,5.2977099999999995,-0.3740458,2019-09-03 17:16:19,5.0
951.0,0.034606934,0.041625977,0.11212158,-8.015267,7.4503818,-0.007633588,2019-09-03 17:16:19,5.0
952.0,0.028442382999999998,0.042541504,0.10839844,-7.0076336999999995,6.8702292,-0.5114504,2019-09-03 17:16:19,5.0
953.0,0.039794922,0.048461914,0.11505127,-3.7557251000000003,8.946565,-2.1908397999999996,2019-09-03 17:16:19,5.0
954.0,0.03967285,0.0423584,0.11639404,-7.0152674,10.793892999999999,-3.7862597,2019-09-03 17:16:19,5.0
955.0,0.034973145,0.044067382999999995,0.11877441400000001,-2.7099237,10.763359,-3.7633588,2019-09-03 17:16:19,5.0
956.0,0.029052734,0.04534912,0.115112305,-3.2671757,10.732824,-3.8549618999999997,2019-09-03 17:16:19,5.0
957.0,0.030700684,0.04559326,0.11407471,-8.618319999999999,9.641221,-2.312977,2019-09-03 17:16:19,5.0
958.0,0.03265381,0.044677734000000004,0.11920166,-7.9923663000000005,7.7251906,-4.4351144,2019-09-03 17:16:19,5.0
959.0,0.03466797,0.044189453,0.11846924,-9.648855000000001,5.9770994,-3.961832,2019-09-03 17:16:19,5.0
960.0,0.028747559,0.039978027,0.12219238,0.022900764,1.9923664,-4.4198474999999995,2019-09-03 17:16:19,5.0
961.0,0.034423828,0.05078125,0.11779785,-3.2290077,1.259542,-5.4351144,2019-09-03 17:16:19,5.0
962.0,0.036804199999999995,0.056640625,0.119628906,-1.1984733,0.58778626,-6.2671757,2019-09-03 17:16:19,5.0
963.0,0.0357666,0.044311523,0.111328125,-5.0229006,1.351145,-6.0,2019-09-03 17:16:19,5.0
964.0,0.028564452999999997,0.044067382999999995,0.11450195,-4.4274807,1.8244275,-5.221374,2019-09-03 17:16:19,5.0
965.0,0.036621094,0.047973632999999995,0.11218262,3.946565,3.0610687999999997,-3.5038167999999996,2019-09-03 17:16:19,5.0
966.0,0.03387451,0.046142578,0.11621094,-5.1755724,7.3816795,-4.190840000000001,2019-09-03 17:16:19,5.0
967.0,0.025939941,0.043945312,0.11413574,-12.274809,10.473283,-0.54198474,2019-09-03 17:16:19,5.0
968.0,0.03881836,0.051574707000000004,0.11285400400000001,-5.4961834000000005,8.419847500000001,-0.18320611,2019-09-03 17:16:20,5.0
969.0,0.033325195,0.046569824,0.11254883,-5.89313,5.5648856,1.6183206,2019-09-03 17:16:20,5.0
970.0,0.03253174,0.044921875,0.113098145,-7.7480917,6.8702292,-1.4885496,2019-09-03 17:16:20,5.0
971.0,0.03277588,0.04840088,0.12176514,-4.3053436,2.7404580000000003,-2.3511450000000003,2019-09-03 17:16:20,5.0
972.0,0.035095215,0.04541015599999999,0.11987305,-9.908397,5.9160304,-2.1145039,2019-09-03 17:16:20,5.0
973.0,0.03253174,0.04534912,0.113098145,-5.778626,3.832061,-4.0305343,2019-09-03 17:16:20,5.0
974.0,0.032104492000000005,0.035949707000000004,0.11096191400000001,-9.480916,6.091603299999999,-3.3053436,2019-09-03 17:16:20,5.0
975.0,0.029785156,0.044677734000000004,0.11102295,-4.8625956,5.5801525000000005,-3.1526718,2019-09-03 17:16:20,5.0
976.0,0.030395507999999998,0.048950195,0.11816406,-9.7786255,2.5877862,-3.076336,2019-09-03 17:16:20,5.0
977.0,0.034118652,0.045532227,0.11853027,-2.6793892,0.26717559,-2.0229008,2019-09-03 17:16:20,5.0
978.0,0.034484863,0.04650879,0.10595703,3.3587787000000002,0.8091603,-4.6106873,2019-09-03 17:16:20,5.0
979.0,0.028930664,0.051879882999999995,0.11114502,4.1374044,-1.6717557,-6.5725193,2019-09-03 17:16:20,5.0
980.0,0.03967285,0.053466797,0.10736084,-3.1603053,1.5114504,-5.7022900000000005,2019-09-03 17:16:20,5.0
981.0,0.03967285,0.04321289,0.10723877,-15.0,7.374046000000001,-2.5648854,2019-09-03 17:16:20,5.0
982.0,0.026000977,0.04425049,0.10510254,-10.679389,9.343511999999999,-0.86259544,2019-09-03 17:16:20,5.0
983.0,0.034301757999999995,0.049743652,0.11791992,-14.106871,14.679389000000002,0.15267175,2019-09-03 17:16:20,5.0
984.0,0.027770996000000003,0.047302246,0.12475586,-13.38168,16.244274,2.3435113,2019-09-03 17:16:20,5.0
985.0,0.023376465,0.04711914,0.13165283,-1.0534351,13.267176000000001,1.6335878000000001,2019-09-03 17:16:20,5.0
986.0,0.03668213,0.045898438,0.12780762,-15.305344,2.6488549999999997,2.5114503,2019-09-03 17:16:20,5.0
987.0,0.030822753999999997,0.031677246,0.11529541,-0.48091602,-4.7175574000000005,0.32824427,2019-09-03 17:16:20,5.0
988.0,0.034484863,0.048583984000000004,0.11633301,9.702291,-7.5267177,-1.4580153,2019-09-03 17:16:20,5.0
989.0,0.037597656,0.04345703,0.109313965,-0.36641222,-3.8244274,-2.9923662999999996,2019-09-03 17:16:20,5.0
990.0,0.047546387,0.03668213,0.10205078,-4.9923663000000005,-2.7557251,-4.9541984,2019-09-03 17:16:20,5.0
991.0,0.032043457000000004,0.053710938,0.122558594,6.0458016,1.5648855,-6.2519083,2019-09-03 17:16:20,5.0
992.0,0.02557373,0.061828613,0.12652588,-12.679389,-4.984732599999999,0.31297709999999995,2019-09-03 17:16:20,5.0
993.0,0.031677246,0.05657959,0.13519287,-16.160304999999997,-9.519084,7.1984735,2019-09-03 17:16:20,5.0
994.0,-0.021850586,0.05432129,0.14221191,-11.877863,-10.557252,6.0,2019-09-03 17:16:20,5.0
995.0,0.0012817383,0.04736328,0.12652588,-1.6946564999999998,-36.458015,21.015266,2019-09-03 17:16:20,5.0
996.0,-0.0014038085999999999,0.03967285,0.12298584,0.99236643,-38.351147,18.259542,2019-09-03 17:16:20,5.0
997.0,-0.002380371,0.02709961,0.12377930000000001,1.5038168,-48.473279999999995,19.38168,2019-09-03 17:16:20,5.0
998.0,0.014099121000000001,0.018737793,0.12359619,10.198473,-59.78626,3.3129769999999996,2019-09-03 17:16:20,5.0
999.0,0.039489746,0.018493652,0.12719727,-10.435115,-60.091602,-19.89313,2019-09-03 17:16:20,5.0
1000.0,0.03692627,0.016845703,0.11462402,-34.007633,-63.427482999999995,-44.015266,2019-09-03 17:16:20,5.0
1001.0,0.043518065999999994,0.015686035,0.11157226599999999,-13.458015,-70.40458000000001,-66.458015,2019-09-03 17:16:20,5.0
1002.0,0.051513672,0.029846191,0.10424805,-34.648853,-70.53435,-79.145035,2019-09-03 17:16:20,5.0
1003.0,0.059692382999999995,0.04473877,0.10040283,-67.51908,-69.15267,-90.52672,2019-09-03 17:16:20,5.0
1004.0,0.06915283,0.047912598,0.08703613,-82.65649,-67.30534,-100.67939,2019-09-03 17:16:21,5.0
1005.0,0.07757568,0.054016113,0.08245849599999999,-100.824425,-58.343509999999995,-107.29771000000001,2019-09-03 17:16:21,5.0
1006.0,0.07983398400000001,0.060668945,0.07696533,-106.0687,-51.335876,-112.25191000000001,2019-09-03 17:16:21,5.0
1007.0,0.06799316400000001,0.079589844,0.06579589999999999,-115.03053,-41.74046,-107.0,2019-09-03 17:16:21,5.0
1008.0,0.07366943,0.07073974599999999,0.07019043,-100.66412,-29.198473,-97.92367,2019-09-03 17:16:21,5.0
1009.0,0.07781982400000001,0.06829834,0.07171631,-46.343509999999995,-26.57252,-87.53435,2019-09-03 17:16:21,5.0
1010.0,0.07318115,0.09295654,0.070495605,-9.519084,-20.877863,-70.29008,2019-09-03 17:16:21,5.0
1011.0,0.06970215,0.09460449,0.0690918,-6.4580154,-7.969465700000001,-47.801525,2019-09-03 17:16:21,5.0
1012.0,0.07116699,0.08117676,0.07196045,-7.1221375,5.4198474999999995,-27.793894,2019-09-03 17:16:21,5.0
1013.0,0.07183838,0.07287598,0.07989502,0.2519084,14.137404,-14.938931,2019-09-03 17:16:21,5.0
1014.0,0.06604004,0.06237793,0.08941650400000001,8.145039,19.122137,-7.1755724,2019-09-03 17:16:21,5.0
1015.0,0.064331055,0.062316895,0.10876465,8.297709,12.824428,-4.6106873,2019-09-03 17:16:21,5.0
1016.0,0.06866455,0.08148193,0.12121582,-12.374044999999999,0.740458,7.038167999999999,2019-09-03 17:16:21,5.0
1017.0,0.074401855,0.058044434000000006,0.09692383,-32.900764,1.6564884999999998,4.076336,2019-09-03 17:16:21,5.0
1018.0,0.06329346,0.042785645,0.09057617,-41.0229,3.648855,7.160305499999999,2019-09-03 17:16:21,5.0
1019.0,0.07263183599999999,0.045288086,0.10968017599999999,-22.297710000000002,9.045800999999999,6.0839696,2019-09-03 17:16:21,5.0
1020.0,0.07916260000000001,0.052001953,0.10998535,-15.839695,9.244275,7.59542,2019-09-03 17:16:21,5.0
1021.0,0.07043457,0.041931152,0.09790039,-37.15267,17.435114000000002,-1.6870228999999999,2019-09-03 17:16:21,5.0
1022.0,0.057250977,0.032165527,0.091918945,-18.259542,10.290076,-6.0458016,2019-09-03 17:16:21,5.0
1023.0,0.059265137,0.052612305,0.10253906,-1.8091604,2.0992367,-8.709924,2019-09-03 17:16:21,5.0
1024.0,0.053527832000000004,0.053771973,0.10052489999999999,-14.816792999999999,2.6946564,-8.038167999999999,2019-09-03 17:16:21,5.0
1025.0,0.051940917999999996,0.045288086,0.09539795,-7.923664,-0.9465648999999999,-9.381680000000001,2019-09-03 17:16:21,5.0
1026.0,0.05657959,0.029968262000000002,0.10534668,-2.7633588,-9.419847500000001,-9.503817,2019-09-03 17:16:21,5.0
1027.0,0.06201172,0.03326416,0.105529785,30.80916,-12.854961,-5.259542,2019-09-03 17:16:21,5.0
1028.0,0.08605957,0.0637207,0.10113525400000001,39.580154,-9.687023,13.954199,2019-09-03 17:16:21,5.0
1029.0,0.08514404,0.058898926,0.087768555,28.496183000000002,11.832061,14.977098999999999,2019-09-03 17:16:21,5.0
1030.0,0.06616211,0.06085205,0.081848145,27.473282,20.519083,27.389313,2019-09-03 17:16:21,5.0
1031.0,0.06335449,0.043029785,0.09277344,47.297709999999995,29.480916999999998,16.526718,2019-09-03 17:16:21,5.0
1032.0,0.056518555,0.05505371,0.11340332,42.15267,24.312977,19.320610000000002,2019-09-03 17:16:21,5.0
1033.0,0.061584473,0.041931152,0.11444092,9.083969,31.328245000000003,28.366413,2019-09-03 17:16:21,5.0
1034.0,0.05340576,0.044555664,0.09552002,-1.1908396,34.091602,32.030533,2019-09-03 17:16:21,5.0
1035.0,0.04119873,0.033996582000000004,0.09185791,21.603054,28.335878000000005,24.473282,2019-09-03 17:16:21,5.0
1036.0,0.059326172,0.0647583,0.09259033,26.954199,11.488549,15.656488000000001,2019-09-03 17:16:21,5.0
1037.0,0.07373047,0.06414795,0.09979248,37.46565,7.6870227,3.7633588,2019-09-03 17:16:21,5.0
1038.0,0.06695557,0.04925537,0.08013916,47.74046,3.038168,-3.7633588,2019-09-03 17:16:21,5.0
1039.0,0.07299805,0.07452392599999999,0.07507324,66.37405,-4.9770994,-6.3893127,2019-09-03 17:16:22,5.0
1040.0,0.07775879,0.08831787,0.08154297,47.816795,-6.4961834000000005,-7.0534353,2019-09-03 17:16:22,5.0
1041.0,0.07452392599999999,0.06799316400000001,0.08453369,-4.6870227,10.534351,-8.114504,2019-09-03 17:16:22,5.0
1042.0,0.059631348,0.047973632999999995,0.087890625,-3.7557251000000003,19.91603,-10.824428,2019-09-03 17:16:22,5.0
1043.0,0.056030273,0.05224609400000001,0.08886719,34.633587,-1.3664121999999999,-9.633588,2019-09-03 17:16:22,5.0
1044.0,0.06311035,0.070251465,0.08288574,44.206109999999995,-5.2442746,-10.404580000000001,2019-09-03 17:16:22,5.0
1045.0,0.06103515599999999,0.07696533,0.08062744,40.305344,0.32061067,-6.9923663000000005,2019-09-03 17:16:22,5.0
1046.0,0.06335449,0.06964111,0.07714844,27.786259,3.6335877999999995,-4.89313,2019-09-03 17:16:22,5.0
1047.0,0.06518555,0.07592773400000001,0.08032226599999999,14.625955,7.885496000000001,-4.9923663000000005,2019-09-03 17:16:22,5.0
1048.0,0.05480957,0.074035645,0.079956055,17.595419,10.290076,-4.557252,2019-09-03 17:16:22,5.0
1049.0,0.06463623,0.082214355,0.07836914,1.4198473999999999,7.152672,-4.671755999999999,2019-09-03 17:16:22,5.0
1050.0,0.064575195,0.07891846,0.07867432,5.015267400000001,10.534351,-3.3816792999999996,2019-09-03 17:16:22,5.0
1051.0,0.06347656,0.08215332,0.068359375,9.442748,7.10687,-3.9847328999999996,2019-09-03 17:16:22,5.0
1052.0,0.05908203,0.07922363,0.082092285,8.610686999999999,6.923664,-3.5877862,2019-09-03 17:16:22,5.0
1053.0,0.05670166,0.07977295,0.07135010000000001,9.458015,6.015267400000001,-5.4503818,2019-09-03 17:16:22,5.0
1054.0,0.05224609400000001,0.08270264,0.0703125,-0.66412216,1.6564884999999998,-3.3129769999999996,2019-09-03 17:16:22,5.0
1055.0,0.06896973,0.08239746,0.07531738,1.7709924,-1.2137405,-3.923664,2019-09-03 17:16:22,5.0
1056.0,0.07244873,0.07757568,0.07269287,1.091603,1.4732825,-6.190840000000001,2019-09-03 17:16:22,5.0
1057.0,0.07000732400000001,0.08361816400000001,0.06896973,-3.6870230000000004,3.7862597,-4.6412214999999994,2019-09-03 17:16:22,5.0
1058.0,0.06915283,0.08648682,0.071777344,-7.625953999999999,6.816794,-5.2061067,2019-09-03 17:16:22,5.0
1059.0,0.06274414,0.06933594,0.07519531,-5.412214,4.9770994,-4.10687,2019-09-03 17:16:22,5.0
1060.0,0.07080078,0.078308105,0.07409668,1.2290076,2.6412212999999998,-4.633588,2019-09-03 17:16:22,5.0
1061.0,0.07220459,0.07904053,0.06713867,7.3893127000000005,2.923664,-4.5114503,2019-09-03 17:16:22,5.0
1062.0,0.062683105,0.09094238,0.06964111,-5.809159999999999,4.7175574000000005,-2.9541984,2019-09-03 17:16:22,5.0
1063.0,0.06292724599999999,0.07965088,0.06701660000000001,-9.2595415,3.465649,-1.4122137,2019-09-03 17:16:22,5.0
1064.0,0.061767578,0.07360839999999999,0.06939697,-12.969465,7.076336,-2.9847328999999996,2019-09-03 17:16:22,5.0
1065.0,0.061462402,0.08117676,0.07263183599999999,-0.24427481,-0.17557251,-2.3511450000000003,2019-09-03 17:16:22,5.0
1066.0,0.055358887,0.07910156,0.07067871,-7.076336,4.0076336999999995,-4.7557254,2019-09-03 17:16:22,5.0
1067.0,0.06878662,0.07751465,0.06903076,-3.1068702,2.6793892,-2.5267177000000003,2019-09-03 17:16:22,5.0
1068.0,0.06994629,0.08068848,0.07159424,-0.60305345,5.2137402999999996,-0.3740458,2019-09-03 17:16:22,5.0
1069.0,0.06665039,0.08239746,0.06719971,-7.6793895,6.015267400000001,-3.1908397999999996,2019-09-03 17:16:22,5.0
1070.0,0.061828613,0.07952881,0.07452392599999999,-3.5572519999999996,7.3206105,-3.6259542000000002,2019-09-03 17:16:22,5.0
1071.0,0.06671142599999999,0.08648682,0.06469726599999999,-7.0,8.564885,-3.5801528,2019-09-03 17:16:22,5.0
1072.0,0.06530762,0.08935547,0.07470703,-14.40458,7.5038165999999995,-1.7862595000000001,2019-09-03 17:16:22,5.0
1073.0,0.05517578,0.08251953,0.07183838,-10.977099,5.4580154,-3.2748091,2019-09-03 17:16:22,5.0
1074.0,0.06707764,0.07672119,0.0793457,-10.106871,3.4732822999999997,-3.1755726,2019-09-03 17:16:23,5.0
1075.0,0.057434082000000004,0.07836914,0.07708739999999999,-4.7175574000000005,1.5419847,-2.6793892,2019-09-03 17:16:23,5.0
1076.0,0.06585693,0.081848145,0.07385254,-7.862595599999999,5.9007635,-1.0076336,2019-09-03 17:16:23,5.0
1077.0,0.06774902,0.07611084,0.07714844,-6.0,5.40458,-3.3206108,2019-09-03 17:16:23,5.0
1078.0,0.06402588,0.08355713,0.07171631,-1.6793894,7.4885497,-4.9770994,2019-09-03 17:16:23,5.0
1079.0,0.06982422,0.083984375,0.0715332,-1.2442749,8.564885,-6.5343513,2019-09-03 17:16:23,5.0
1080.0,0.06341553,0.07971191400000001,0.07305908,-5.984732599999999,6.6412214999999994,-3.6870230000000004,2019-09-03 17:16:23,5.0
1081.0,0.06768799,0.07507324,0.07897949,-10.022901,8.152672,-3.2519082999999998,2019-09-03 17:16:23,5.0
1082.0,0.06439209,0.0847168,0.0715332,-2.8091602000000004,4.8702292,-4.3053436,2019-09-03 17:16:23,5.0
1083.0,0.058288574,0.08319092,0.07318115,-1.0229008,9.152672,-2.1145039,2019-09-03 17:16:23,5.0
1084.0,0.057922363,0.08544922,0.07232666,-10.083969,8.061069,-1.9541985,2019-09-03 17:16:23,5.0
1085.0,0.06420898400000001,0.08404541,0.0690918,-9.580152499999999,5.557252,-4.2442746,2019-09-03 17:16:23,5.0
1086.0,0.06469726599999999,0.08306885,0.07391357400000001,-7.2671757,8.580152499999999,-5.473282299999999,2019-09-03 17:16:23,5.0
1087.0,0.053466797,0.07989502,0.07208252,-21.740458,4.7251905999999995,-3.9541983999999997,2019-09-03 17:16:23,5.0
1088.0,0.06866455,0.07232666,0.06524658,-20.045801,7.7862597000000004,-2.70229,2019-09-03 17:16:23,5.0
1089.0,0.058166504,0.072387695,0.06958008,1.0763359,4.190840000000001,-5.4503818,2019-09-03 17:16:23,5.0
1090.0,0.06762695,0.07983398400000001,0.07165527,0.9847328000000002,5.908396700000001,-3.1221373,2019-09-03 17:16:23,5.0
1091.0,0.06610107400000001,0.077941895,0.07086182,-4.8702292,8.618319999999999,-4.656488400000001,2019-09-03 17:16:23,5.0
1092.0,0.07116699,0.08325195,0.07391357400000001,-9.450381,6.671755999999999,-3.534351,2019-09-03 17:16:23,5.0
1093.0,0.06298828,0.07446289,0.07098389,-13.610686999999999,5.6106873,-3.8778627,2019-09-03 17:16:23,5.0
1094.0,0.05859375,0.07659912,0.07678223,-0.030534351,5.3893127,-2.7175572,2019-09-03 17:16:23,5.0
1095.0,0.06329346,0.07904053,0.06951904,-8.335877,7.4351144,-3.221374,2019-09-03 17:16:23,5.0
1096.0,0.06274414,0.07421875,0.079589844,-6.1374044,4.7480917,-2.2595419999999997,2019-09-03 17:16:23,5.0
1097.0,0.06390381,0.09082031,0.07098389,-2.4351146,5.015267400000001,-2.7633588,2019-09-03 17:16:23,5.0
1098.0,0.06878662,0.08319092,0.072753906,-15.419847500000001,7.625953999999999,-1.2824427,2019-09-03 17:16:23,5.0
1099.0,0.06188965,0.079956055,0.06854248,-22.954199,10.229008,-1.6641221000000002,2019-09-03 17:16:23,5.0
1100.0,0.0501709,0.08764648400000001,0.077941895,-17.801527,11.488549,-7.8778625,2019-09-03 17:16:23,5.0
1101.0,0.06292724599999999,0.078186035,0.07269287,-15.549619,1.8167938999999997,0.48854962,2019-09-03 17:16:23,5.0
1102.0,0.0647583,0.07501221,0.07537842,-7.9770994,8.290076,-0.8091603,2019-09-03 17:16:23,5.0
1103.0,0.06860351599999999,0.08099365,0.07684326,-9.297709,4.221374,-3.1984732000000005,2019-09-03 17:16:23,5.0
1104.0,0.06701660000000001,0.07781982400000001,0.07208252,-4.0229006,6.1221375,-0.71755725,2019-09-03 17:16:23,5.0
1105.0,0.06408691400000001,0.08001709,0.07519531,-2.0610688,4.396946400000001,-1.0839695,2019-09-03 17:16:23,5.0
1106.0,0.06402588,0.08123779,0.078063965,-11.488549,5.89313,-0.9312976999999999,2019-09-03 17:16:23,5.0
1107.0,0.0690918,0.07421875,0.07635498,-7.656488400000001,9.229008,-2.3816792999999996,2019-09-03 17:16:24,5.0
1108.0,0.063964844,0.07647705,0.078186035,-7.221374000000001,6.1603055,-2.4580152,2019-09-03 17:16:24,5.0
1109.0,0.058410645,0.081970215,0.07678223,-4.0839696000000005,6.8015265,-2.0839694,2019-09-03 17:16:24,5.0
1110.0,0.06701660000000001,0.08258057,0.07293701,-1.70229,5.8778625,-1.9083970000000001,2019-09-03 17:16:24,5.0
1111.0,0.06451416,0.07849121,0.06726074,-8.076336,6.4656487,-0.8702290000000001,2019-09-03 17:16:24,5.0
1112.0,0.06799316400000001,0.07653808599999999,0.072265625,-13.053435,7.0076336999999995,-2.129771,2019-09-03 17:16:24,5.0
1113.0,0.07086182,0.07141113,0.074279785,-2.4732822999999997,2.7404580000000003,-2.8778627,2019-09-03 17:16:24,5.0
1114.0,0.057922363,0.07733154,0.06988525400000001,-0.9389313,2.2824428,-5.5725193,2019-09-03 17:16:24,5.0
1115.0,0.059387207000000004,0.08013916,0.07159424,-6.763358599999999,1.6335878000000001,-3.6793892,2019-09-03 17:16:24,5.0
1116.0,0.062683105,0.08325195,0.072753906,-3.3969467000000004,4.519083999999999,-6.190840000000001,2019-09-03 17:16:24,5.0
1117.0,0.06286621,0.08435058599999999,0.07592773400000001,-7.557252,3.648855,-4.0839696000000005,2019-09-03 17:16:24,5.0
1118.0,0.06390381,0.08276367,0.0715332,-2.3053436,7.3664119999999995,-2.961832,2019-09-03 17:16:24,5.0
1119.0,0.059753417999999996,0.08459473,0.0703125,-6.8320612999999994,10.412213000000001,-4.1374044,2019-09-03 17:16:24,5.0
1120.0,0.058898926,0.07781982400000001,0.07092285,-8.862596,6.366412,-1.5954198999999998,2019-09-03 17:16:24,5.0
1121.0,0.06793213,0.07482910000000001,0.07360839999999999,-4.6183205,8.0992365,-2.167939,2019-09-03 17:16:24,5.0
1122.0,0.053588867000000005,0.07635498,0.072753906,4.2671757,6.89313,-2.3969467,2019-09-03 17:16:24,5.0
1123.0,0.06311035,0.08453369,0.07196045,-5.1603055,8.2213745,-2.3358779999999997,2019-09-03 17:16:24,5.0
1124.0,0.06311035,0.08325195,0.07916260000000001,-8.412213000000001,8.526717,-2.9312978,2019-09-03 17:16:24,5.0
1125.0,0.06365967,0.08312988,0.07299805,-6.1221375,5.923664,-5.183206,2019-09-03 17:16:24,5.0
1126.0,0.05596924,0.07965088,0.0758667,-12.038167999999999,4.8015265,-6.0229006,2019-09-03 17:16:24,5.0
1127.0,0.059204099999999996,0.08099365,0.07263183599999999,-7.931298,1.6259542,-4.9541984,2019-09-03 17:16:24,5.0
1128.0,0.06488037,0.07696533,0.07348633,-5.7938933,2.9694657,-5.2748094000000005,2019-09-03 17:16:24,5.0
1129.0,0.061401367000000005,0.08319092,0.07476807,-6.366412,5.8320612999999994,-4.740458,2019-09-03 17:16:24,5.0
1130.0,0.06213379,0.08148193,0.06628418,-5.4351144,9.702291,-2.9312978,2019-09-03 17:16:24,5.0
1131.0,0.06567383,0.08111572,0.07342529,-11.167939,7.290076299999999,-1.259542,2019-09-03 17:16:24,5.0
1132.0,0.059753417999999996,0.08068848,0.06768799,-7.1755724,5.236641400000001,-3.5877862,2019-09-03 17:16:24,5.0
1133.0,0.06701660000000001,0.07708739999999999,0.06976318,2.7633588,6.068702,-2.389313,2019-09-03 17:16:24,5.0
1134.0,0.060302734000000004,0.07836914,0.070251465,-7.1221375,6.961832000000001,-1.5801526000000001,2019-09-03 17:16:24,5.0
1135.0,0.06665039,0.08105469,0.07122803,-9.0992365,5.374046,-2.0305343000000002,2019-09-03 17:16:24,5.0
1136.0,0.06329346,0.07940674,0.07470703,-9.351144999999999,7.8015265,-1.4427481000000002,2019-09-03 17:16:24,5.0
1137.0,0.072143555,0.08282471,0.07537842,-2.5038167999999996,4.1755724,-1.8625953999999998,2019-09-03 17:16:24,5.0
1138.0,0.06701660000000001,0.07519531,0.07116699,-9.19084,6.1297708,-2.5648854,2019-09-03 17:16:24,5.0
1139.0,0.06311035,0.08251953,0.07299805,-7.152672,3.1221373,-2.389313,2019-09-03 17:16:24,5.0
1140.0,0.06347656,0.076660156,0.07000732400000001,-15.458015,9.198473,-2.9312978,2019-09-03 17:16:24,5.0
1141.0,0.07055664,0.08343506,0.07421875,-7.3053436000000005,4.183206,-3.4351146,2019-09-03 17:16:24,5.0
1142.0,0.06970215,0.07714844,0.07659912,-4.3511453,5.114504,-4.4580154,2019-09-03 17:16:24,5.0
1143.0,0.060424805,0.08435058599999999,0.07452392599999999,-7.3893127000000005,6.2290077,-3.832061,2019-09-03 17:16:24,5.0
1144.0,0.061523438,0.0881958,0.070129395,-5.923664,10.167939,-3.2290077,2019-09-03 17:16:25,5.0
1145.0,0.061950684000000006,0.07611084,0.070129395,-11.648855000000001,8.9007635,-1.8091604,2019-09-03 17:16:25,5.0
1146.0,0.06726074,0.08325195,0.06921387,-9.267176,3.8931297999999996,-1.8625953999999998,2019-09-03 17:16:25,5.0
1147.0,0.06854248,0.08148193,0.07653808599999999,-0.45038167,7.10687,-3.0076337000000004,2019-09-03 17:16:25,5.0
1148.0,0.06762695,0.07733154,0.07421875,-0.60305345,5.091603299999999,-0.97709924,2019-09-03 17:16:25,5.0
1149.0,0.06542969,0.08264160000000001,0.07354736,-7.4198475,5.6793895,-1.2671756,2019-09-03 17:16:25,5.0
1150.0,0.06237793,0.08093262,0.06988525400000001,-8.312977,4.526717700000001,-3.129771,2019-09-03 17:16:25,5.0
1151.0,0.06329346,0.07647705,0.06628418,-9.015267,5.091603299999999,-3.4427480000000004,2019-09-03 17:16:25,5.0
1152.0,0.06732178,0.084106445,0.07653808599999999,-6.923664,6.4503818,-4.10687,2019-09-03 17:16:25,5.0
1153.0,0.061401367000000005,0.08508301,0.07116699,-8.824428,7.1984735,-2.6030533,2019-09-03 17:16:25,5.0
1154.0,0.06121826,0.07928467,0.06921387,-10.961832000000001,6.2671757,-1.7633588,2019-09-03 17:16:25,5.0
1155.0,0.06732178,0.08538818,0.07556152,-12.893129,6.4503818,-2.2824428,2019-09-03 17:16:25,5.0
1156.0,0.06427002,0.081970215,0.07354736,-9.2595415,9.076336,-2.7099237,2019-09-03 17:16:25,5.0
1157.0,0.06201172,0.0758667,0.070251465,-9.541985,9.977099,-3.183206,2019-09-03 17:16:25,5.0
1158.0,0.06652832,0.08428955,0.07379150400000001,-3.1374047000000003,4.984732599999999,-2.1526718,2019-09-03 17:16:25,5.0
1159.0,0.06506348,0.08099365,0.071777344,-4.5648856,5.526717700000001,-1.3053435,2019-09-03 17:16:25,5.0
1160.0,0.06707764,0.07495117,0.07476807,0.18320611,7.534351299999999,-2.1221373,2019-09-03 17:16:25,5.0
1161.0,0.060424805,0.081970215,0.06689453,-2.534351,6.5496182,-3.129771,2019-09-03 17:16:25,5.0
1162.0,0.06011963,0.078063965,0.07324219,-6.259542,7.0610685,-3.2900763,2019-09-03 17:16:25,5.0
1163.0,0.06408691400000001,0.081848145,0.07220459,-5.5419846,4.480916000000001,-3.351145,2019-09-03 17:16:25,5.0
1164.0,0.06573486,0.08251953,0.07073974599999999,-2.7328243,4.4885497,-4.053435299999999,2019-09-03 17:16:25,5.0
1165.0,0.06579589999999999,0.091918945,0.07055664,-11.015267,5.6870227,-2.4961832000000004,2019-09-03 17:16:25,5.0
1166.0,0.06311035,0.07855224599999999,0.07122803,-8.824428,5.190840000000001,-3.793893,2019-09-03 17:16:25,5.0
1167.0,0.07281494,0.07476807,0.06915283,-2.8549618999999997,5.4656487,-2.206107,2019-09-03 17:16:25,5.0
1168.0,0.061706542999999996,0.074279785,0.06481933599999999,-0.07633588,5.343511599999999,-4.89313,2019-09-03 17:16:25,5.0
1169.0,0.06970215,0.07843017599999999,0.06982422,-5.3511453,4.1374044,-2.3206108,2019-09-03 17:16:25,5.0
1170.0,0.055786132999999995,0.08001709,0.07397461,-7.396946400000001,7.2519083,-3.832061,2019-09-03 17:16:25,5.0
1171.0,0.06567383,0.08502197,0.06793213,-10.152672,6.038168,-3.8091602,2019-09-03 17:16:25,5.0
1172.0,0.06555176,0.08026123,0.07061767599999999,-8.625955000000001,7.0839696,-2.9694657,2019-09-03 17:16:25,5.0
1173.0,0.061279297,0.08483887,0.06756592,-9.152672,6.328244000000001,-2.6641220000000003,2019-09-03 17:16:25,5.0
1174.0,0.06585693,0.07684326,0.07653808599999999,-5.89313,5.221374,-2.7251909,2019-09-03 17:16:25,5.0
1175.0,0.0647583,0.08172607400000001,0.06872558599999999,-11.2595415,5.8015265,-2.2671757,2019-09-03 17:16:25,5.0
1176.0,0.06756592,0.080566406,0.07775879,-12.854961,5.3816795,-3.7251909,2019-09-03 17:16:25,5.0
1177.0,0.06402588,0.07885742,0.071777344,-3.2671757,4.7022900000000005,-1.648855,2019-09-03 17:16:25,5.0
1178.0,0.06500244,0.07922363,0.07330322,-11.564885,8.564885,-2.1450381000000003,2019-09-03 17:16:26,5.0
1179.0,0.07098389,0.08123779,0.07287598,1.389313,-2.8396947,-3.5038167999999996,2019-09-03 17:16:26,5.0
1180.0,0.055908203,0.08074951,0.07592773400000001,-14.450381,16.534351,-4.984732599999999,2019-09-03 17:16:26,5.0
1181.0,0.056884765999999996,0.08093262,0.06750488,-11.717557000000001,3.40458,-1.6946564999999998,2019-09-03 17:16:26,5.0
1182.0,0.06005859400000001,0.08343506,0.06988525400000001,-6.4274807,6.671755999999999,-4.343511599999999,2019-09-03 17:16:26,5.0
1183.0,0.06707764,0.08044433599999999,0.06817627,-5.4885497,4.656488400000001,-4.2900763,2019-09-03 17:16:26,5.0
1184.0,0.06738281,0.08728027,0.06842041,-3.129771,7.5725193,-4.412214,2019-09-03 17:16:26,5.0
1185.0,0.06109619,0.08190918,0.074279785,-9.610686999999999,8.267176,-3.2595419999999997,2019-09-03 17:16:26,5.0
1186.0,0.06060791,0.07495117,0.07556152,-6.2290077,6.763358599999999,-3.6946564,2019-09-03 17:16:26,5.0
1187.0,0.060302734000000004,0.08081055,0.06640625,6.931298,5.8702292,-7.236641400000001,2019-09-03 17:16:26,5.0
1188.0,0.05645752,0.09027099599999999,0.07763672,6.3129773,5.1297708,-13.801526999999998,2019-09-03 17:16:26,5.0
1189.0,0.06689453,0.08087158,0.06390381,17.541985,6.2748094000000005,-12.206107000000001,2019-09-03 17:16:26,5.0
1190.0,0.06707764,0.09692383,0.060668945,11.198473,4.5496182,-14.129771,2019-09-03 17:16:26,5.0
1191.0,0.0637207,0.10467529,0.06024169999999999,-26.412214000000002,13.045800999999999,-16.198473,2019-09-03 17:16:26,5.0
1192.0,0.06213379,0.107543945,0.05706787,-93.83969,20.053434,-14.687023000000002,2019-09-03 17:16:26,5.0
1193.0,0.06286621,0.090026855,0.06408691400000001,-140.00763,25.06107,-11.030535,2019-09-03 17:16:26,5.0
1194.0,0.050048828,0.05670166,0.09027099599999999,-121.20611000000001,11.793892999999999,-13.007633,2019-09-03 17:16:26,5.0
1195.0,0.059631348,0.06427002,0.09417724599999999,-99.24428,15.351145,-16.213741,2019-09-03 17:16:26,5.0
1196.0,0.057983400000000004,0.061706542999999996,0.0949707,-89.72519,17.526718,-7.40458,2019-09-03 17:16:26,5.0
1197.0,0.06365967,0.06817627,0.08215332,-70.53435,11.893129,0.55725193,2019-09-03 17:16:26,5.0
1198.0,0.051513672,0.059448242000000005,0.09362793,-72.31298000000001,12.832061,5.5343513,2019-09-03 17:16:26,5.0
1199.0,0.06378174,0.06640625,0.08514404,-74.73283,14.030535,7.221374000000001,2019-09-03 17:16:26,5.0
1200.0,0.05267334,0.04748535,0.10125732400000001,-61.916030000000006,13.770992000000001,6.4961834000000005,2019-09-03 17:16:26,5.0
1201.0,0.051391599999999996,0.03741455,0.10668945,-43.328243,9.022901,2.2290077,2019-09-03 17:16:26,5.0
1202.0,0.053100586,0.046325684000000006,0.10504150400000001,-34.648853,7.0458016,-0.99236643,2019-09-03 17:16:26,5.0
1203.0,0.058166504,0.053588867000000005,0.10253906,-27.022902000000002,7.70229,-0.39694658,2019-09-03 17:16:26,5.0
1204.0,0.06286621,0.04437256,0.10180664,-28.29771,5.4351144,-1.4503816,2019-09-03 17:16:26,5.0
1205.0,0.05206299,0.04864502,0.10308838,-24.206106,4.7251905999999995,-3.0610687999999997,2019-09-03 17:16:26,5.0
1206.0,0.055786132999999995,0.04949951,0.11175537,-23.167938,4.9923663000000005,-1.9465648999999998,2019-09-03 17:16:26,5.0
1207.0,0.057861328,0.040405273,0.09399414,-13.442748000000002,5.9007635,-1.610687,2019-09-03 17:16:26,5.0
1208.0,0.059936523,0.040222167999999996,0.10516357400000001,-18.725191,6.969465700000001,-1.2366412,2019-09-03 17:16:26,5.0
1209.0,0.04937744,0.04437256,0.10656738,-19.244274,7.2824425999999995,-0.32824427,2019-09-03 17:16:26,5.0
1210.0,0.05731201,0.036376953,0.10406494,-20.183207,7.2824425999999995,0.73282444,2019-09-03 17:16:26,5.0
1211.0,0.05432129,0.041870117000000005,0.10412598,-18.022902,7.557252,-0.48091602,2019-09-03 17:16:26,5.0
1212.0,0.057495117000000005,0.039245605,0.107299805,-11.992367,6.9770994,-0.90076333,2019-09-03 17:16:26,5.0
1213.0,0.05529785,0.039611816,0.10650635,-7.7862597000000004,4.854962,-2.8015267999999995,2019-09-03 17:16:26,5.0
1214.0,0.059387207000000004,0.04473877,0.10430908,-7.0,4.1221375,-2.0610688,2019-09-03 17:16:26,5.0
1215.0,0.050231934000000006,0.03692627,0.10327148400000001,-14.740458499999999,6.6412214999999994,-1.3358778999999998,2019-09-03 17:16:26,5.0
1216.0,0.061950684000000006,0.0435791,0.10766601599999999,-7.4198475,5.740458,-2.6335877999999995,2019-09-03 17:16:27,5.0
1217.0,0.059753417999999996,0.036254882999999995,0.10675049,-7.740458,6.396946400000001,-2.091603,2019-09-03 17:16:27,5.0
1218.0,0.05694580000000001,0.04168701,0.10913086,-5.603053599999999,5.1221375,-3.3206108,2019-09-03 17:16:27,5.0
1219.0,0.059631348,0.036621094,0.11383057,-3.870229,5.2061067,-3.7328242999999994,2019-09-03 17:16:27,5.0
1220.0,0.0546875,0.035339355,0.10266113,-9.335877,5.2290077,-3.0610687999999997,2019-09-03 17:16:27,5.0
1221.0,0.06188965,0.04345703,0.10870361,-8.160305000000001,6.076336,-3.4274809999999998,2019-09-03 17:16:27,5.0
1222.0,0.05706787,0.035461426000000004,0.10723877,-9.977099,6.1755724,-2.7251909,2019-09-03 17:16:27,5.0
1223.0,0.05694580000000001,0.034179688,0.107543945,-10.709924,7.4503818,-3.5725190000000002,2019-09-03 17:16:27,5.0
1224.0,0.06060791,0.045959473,0.10571289,-6.7557254,7.664122,-3.6717557999999997,2019-09-03 17:16:27,5.0
1225.0,0.058410645,0.039916992000000005,0.109436035,-6.8244276,7.206106699999999,-3.29771,2019-09-03 17:16:27,5.0
1226.0,0.059692382999999995,0.042175292999999996,0.10980224599999999,-11.541985,7.9389315,-3.5496182000000003,2019-09-03 17:16:27,5.0
1227.0,0.05999756,0.044799805,0.101745605,-4.763358599999999,6.068702,-3.2900763,2019-09-03 17:16:27,5.0
1228.0,0.054260254,0.042785645,0.09967041,-2.0992367,6.5419846,-4.9694657,2019-09-03 17:16:27,5.0
1229.0,0.06103515599999999,0.04034424,0.106933594,-1.9083970000000001,7.10687,-5.2824425999999995,2019-09-03 17:16:27,5.0
1230.0,0.055664062,0.046875,0.10913086,-3.6412212999999998,5.1221375,-2.8931298,2019-09-03 17:16:27,5.0
1231.0,0.06201172,0.047790527,0.09704589999999999,-10.206107000000001,6.1984735,-1.0839695,2019-09-03 17:16:27,5.0
1232.0,0.057617188,0.045043945,0.103027344,-15.122137,6.0305343,-1.4885496,2019-09-03 17:16:27,5.0
1233.0,0.061340332000000004,0.041259766,0.10058594,-6.8702292,5.9694657,-3.29771,2019-09-03 17:16:27,5.0
1234.0,0.05279541,0.040100098,0.10418701,-1.2442749,6.6870227,-5.9694657,2019-09-03 17:16:27,5.0
1235.0,0.057373047,0.039001465,0.109191895,2.5419848,6.6793895,-4.984732599999999,2019-09-03 17:16:27,5.0
1236.0,0.059387207000000004,0.044189453,0.10412598,2.6488549999999997,4.526717700000001,-4.2519083,2019-09-03 17:16:27,5.0
1237.0,0.05706787,0.047668457000000004,0.107421875,-2.9007633,5.7557254,-2.2824428,2019-09-03 17:16:27,5.0
1238.0,0.056274414,0.046569824,0.105407715,-6.6488547,5.633588,-2.0305343000000002,2019-09-03 17:16:27,5.0
1239.0,0.05731201,0.0390625,0.10357666,-9.854961,7.534351299999999,-4.0076336999999995,2019-09-03 17:16:27,5.0
1240.0,0.048461914,0.04119873,0.10375976599999999,-5.328244000000001,5.0305343,-2.206107,2019-09-03 17:16:27,5.0
1241.0,0.05810547,0.040771484,0.10491943,-5.557252,5.9007635,-1.9770991999999998,2019-09-03 17:16:27,5.0
1242.0,0.052978515999999996,0.046020507999999995,0.10321045,-8.0992365,7.0839696,-2.9389312000000003,2019-09-03 17:16:27,5.0
1243.0,0.06188965,0.042175292999999996,0.10223389,-4.4503818,5.9160304,-2.5801528,2019-09-03 17:16:27,5.0
1244.0,0.056884765999999996,0.04559326,0.10516357400000001,-4.526717700000001,6.335878,-3.221374,2019-09-03 17:16:27,5.0
1245.0,0.058898926,0.035339355,0.10491943,-8.770992,6.091603299999999,-3.3053436,2019-09-03 17:16:27,5.0
1246.0,0.055725098,0.041992188,0.10870361,-6.4656487,6.221374,-2.5496182000000003,2019-09-03 17:16:27,5.0
1247.0,0.05206299,0.04144287,0.101501465,-8.061069,6.7862597000000004,-3.59542,2019-09-03 17:16:27,5.0
1248.0,0.05694580000000001,0.043945312,0.10211182,-10.572519,5.8702292,-3.6183207000000004,2019-09-03 17:16:27,5.0
1249.0,0.059936523,0.042785645,0.10760498,-10.137404,5.374046,-2.6183207000000004,2019-09-03 17:16:27,5.0
1250.0,0.05493164,0.044311523,0.10595703,-5.3511453,5.8320612999999994,-3.4885497,2019-09-03 17:16:27,5.0
1251.0,0.05303955,0.043762207000000004,0.10449219,-2.5267177000000003,5.9770994,-4.4961834000000005,2019-09-03 17:16:27,5.0
1252.0,0.06311035,0.049743652,0.09899902,-3.2519082999999998,5.1679387000000006,-2.3587787000000002,2019-09-03 17:16:28,5.0
1253.0,0.057739257999999995,0.04888916,0.10418701,-5.2442746,6.4503818,-3.038168,2019-09-03 17:16:28,5.0
1254.0,0.05456543,0.041870117000000005,0.11218262,-5.6870227,5.480916000000001,-2.3053436,2019-09-03 17:16:28,5.0
1255.0,0.059448242000000005,0.04937744,0.10717773400000001,-6.0839696,5.9541984,-3.0992367,2019-09-03 17:16:28,5.0
1256.0,0.050109863,0.04260254,0.10626221,-10.541985,7.4274807,-2.6488549999999997,2019-09-03 17:16:28,5.0
1257.0,0.04534912,0.042175292999999996,0.09814453,-5.9770994,5.885496,-2.7404580000000003,2019-09-03 17:16:28,5.0
1258.0,0.0635376,0.04437256,0.10961914,-9.694656,7.1755724,-3.4198472,2019-09-03 17:16:28,5.0
