measurement,Acc_X,Acc_Y,Acc_Z,Gyr_X,Gyr_Y,Gyr_Z,Time(hh:mm:ss),Label
443.0,-0.15374756,-0.0015869141,0.0015869141,-32.251907,-58.61832,25.312977,2019-09-07 13:36:17,20.0
444.0,-0.14093018,-0.0021972656,0.0008544922000000001,-9.465649,-53.419846,29.709923,2019-09-07 13:36:17,20.0
445.0,-0.13439941,0.0038452148,0.0016479492000000002,1.8625953999999998,-45.687022999999996,35.51145,2019-09-07 13:36:17,20.0
446.0,-0.12359619,0.00048828125,0.0012817383,7.793893300000001,-39.450382,42.396946,2019-09-07 13:36:17,20.0
447.0,-0.11621094,0.007629394499999999,0.0013427734,2.5267177000000003,-33.809162,44.84733,2019-09-07 13:36:17,20.0
448.0,-0.12145996,0.013671875,0.009399414,-15.259541500000001,-31.32061,40.801525,2019-09-07 13:36:17,20.0
449.0,-0.12463379,0.0041503906,0.015563965,-48.91603,-27.374046000000003,28.984734000000003,2019-09-07 13:36:17,20.0
450.0,-0.109375,-0.005432129,0.012207031,-67.32825,-19.717558,9.725191,2019-09-07 13:36:17,20.0
451.0,-0.11151123,-0.007751465,0.0078125,-63.50382,-14.145039,-8.633588,2019-09-07 13:36:17,20.0
452.0,-0.11791992,-0.0095825195,0.0051879883,-37.610687,-4.4885497,-26.458015000000003,2019-09-07 13:36:17,20.0
453.0,-0.11651611,-0.013793945,0.004333496,1.3282443000000002,0.8396947,-35.458015,2019-09-07 13:36:17,20.0
454.0,-0.09967041,-0.009155273,0.019042969,40.587788,-0.21374045,-35.48855,2019-09-07 13:36:17,20.0
455.0,-0.09246826,-0.001159668,0.018127441,75.10687,12.229008,-32.14504,2019-09-07 13:36:17,20.0
456.0,-0.09796142599999999,0.010070800999999999,0.013000488000000001,84.23664000000001,39.541985,-30.503816999999998,2019-09-07 13:36:17,20.0
457.0,-0.11859131,0.028015137000000002,0.03137207,68.31298000000001,39.687022999999996,-31.732824,2019-09-07 13:36:17,20.0
458.0,-0.13018799,0.0390625,0.035339355,12.717557000000001,50.15267,-40.564884,2019-09-07 13:36:17,20.0
459.0,-0.1296997,0.03125,0.03845215,-25.42748,61.16794,-42.992367,2019-09-07 13:36:17,20.0
460.0,-0.1307373,0.035461426000000004,0.04345703,-42.374046,63.69465600000001,-40.06107,2019-09-07 13:36:17,20.0
461.0,-0.13409424,0.012512207,0.048461914,-46.53435,59.900764,-25.923664000000002,2019-09-07 13:36:17,20.0
462.0,-0.12738037,0.014770508,0.05291748,-10.305344,42.48855,-11.160305000000001,2019-09-07 13:36:17,20.0
463.0,-0.11785889,0.016174316,0.0423584,9.770992,27.274809,1.3587786,2019-09-07 13:36:17,20.0
464.0,-0.11529541,0.015991211,0.046020507999999995,21.244274,18.297710000000002,5.946564700000001,2019-09-07 13:36:17,20.0
465.0,-0.11389160000000002,0.011474608999999998,0.04675293,14.259541500000001,11.503817,8.419847500000001,2019-09-07 13:36:17,20.0
466.0,-0.11688232400000001,0.022705077999999997,0.039794922,5.1984735,9.725191,7.9923663000000005,2019-09-07 13:36:17,20.0
467.0,-0.10577392599999999,0.01965332,0.045166015999999996,-2.6641220000000003,11.9007635,5.068702,2019-09-07 13:36:17,20.0
468.0,-0.10510254,0.011047363000000001,0.041809082000000004,-15.030535,14.694656,4.412214,2019-09-07 13:36:17,20.0
469.0,-0.11126709,0.0052490233999999995,0.04248047,-24.61832,11.893129,4.328244000000001,2019-09-07 13:36:17,20.0
470.0,-0.09997558599999999,-0.00030517577999999995,0.035827637,-26.740458,5.0076336999999995,7.091603299999999,2019-09-07 13:36:17,20.0
471.0,-0.09686279,0.0015258789000000001,0.03564453,-16.648854999999998,1.2671756,6.4580154,2019-09-07 13:36:17,20.0
472.0,-0.10644531,0.00390625,0.036010742000000005,-9.206107000000001,-1.8854961,7.931298,2019-09-07 13:36:17,20.0
473.0,-0.11413574,0.0072631836,0.027526855,0.17557251,-9.053435,8.732824,2019-09-07 13:36:17,20.0
474.0,-0.10803223,-0.0007324219,0.03277588,11.282442999999999,-13.557251999999998,7.70229,2019-09-07 13:36:17,20.0
475.0,-0.10052489999999999,0.004760742,0.030639648,16.786259,-20.274809,8.763359,2019-09-07 13:36:17,20.0
476.0,-0.083496094,0.0056152343999999995,0.017150878999999997,9.656488000000001,-20.099237,13.038167999999999,2019-09-07 13:36:17,20.0
477.0,-0.11401367,-0.00024414062000000002,-0.0053710938,-1.1679389999999998,-4.0152674,13.732823999999999,2019-09-07 13:36:17,20.0
478.0,-0.15563965,-0.0014038085999999999,-0.0053100586,-11.419847500000001,-5.2442746,14.893129,2019-09-07 13:36:17,20.0
479.0,-0.18872070000000002,0.0018920898,-0.0064086914,-27.564885999999998,-33.297709999999995,9.534351,2019-09-07 13:36:18,20.0
480.0,-0.16925049,0.0028076171999999997,-0.004211426,-25.007633,-12.480916,-5.053435299999999,2019-09-07 13:36:18,20.0
481.0,-0.20574951,0.0107421875,-0.0107421875,-6.1984735,19.877863,-23.038168,2019-09-07 13:36:18,20.0
482.0,-0.19866943,0.010803223,-0.0016479492000000002,-2.5877862,30.244274,-36.480915,2019-09-07 13:36:18,20.0
483.0,-0.16070557,0.007629394499999999,0.0065307617,-0.49618322,61.51145,-51.08397,2019-09-07 13:36:18,20.0
484.0,-0.15911865,0.0026855469,0.0044555664,4.7251905999999995,77.61069,-57.938930000000006,2019-09-07 13:36:18,20.0
485.0,-0.13415527,0.005737304699999999,0.008422852,14.030535,72.099236,-56.81679499999999,2019-09-07 13:36:18,20.0
486.0,-0.115112305,0.003967285,0.0134887695,5.5648856,71.51145,-52.08397,2019-09-07 13:36:18,20.0
487.0,-0.09838867,-0.002746582,0.016052246000000003,0.39694658,64.496185,-46.045803,2019-09-07 13:36:18,20.0
488.0,-0.09039307,0.001159668,0.019104003999999997,5.816794,59.351147,-42.702290000000005,2019-09-07 13:36:18,20.0
489.0,-0.095825195,0.0026855469,0.024414062,18.984734,52.251907,-42.610687,2019-09-07 13:36:18,20.0
490.0,-0.09863281,0.005737304699999999,0.018554688,27.709923,34.343509999999995,-40.801525,2019-09-07 13:36:18,20.0
491.0,-0.103515625,0.0045166016,0.012512207,34.717556,21.351145000000002,-42.435116,2019-09-07 13:36:18,20.0
492.0,-0.09075928,0.014465332,0.009887695,41.190838,5.0076336999999995,-34.503820000000005,2019-09-07 13:36:18,20.0
493.0,-0.09686279,0.014099121000000001,0.009277344,49.412212,0.610687,-29.312977000000004,2019-09-07 13:36:18,20.0
494.0,-0.11224365,0.010559082,0.017944336,52.549618,-7.0076336999999995,-21.908398000000002,2019-09-07 13:36:18,20.0
495.0,-0.10101318,0.014465332,0.018127441,50.305344,-26.007633,-11.2213745,2019-09-07 13:36:18,20.0
496.0,-0.081848145,0.017089844,0.015686035,51.435116,-20.480917,-5.0992365,2019-09-07 13:36:18,20.0
497.0,-0.08331299,0.017028809,0.0126953125,41.587788,-9.343511999999999,-0.21374045,2019-09-07 13:36:18,20.0
498.0,-0.11395264,0.02532959,-0.012512207,33.435116,7.80916,3.0152671000000004,2019-09-07 13:36:18,20.0
499.0,-0.20953369,0.032104492000000005,0.0064697266000000005,6.923664,34.74046,-6.8702292,2019-09-07 13:36:18,20.0
500.0,-0.2322998,0.02532959,0.017700195,-50.480915,-12.137404,-6.480916000000001,2019-09-07 13:36:18,20.0
501.0,-0.16815186,0.016723633,0.019165039,-71.19084000000001,-6.0229006,0.89312977,2019-09-07 13:36:18,20.0
502.0,-0.21807861,0.005004883,-0.0031738281,-88.862595,27.374046000000003,16.755726,2019-09-07 13:36:18,20.0
503.0,-0.20947266,-0.010803223,0.0178833,-127.12213999999999,-25.885496,55.923664,2019-09-07 13:36:18,20.0
504.0,-0.14971924,-0.030334472999999997,0.01550293,-103.37405,-42.0,85.0,2019-09-07 13:36:18,20.0
505.0,-0.1317749,-0.018859863,0.009887695,-82.824425,-58.18320500000001,101.58015400000001,2019-09-07 13:36:18,20.0
506.0,-0.12512207,-0.011291503999999999,0.010314941,-59.793890000000005,-69.36641,97.42748,2019-09-07 13:36:18,20.0
507.0,-0.12762451,-0.015991211,0.008728027,-63.702290000000005,-84.00764000000001,84.41221999999999,2019-09-07 13:36:18,20.0
508.0,-0.10406494,-0.020385742,0.016479492,-45.427483,-86.28244000000001,74.43511,2019-09-07 13:36:18,20.0
509.0,-0.08856201,-0.008605957,0.02142334,-10.137404,-59.37404599999999,58.51145,2019-09-07 13:36:18,20.0
510.0,-0.08532715,-0.00012207031000000001,0.02368164,4.7709923,-35.068703,46.770992,2019-09-07 13:36:18,20.0
511.0,-0.06982422,0.0029296875,0.022277832,5.4885497,-13.503817000000002,38.450382,2019-09-07 13:36:18,20.0
512.0,-0.07849121,0.007446289,0.023620605,-22.450382,8.748092,27.503816999999998,2019-09-07 13:36:18,20.0
513.0,-0.0859375,0.0034179688000000002,0.020690918,-53.76336,31.770992,13.763359,2019-09-07 13:36:18,20.0
514.0,-0.09869385,0.008911133,0.018432617,-81.48855,40.603054,-0.9694656999999999,2019-09-07 13:36:18,20.0
515.0,-0.11126709,-0.0024414061999999998,0.020202637,-101.39695,38.08397,-14.572519,2019-09-07 13:36:19,20.0
516.0,-0.099731445,-0.005126953,0.017211914,-100.46565,30.099237,-22.51145,2019-09-07 13:36:19,20.0
517.0,-0.082092285,-0.016540527,0.011657715,-64.229004,23.664122,-23.595419,2019-09-07 13:36:19,20.0
518.0,-0.07904053,-0.0007324219,0.010070800999999999,-18.541985,14.427481,-18.687023,2019-09-07 13:36:19,20.0
519.0,-0.09075928,-0.009521484,-0.012756348,21.145039,10.595419999999999,-10.061069,2019-09-07 13:36:19,20.0
520.0,-0.13928223,-0.0036621094,-0.027404785,46.427483,36.473279999999995,-9.679389,2019-09-07 13:36:19,20.0
521.0,-0.215271,0.0032958984000000004,-0.0115356445,47.664124,6.664122,-17.816793,2019-09-07 13:36:19,20.0
522.0,-0.2322998,0.011108398,-0.010559082,25.190839999999998,-32.10687,-29.08397,2019-09-07 13:36:19,20.0
523.0,-0.2298584,0.012939453,-0.010314941,27.824427000000004,9.954199000000001,-50.862595,2019-09-07 13:36:19,20.0
524.0,-0.23040771,0.027404785,-0.0031738281,19.190839999999998,30.91603,-65.12977,2019-09-07 13:36:19,20.0
525.0,-0.18231201,0.012268066000000001,0.003967285,8.335877,40.908398,-62.587788,2019-09-07 13:36:19,20.0
526.0,-0.13323975,0.012268066000000001,0.015625,3.5496182000000003,50.366413,-48.793890000000005,2019-09-07 13:36:19,20.0
527.0,-0.09051514,0.004211426,0.016723633,-6.335878,59.30534399999999,-35.221375,2019-09-07 13:36:19,20.0
528.0,-0.080078125,-0.0029907227,0.021850586,0.40458015,68.57252,-25.152672,2019-09-07 13:36:19,20.0
529.0,-0.08264160000000001,-0.008300781,0.020690918,0.60305345,69.70992,-16.099237,2019-09-07 13:36:19,20.0
530.0,-0.09112549,-0.0028686523,0.016967773000000002,21.259542,57.69465600000001,-17.755726,2019-09-07 13:36:19,20.0
531.0,-0.09240723,0.0044555664,0.023742676,33.76336,46.15267,-25.89313,2019-09-07 13:36:19,20.0
532.0,-0.08660889,0.005859375,0.022705077999999997,43.435116,23.877863,-33.78626,2019-09-07 13:36:19,20.0
533.0,-0.07684326,0.004272461,0.015319824,58.85496,2.3587787000000002,-36.51145,2019-09-07 13:36:19,20.0
534.0,-0.07891846,0.010559082,-0.0007934570299999999,74.44275,-3.053435,-36.458015,2019-09-07 13:36:19,20.0
535.0,-0.115356445,0.012329102,-0.0022583008,78.31298000000001,-0.129771,-31.328245000000003,2019-09-07 13:36:19,20.0
536.0,-0.12988281,0.021728516,-0.0013427734,85.8855,-30.274809,-18.954199,2019-09-07 13:36:19,20.0
537.0,-0.09075928,0.009765625,0.0138549805,77.770996,-65.51908,-5.366412,2019-09-07 13:36:19,20.0
538.0,-0.06915283,0.010620117,0.016601562,80.229004,-33.419846,1.389313,2019-09-07 13:36:19,20.0
539.0,-0.10491943,0.009277344,-0.005126953,82.862595,7.5801525,4.3816795,2019-09-07 13:36:19,20.0
540.0,-0.20056152,0.019836426,-0.010803223,73.43511,31.496183000000002,0.48854962,2019-09-07 13:36:19,20.0
541.0,-0.24499512,0.024841309,0.016784668,26.076335999999998,10.282442999999999,-12.519084,2019-09-07 13:36:19,20.0
542.0,-0.17272949,0.039245605,0.03857422,-33.320609999999995,11.312977,-15.625955,2019-09-07 13:36:19,20.0
543.0,-0.21539307,0.022705077999999997,0.0087890625,-80.00764000000001,73.145035,-8.022901,2019-09-07 13:36:19,20.0
544.0,-0.23461914,-0.00579834,0.014160156,-136.83969,17.748089999999998,24.206106,2019-09-07 13:36:19,20.0
545.0,-0.16864014,-0.039001465,0.022277832,-134.22137,-7.603053599999999,62.343509999999995,2019-09-07 13:36:19,20.0
546.0,-0.12219238,-0.032165527,0.022033691,-89.64886,-38.564884,83.824425,2019-09-07 13:36:19,20.0
547.0,-0.10571289,-0.01928711,0.016601562,-34.618320000000004,-48.633587,89.0458,2019-09-07 13:36:19,20.0
548.0,-0.103637695,-0.024047852,0.018249512,-14.770992000000001,-56.045803,83.92367,2019-09-07 13:36:19,20.0
549.0,-0.06726074,-0.011352538999999998,0.028198242000000002,27.122137,-47.25954,58.0229,2019-09-07 13:36:20,20.0
550.0,-0.06060791,0.003540039,0.040161132999999995,16.832062,-23.656488,40.84733,2019-09-07 13:36:20,20.0
551.0,-0.060302734000000004,0.0061035156000000005,0.035949707000000004,-19.183207,-3.8931297999999996,26.625953999999997,2019-09-07 13:36:20,20.0
552.0,-0.06274414,0.00048828125,0.036010742000000005,-60.52672,17.167938,16.06107,2019-09-07 13:36:20,20.0
553.0,-0.07434082,-0.005004883,0.028686523,-92.00764000000001,33.870228000000004,2.1145039,2019-09-07 13:36:20,20.0
554.0,-0.08770752,-0.0016479492000000002,0.033935547,-112.83968999999999,37.595420000000004,-11.343511999999999,2019-09-07 13:36:20,20.0
555.0,-0.09661865,-0.008178711,0.026672362999999998,-114.28244,27.10687,-19.007633,2019-09-07 13:36:20,20.0
556.0,-0.109558105,-0.019165039,0.011352538999999998,-75.60305,13.053435,-24.89313,2019-09-07 13:36:20,20.0
557.0,-0.13018799,-0.012634277,-0.018249512,-21.557251,18.053434,-23.549618,2019-09-07 13:36:20,20.0
558.0,-0.19653320000000002,-0.010314941,-0.028869628999999997,19.412214000000002,14.2213745,-24.809160000000002,2019-09-07 13:36:20,20.0
559.0,-0.24597168,-0.00793457,-0.029968262000000002,32.351147,-48.297709999999995,-12.412213000000001,2019-09-07 13:36:20,20.0
560.0,-0.21014404,-0.005981445300000001,-0.0234375,68.099236,-73.69466,-5.5419846,2019-09-07 13:36:20,20.0
561.0,-0.25152588,0.011474608999999998,-0.015197753999999999,82.66412,-44.267174,-23.587785999999998,2019-09-07 13:36:20,20.0
562.0,-0.21575928,0.02355957,0.0014648438,71.8855,-33.076336,-23.396946,2019-09-07 13:36:20,20.0
563.0,-0.15704346,0.016540527,0.015258788999999998,48.496179999999995,7.603053599999999,-29.053434000000003,2019-09-07 13:36:20,20.0
564.0,-0.11566162,0.016662598,0.022766112999999998,21.763360000000002,35.618320000000004,-32.21374,2019-09-07 13:36:20,20.0
565.0,-0.09265137,0.0072021483999999995,0.022827148,-21.312977,56.77099200000001,-33.816795,2019-09-07 13:36:20,20.0
566.0,-0.07086182,6.1035155999999994e-05,0.023925781,-53.251906999999996,60.16794,-31.007633000000002,2019-09-07 13:36:20,20.0
567.0,-0.06890869,-0.013122558999999999,0.022766112999999998,-62.091602,71.39695,-30.328245000000003,2019-09-07 13:36:20,20.0
568.0,-0.078125,-0.012634277,0.016174316,-28.770992,70.20611,-40.0229,2019-09-07 13:36:20,20.0
569.0,-0.07897949,-0.002319336,0.024230957,-5.7709923,56.969467,-45.450382,2019-09-07 13:36:20,20.0
570.0,-0.06878662,-0.009216309,0.024902344,24.38168,29.007633000000002,-52.091602,2019-09-07 13:36:20,20.0
571.0,-0.064453125,-0.006225586,0.009399414,51.381679999999996,11.7404585,-55.46565,2019-09-07 13:36:20,20.0
572.0,-0.07348633,0.008117675999999999,-0.00030517577999999995,87.0229,14.893129,-49.984734,2019-09-07 13:36:20,20.0
573.0,-0.09637451,0.006164551,-0.0017089844000000001,101.45038000000001,-0.73282444,-38.46565,2019-09-07 13:36:20,20.0
574.0,-0.09802246,0.015380858999999998,0.0018920898,104.15267,-25.93893,-20.770992,2019-09-07 13:36:20,20.0
575.0,-0.09210205,0.012512207,0.015197753999999999,92.71755999999999,-38.541985,-9.603053,2019-09-07 13:36:20,20.0
576.0,-0.12164307,0.021972656,-0.022583007999999998,95.99235999999999,16.946566,-8.671756,2019-09-07 13:36:20,20.0
577.0,-0.24328613,0.026489257999999998,-0.0030517578000000003,77.70229,11.175572,-17.175573,2019-09-07 13:36:20,20.0
578.0,-0.23571777,0.03668213,0.027526855,29.389313,-8.206107000000001,-15.977098999999999,2019-09-07 13:36:20,20.0
579.0,-0.17761229999999997,0.032714844,0.034851073999999996,-7.442748,42.709922999999996,-15.603053,2019-09-07 13:36:20,20.0
580.0,-0.23956299,0.025390625,0.01550293,-61.221375,82.39695,-0.48854962,2019-09-07 13:36:20,20.0
581.0,-0.20367432,-0.020446777,0.030761719,-145.42747,24.274809,39.82443,2019-09-07 13:36:20,20.0
582.0,-0.14294434,-0.03479004,0.024597168,-153.16794,2.0305343000000002,71.099236,2019-09-07 13:36:20,20.0
583.0,-0.11279297,-0.023925781,0.020629883,-95.74809,-32.419846,85.35114,2019-09-07 13:36:20,20.0
584.0,-0.10205078,-0.022338867000000002,0.028137207,-62.244274,-43.908398,78.221375,2019-09-07 13:36:20,20.0
585.0,-0.097717285,-0.033569336,0.033508300000000005,-35.335876,-65.83969,72.16794,2019-09-07 13:36:21,20.0
586.0,-0.08770752,-0.034423828,0.028686523,8.0992365,-63.23664,65.770996,2019-09-07 13:36:21,20.0
587.0,-0.07659912,-0.012939453,0.03314209,39.450382,-37.076336,53.50382,2019-09-07 13:36:21,20.0
588.0,-0.081970215,-0.008300781,0.033508300000000005,26.839695000000003,-16.213741,43.816795,2019-09-07 13:36:21,20.0
589.0,-0.0803833,0.005859375,0.040161132999999995,-18.251910000000002,5.633588,29.839695000000003,2019-09-07 13:36:21,20.0
590.0,-0.08746338,0.0031738281,0.037902832000000004,-69.37405,20.923664000000002,10.137404,2019-09-07 13:36:21,20.0
591.0,-0.09289551,0.0020141601999999997,0.038146973,-99.35878000000001,34.427483,-3.534351,2019-09-07 13:36:21,20.0
592.0,-0.09259033,-0.008239746,0.03387451,-117.74808999999999,22.61832,-7.5038165999999995,2019-09-07 13:36:21,20.0
593.0,-0.07800293,-0.008300781,0.022216797000000003,-96.03053,7.7328243,-9.160305000000001,2019-09-07 13:36:21,20.0
594.0,-0.08508301,-0.022277832,0.0,-52.312977000000004,3.4198472,-7.6946563999999995,2019-09-07 13:36:21,20.0
595.0,-0.11291504,-0.010375977,-0.017211914,5.9160304,-0.9847328000000002,-5.0992365,2019-09-07 13:36:21,20.0
596.0,-0.17395020000000003,-0.0071411133,-0.029663086,48.55725,11.503817,-10.610686999999999,2019-09-07 13:36:21,20.0
597.0,-0.25457764,0.0056152343999999995,-0.032104492000000005,70.12977,-51.572517,-8.137404,2019-09-07 13:36:21,20.0
598.0,-0.21411133,0.0044555664,-0.022277832,83.79389,-102.03817,-3.7480917000000002,2019-09-07 13:36:21,20.0
599.0,-0.21520996,0.013427733999999998,-0.024841309,108.31298000000001,-65.9542,-16.358778,2019-09-07 13:36:21,20.0
600.0,-0.21197510000000003,0.020446777,-0.01763916,100.03817,-54.099236,-11.068703,2019-09-07 13:36:21,20.0
601.0,-0.17156982,0.01928711,-0.0016479492000000002,77.51908,-1.4961832,-17.114504,2019-09-07 13:36:21,20.0
602.0,-0.12835693,0.021911621000000003,0.022216797000000003,39.312977000000004,44.53435,-25.648854999999998,2019-09-07 13:36:21,20.0
603.0,-0.097473145,0.026855469,0.028747559,-3.7557251000000003,81.48092,-38.85496,2019-09-07 13:36:21,20.0
604.0,-0.08331299,0.022827148,0.0234375,-50.809162,102.618324,-49.725190000000005,2019-09-07 13:36:21,20.0
605.0,-0.0847168,0.013183594,0.018127441,-93.53435,114.12213999999999,-52.78626,2019-09-07 13:36:21,20.0
606.0,-0.08709717,-0.0010986328,0.018920898000000002,-100.07633,112.92367,-56.61832,2019-09-07 13:36:21,20.0
607.0,-0.083862305,-0.011779785,0.027770996000000003,-63.46565,104.03053,-64.19847,2019-09-07 13:36:21,20.0
608.0,-0.083984375,-0.0119018555,0.03125,-32.404579999999996,85.64886,-65.54961999999999,2019-09-07 13:36:21,20.0
609.0,-0.07263183599999999,-0.009643555,0.02709961,8.526717,56.908398,-61.702290000000005,2019-09-07 13:36:21,20.0
610.0,-0.07183838,-0.00793457,-0.0007324219,58.28244399999999,40.656490000000005,-58.198475,2019-09-07 13:36:21,20.0
611.0,-0.09210205,0.0025024414000000004,-0.008544922,85.62595,49.541985,-53.809162,2019-09-07 13:36:21,20.0
612.0,-0.11376953,0.012451172,0.0014038085999999999,94.938934,8.725191,-37.404579999999996,2019-09-07 13:36:21,20.0
613.0,-0.09539795,0.012084961000000002,0.013977051,88.83969,-35.89313,-20.778625,2019-09-07 13:36:21,20.0
614.0,-0.078063965,0.015808105,0.012512207,81.21374,-37.198475,-10.366412,2019-09-07 13:36:21,20.0
615.0,-0.12670898,0.020874023000000002,-0.022644043,81.854965,36.091602,-5.946564700000001,2019-09-07 13:36:21,20.0
616.0,-0.25811768,0.024047852,-0.011230469,61.908398,13.755725,-4.076336,2019-09-07 13:36:21,20.0
617.0,-0.2479248,0.027526855,0.021911621000000003,21.580153,-56.091602,11.297709,2019-09-07 13:36:21,20.0
618.0,-0.14562988,0.026000977,0.019958496000000003,16.93893,-19.755726,21.603054,2019-09-07 13:36:21,20.0
619.0,-0.25134277,0.025146484,0.003967285,-30.946565999999997,58.908398,31.244274,2019-09-07 13:36:21,20.0
620.0,-0.23760986,-0.0037231445,0.012207031,-125.83206000000001,-45.091602,70.07633,2019-09-07 13:36:21,20.0
621.0,-0.16979979999999997,-0.029724121000000003,0.017028809,-130.74046,-29.603053999999997,87.900764,2019-09-07 13:36:22,20.0
622.0,-0.14160156,-0.02319336,0.013244628999999999,-97.29771,-64.15267,105.12213999999999,2019-09-07 13:36:22,20.0
623.0,-0.13006592,-0.0146484375,0.004638672,-55.106869999999994,-71.83206,102.87023,2019-09-07 13:36:22,20.0
624.0,-0.11853027,-0.031921387,0.011352538999999998,-36.717556,-94.24428,95.99235999999999,2019-09-07 13:36:22,20.0
625.0,-0.09515381,-0.03515625,0.015808105,-8.236641,-105.43511000000001,88.35878000000001,2019-09-07 13:36:22,20.0
626.0,-0.06817627,-0.01739502,0.020324707,40.0,-85.79389,78.26717,2019-09-07 13:36:22,20.0
627.0,-0.061767578,0.0006103515599999999,0.032226562,34.21374,-59.076336,64.816795,2019-09-07 13:36:22,20.0
628.0,-0.05480957,0.008850098,0.031921387,5.2290077,-41.78626,52.74046,2019-09-07 13:36:22,20.0
629.0,-0.056030273,0.004333496,0.03173828,-31.32061,-26.793894,43.801525,2019-09-07 13:36:22,20.0
630.0,-0.04449463,0.0053100586,0.026123047000000003,-63.435116,-11.969465,32.160305,2019-09-07 13:36:22,20.0
631.0,-0.05883789,-0.0041503906,0.022583007999999998,-81.21374,7.7480917,16.900763,2019-09-07 13:36:22,20.0
632.0,-0.078125,0.0020141601999999997,0.01928711,-80.37405,20.38168,1.8625953999999998,2019-09-07 13:36:22,20.0
633.0,-0.09735107400000001,-0.0009765625,0.016723633,-73.27481,17.809160000000002,-13.167939000000002,2019-09-07 13:36:22,20.0
634.0,-0.11541748,-0.014709473,-0.005126953,-46.992367,15.458015,-23.458015,2019-09-07 13:36:22,20.0
635.0,-0.15942383,-0.011047363000000001,-0.026672362999999998,-0.8702290000000001,41.633587,-39.580154,2019-09-07 13:36:22,20.0
636.0,-0.23992919999999998,0.0032958984000000004,-0.017578125,28.931296999999997,-5.8244276,-59.0,2019-09-07 13:36:22,20.0
637.0,-0.24462889999999998,0.013793945,-0.0051879883,56.22900799999999,33.251907,-86.03053,2019-09-07 13:36:22,20.0
638.0,-0.24407959,0.015258788999999998,0.0073242188,48.969467,61.129771999999996,-94.145035,2019-09-07 13:36:22,20.0
639.0,-0.19641113,0.019958496000000003,0.009460449000000001,20.206106,89.89313,-98.091606,2019-09-07 13:36:22,20.0
640.0,-0.15234375,0.0032958984000000004,0.016723633,-6.6488547,105.32825,-85.05344000000001,2019-09-07 13:36:22,20.0
641.0,-0.11187744,0.0034179688000000002,0.025634766,-32.564884,110.76336,-73.19847,2019-09-07 13:36:22,20.0
642.0,-0.10388183599999999,0.004760742,0.024597168,-51.412212,123.80916,-64.44275,2019-09-07 13:36:22,20.0
643.0,-0.099487305,-0.0115356445,0.025268555,-46.633587,125.099236,-56.198475,2019-09-07 13:36:22,20.0
644.0,-0.10876465,-0.013916016000000002,0.032470703,-7.862595599999999,100.16794,-56.14504,2019-09-07 13:36:22,20.0
645.0,-0.09375,-0.0051879883,0.02746582,25.503817,80.0,-57.78626,2019-09-07 13:36:22,20.0
646.0,-0.09161377,0.0017700195,0.024719237999999998,57.603054,48.709922999999996,-57.755726,2019-09-07 13:36:22,20.0
647.0,-0.072387695,-0.0006713867,0.014953613000000001,72.175575,18.519083,-50.648853,2019-09-07 13:36:22,20.0
648.0,-0.061767578,0.012756348,0.007873535,81.74809,1.1908396,-39.419846,2019-09-07 13:36:22,20.0
649.0,-0.08343506,0.014099121000000001,0.0007934570299999999,70.73283,-1.6335878000000001,-24.923664000000002,2019-09-07 13:36:22,20.0
650.0,-0.11358642599999999,0.014953613000000001,-0.0025634766,56.267174,-15.702291,-5.4961834000000005,2019-09-07 13:36:22,20.0
651.0,-0.11291504,0.0041503906,0.0020751953,56.74046,-61.206109999999995,13.717557000000001,2019-09-07 13:36:22,20.0
652.0,-0.08874512,0.014770508,0.005981445300000001,56.290077000000004,-80.07633,32.328243,2019-09-07 13:36:22,20.0
653.0,-0.08129883,0.015319824,0.004211426,71.27481,-67.9542,43.0229,2019-09-07 13:36:22,20.0
654.0,-0.14642334,0.031677246,-0.028137207,95.46565,13.229007999999999,42.587788,2019-09-07 13:36:22,20.0
655.0,-0.2612915,0.023864746000000003,0.001159668,59.648853,-35.862595,41.290077000000004,2019-09-07 13:36:23,20.0
656.0,-0.18664551,0.030639648,0.049804688,4.10687,-41.068703,36.770992,2019-09-07 13:36:23,20.0
657.0,-0.14880371,0.036743164,0.02758789,-48.473279999999995,29.633587,27.87023,2019-09-07 13:36:23,20.0
658.0,-0.26385498,0.022155762000000002,0.0064697266000000005,-118.816795,65.03817,31.290077,2019-09-07 13:36:23,20.0
659.0,-0.24139404,-0.030395507999999998,0.018981934,-214.98472999999998,-22.603054,66.229004,2019-09-07 13:36:23,20.0
660.0,-0.16290283,-0.047302246,0.009094238000000001,-161.1145,-46.351147,90.29008,2019-09-07 13:36:23,20.0
661.0,-0.121154785,-0.040039062,0.013183594,-88.92367,-79.71755999999999,110.10687,2019-09-07 13:36:23,20.0
662.0,-0.11621094,-0.029846191,0.008544922,-17.801527,-75.862595,111.16031000000001,2019-09-07 13:36:23,20.0
663.0,-0.10278319999999999,-0.021850586,0.014343261999999999,17.862595000000002,-91.54961999999999,115.60305,2019-09-07 13:36:23,20.0
664.0,-0.083984375,-0.024597168,0.014282227,54.67175699999999,-84.57252,108.89313,2019-09-07 13:36:23,20.0
665.0,-0.06323242,-0.00012207031000000001,0.024169922000000003,60.78626,-62.954197,95.78626,2019-09-07 13:36:23,20.0
666.0,-0.056884765999999996,0.01776123,0.026733398,29.213741,-29.396946000000003,71.0,2019-09-07 13:36:23,20.0
667.0,-0.06103515599999999,0.023071289,0.03253174,-28.694656,-3.1221373,52.412212,2019-09-07 13:36:23,20.0
668.0,-0.062316895,0.00793457,0.028198242000000002,-77.900764,15.419847500000001,33.694656,2019-09-07 13:36:23,20.0
669.0,-0.08093262,0.007080078,0.009460449000000001,-99.16794,49.53435,9.763359,2019-09-07 13:36:23,20.0
670.0,-0.11456299,0.0022583008,0.026245117000000002,-116.69466000000001,75.091606,-20.358778,2019-09-07 13:36:23,20.0
671.0,-0.12982178,0.0017089844000000001,0.028198242000000002,-126.25191000000001,55.900764,-37.297709999999995,2019-09-07 13:36:23,20.0
672.0,-0.1015625,-0.012023926,0.014709473,-94.52672,42.908398,-38.870228000000004,2019-09-07 13:36:23,20.0
673.0,-0.09649658,-0.0078125,-0.0006103515599999999,-36.954197,40.679390000000005,-36.51145,2019-09-07 13:36:23,20.0
674.0,-0.12420654,-0.01776123,-0.03540039,9.244275,50.10687,-32.366413,2019-09-07 13:36:23,20.0
675.0,-0.19714355,-0.01550293,-0.03527832,33.412212,58.923664,-38.450382,2019-09-07 13:36:23,20.0
676.0,-0.22283936,-0.011230469,-0.019470215,53.015266000000004,-0.15267175,-28.19084,2019-09-07 13:36:23,20.0
677.0,-0.2074585,0.0068969727,-0.0005493164,56.572517000000005,-13.664123000000002,-39.572517,2019-09-07 13:36:23,20.0
678.0,-0.25,0.024414062,-0.0051879883,55.061069999999994,35.85496,-75.75572,2019-09-07 13:36:23,20.0
679.0,-0.24176025,0.033447266,0.00042724610000000003,43.679390000000005,38.335876,-84.64121999999999,2019-09-07 13:36:23,20.0
680.0,-0.18115234,0.012145996000000001,0.016784668,10.343511999999999,68.48092,-96.25191,2019-09-07 13:36:23,20.0
681.0,-0.13739014,0.010192871,0.031188965,-0.71755725,91.778625,-90.96947,2019-09-07 13:36:23,20.0
682.0,-0.09979248,0.005554199,0.03363037,-21.648854999999998,95.16794,-80.16031,2019-09-07 13:36:23,20.0
683.0,-0.08331299,-0.004699707,0.02319336,-37.564884,90.72519,-59.69465600000001,2019-09-07 13:36:23,20.0
684.0,-0.07391357400000001,-0.021728516,0.013305663999999998,-9.519084,77.56489,-46.618320000000004,2019-09-07 13:36:23,20.0
685.0,-0.08380127,-0.022155762000000002,0.009521484,42.312977000000004,65.74809,-42.435116,2019-09-07 13:36:23,20.0
686.0,-0.075683594,-0.0049438477,0.014770508,72.12977,33.12214,-39.603054,2019-09-07 13:36:23,20.0
687.0,-0.06951904,-0.0021972656,0.008361816,99.44275,-3.870229,-37.183205,2019-09-07 13:36:23,20.0
688.0,-0.058288574,0.0007324219,0.010070800999999999,112.29771000000001,-31.641221999999996,-31.832062,2019-09-07 13:36:23,20.0
689.0,-0.06427002,-0.02520752,0.01940918,130.58015,-30.48855,-21.404581,2019-09-07 13:36:23,20.0
690.0,-0.10003662,-0.042785645,-0.031311035,228.15266,-38.603054,-6.587786,2019-09-07 13:36:23,20.0
691.0,-0.11126709,-0.007873535,-0.04260254,250.12977999999998,-80.12977,20.809160000000002,2019-09-07 13:36:24,20.0
692.0,-0.087768555,0.025939941,-0.0357666,250.12977999999998,-131.69466,52.81679499999999,2019-09-07 13:36:24,20.0
693.0,-0.10064697,0.06842041,-0.06317139,250.12977999999998,-92.0,50.015266,2019-09-07 13:36:24,20.0
694.0,-0.21984863,0.10290527,0.021484375,250.12977999999998,-17.473282,54.541985,2019-09-07 13:36:24,20.0
695.0,-0.2567749,0.08666992,0.015258788999999998,146.28243999999998,-131.32062,22.190839999999998,2019-09-07 13:36:24,20.0
696.0,-0.16021729,0.09552002,0.053527832000000004,-3.1908397999999996,0.38167940000000006,-25.213741,2019-09-07 13:36:24,20.0
697.0,-0.18133545,0.08697510000000001,0.08044433599999999,-160.60306,103.08397,-33.206109999999995,2019-09-07 13:36:24,20.0
698.0,-0.16870117,0.052368164,0.060302734000000004,-250.1374,172.05344,-21.816793,2019-09-07 13:36:24,20.0
699.0,-0.15386963,0.01751709,0.007019043000000001,-250.1374,170.21375,6.8702292,2019-09-07 13:36:24,20.0
700.0,-0.16802979,-0.052124023,-0.029724121000000003,-250.1374,47.320609999999995,96.99235999999999,2019-09-07 13:36:24,20.0
701.0,-0.13452148,-0.055725098,0.0017089844000000001,-221.54199,-15.946565,95.23664000000001,2019-09-07 13:36:24,20.0
702.0,-0.11938476599999999,-0.05480957,-0.0056152343999999995,-89.0229,-38.587788,89.503815,2019-09-07 13:36:24,20.0
703.0,-0.0993042,-0.038024902,0.012084961000000002,10.519084,-63.664124,67.96183,2019-09-07 13:36:24,20.0
704.0,-0.07519531,-0.037109375,0.008483886999999999,47.068703,-71.381676,59.091602,2019-09-07 13:36:24,20.0
705.0,-0.04699707,-0.018371582,0.027832031,83.27481,-55.893130000000006,51.267174,2019-09-07 13:36:24,20.0
706.0,-0.04736328,-0.00012207031000000001,0.046691895,63.74046,-30.931296999999997,45.603054,2019-09-07 13:36:24,20.0
707.0,-0.06359863,0.0099487305,0.051208496,-16.450382,-6.2290077,32.687022999999996,2019-09-07 13:36:24,20.0
708.0,-0.07885742,0.0072631836,0.044067382999999995,-92.221375,32.503820000000005,10.885496,2019-09-07 13:36:24,20.0
709.0,-0.10278319999999999,0.005432129,0.046081542999999996,-116.9313,33.190838,-6.7709923,2019-09-07 13:36:24,20.0
710.0,-0.095581055,0.00030517577999999995,0.029418945,-134.92366,27.900763,-18.770992,2019-09-07 13:36:24,20.0
711.0,-0.09863281,-0.0053710938,0.012573242,-112.84733,30.038168,-23.007633,2019-09-07 13:36:24,20.0
712.0,-0.12823486,-0.0029296875,-0.020507812,-68.05344000000001,85.145035,-25.404581,2019-09-07 13:36:24,20.0
713.0,-0.20526123,-0.0036010741999999997,-0.029541016,-59.221375,61.16794,-29.732824,2019-09-07 13:36:24,20.0
714.0,-0.26898193,-0.015319824,-0.04833984400000001,-74.68701999999999,-46.709922999999996,-22.160304999999997,2019-09-07 13:36:24,20.0
715.0,-0.22674560000000002,-0.014404297,-0.036010742000000005,-42.564884,-110.46565,-1.0152671,2019-09-07 13:36:24,20.0
716.0,-0.26092529999999997,-0.0028686523,0.0010375977,18.068703,-64.9542,-10.885496,2019-09-07 13:36:24,20.0
717.0,-0.18304443,0.0154418945,0.033325195,53.664124,-31.290077,-7.7862597000000004,2019-09-07 13:36:24,20.0
718.0,-0.11791992,0.009765625,0.04034424,55.572517000000005,14.038167999999999,-13.167939000000002,2019-09-07 13:36:24,20.0
719.0,-0.09942627,0.0024414061999999998,0.031188965,50.839695,45.549618,-18.114504,2019-09-07 13:36:24,20.0
720.0,-0.08215332,0.004272461,0.024597168,28.48855,63.16030500000001,-26.175573,2019-09-07 13:36:24,20.0
721.0,-0.07293701,0.003540039,0.03137207,-23.366413,71.67175,-32.93893,2019-09-07 13:36:24,20.0
722.0,-0.07800293,-0.00048828125,0.035888672,-44.206109999999995,79.96947,-50.44275,2019-09-07 13:36:24,20.0
723.0,-0.07702637,0.0040893555,0.036010742000000005,-41.84733,79.61069,-67.9771,2019-09-07 13:36:24,20.0
724.0,-0.080078125,0.003112793,0.030578612999999998,-17.06107,73.00764000000001,-81.53435,2019-09-07 13:36:24,20.0
725.0,-0.07757568,-0.0078125,0.028198242000000002,15.022901000000001,55.862595,-86.41221999999999,2019-09-07 13:36:24,20.0
726.0,-0.060913086,0.0007324219,0.004699707,67.78626,31.0,-78.00764000000001,2019-09-07 13:36:24,20.0
727.0,-0.070373535,0.010620117,0.004211426,93.89313,51.885498,-70.35878000000001,2019-09-07 13:36:25,20.0
728.0,-0.10040283,0.016174316,0.021911621000000003,73.80915999999999,26.244274,-47.091602,2019-09-07 13:36:25,20.0
729.0,-0.089660645,0.016662598,0.023803711,60.74046,-27.908398,-23.541985,2019-09-07 13:36:25,20.0
730.0,-0.06976318,0.021057128999999997,0.0045166016,51.25954,-19.419847,-5.343511599999999,2019-09-07 13:36:25,20.0
731.0,-0.16528320000000002,0.03302002,-0.020629883,61.320609999999995,65.19084000000001,4.4198474999999995,2019-09-07 13:36:25,20.0
732.0,-0.30438232,0.028930664,-0.021118164,25.389313,-6.6870227,24.732824,2019-09-07 13:36:25,20.0
733.0,-0.21343994,0.0030517578000000003,0.007873535,8.793892999999999,-92.74045600000001,60.755726,2019-09-07 13:36:25,20.0
734.0,-0.1605835,0.00592041,0.01953125,41.694656,-26.51145,77.770996,2019-09-07 13:36:25,20.0
735.0,-0.2576294,0.00579834,0.024780273,-4.7709923,13.122137,95.32061,2019-09-07 13:36:25,20.0
736.0,-0.21234131,-0.00012207031000000001,0.035095215,-77.61069,-16.664122,112.66412,2019-09-07 13:36:25,20.0
737.0,-0.12841797,-0.006958008000000001,0.031311035,-113.91603,-13.7786255,106.87023,2019-09-07 13:36:25,20.0
738.0,-0.1171875,-0.0063476562,0.031982422,-110.48855,-25.06107,91.15267,2019-09-07 13:36:25,20.0
739.0,-0.10314941400000001,-0.013793945,0.024536132999999998,-115.85496499999999,-33.954197,69.98473,2019-09-07 13:36:25,20.0
740.0,-0.08203125,-0.03692627,0.020568848,-92.01527,-51.648853,56.312977000000004,2019-09-07 13:36:25,20.0
741.0,-0.06854248,-0.042663574,0.026550293,-16.51145,-41.458015,43.267174,2019-09-07 13:36:25,20.0
742.0,-0.061645507999999995,-0.020141601999999998,0.034118652,35.389313,-20.61832,29.992366999999998,2019-09-07 13:36:25,20.0
743.0,-0.059509277,-0.005126953,0.036193848,40.473279999999995,-17.076335999999998,23.251910000000002,2019-09-07 13:36:25,20.0
744.0,-0.04949951,0.00018310547,0.035095215,15.137404,-11.519084,17.053434,2019-09-07 13:36:25,20.0
745.0,-0.047729492000000005,0.008239746,0.031982422,-16.534351,3.167939,9.152672,2019-09-07 13:36:25,20.0
746.0,-0.071777344,0.009155273,0.025756836,-42.526720000000005,31.74809,-9.351144999999999,2019-09-07 13:36:25,20.0
747.0,-0.11376953,0.012023926,0.03253174,-66.63359,47.885498,-30.641221999999996,2019-09-07 13:36:25,20.0
748.0,-0.124816895,0.005493164,0.014953613000000001,-76.36641,34.839695,-41.320609999999995,2019-09-07 13:36:25,20.0
749.0,-0.152771,0.007751465,0.005432129,-63.38168,51.038166,-49.931297,2019-09-07 13:36:25,20.0
750.0,-0.20965576,0.0036621094,-0.0012207030999999999,-32.74046,37.93893,-49.427483,2019-09-07 13:36:25,20.0
751.0,-0.21813965,0.0063476562,-0.0005493164,-24.206106,6.7251906,-38.450382,2019-09-07 13:36:25,20.0
752.0,-0.20861816,0.012451172,-0.005126953,4.2137402999999996,4.2900763,-37.458015,2019-09-07 13:36:25,20.0
753.0,-0.23699951,0.024902344,-0.004333496,14.656488000000001,10.320611,-40.381679999999996,2019-09-07 13:36:25,20.0
754.0,-0.21014404,0.016174316,0.013427733999999998,13.770992000000001,-4.5725193,-33.244274,2019-09-07 13:36:25,20.0
755.0,-0.1373291,0.012390136999999999,0.024536132999999998,23.656488,-2.5038167999999996,-21.549618,2019-09-07 13:36:25,20.0
756.0,-0.09844971,0.011474608999999998,0.02758789,36.648853,-4.3511453,-1.7709924,2019-09-07 13:36:25,20.0
757.0,-0.06988525400000001,0.010864258,0.026611327999999997,32.412212,10.2213745,8.458015,2019-09-07 13:36:25,20.0
758.0,-0.08483887,0.009765625,0.041625977,21.587785999999998,28.603053999999997,8.091603,2019-09-07 13:36:25,20.0
759.0,-0.08300781,0.010803223,0.048706055,-0.6183206,21.625954,-2.465649,2019-09-07 13:36:25,20.0
760.0,-0.08111572,0.010864258,0.04437256,-11.152672,14.770992000000001,-15.503817000000002,2019-09-07 13:36:25,20.0
761.0,-0.06610107400000001,-0.0007934570299999999,0.031921387,-8.80916,9.374044999999999,-27.480916999999998,2019-09-07 13:36:26,20.0
762.0,-0.062438965,-0.003540039,0.021057128999999997,20.89313,2.8396947,-33.496179999999995,2019-09-07 13:36:26,20.0
763.0,-0.06689453,-0.003540039,0.014953613000000001,55.664124,-6.2137402999999996,-27.57252,2019-09-07 13:36:26,20.0
764.0,-0.08636474599999999,0.010070800999999999,0.013122558999999999,78.25954399999999,-8.961832000000001,-22.137404999999998,2019-09-07 13:36:26,20.0
765.0,-0.09307861,0.015014648,0.018676758,95.0458,-15.496182999999998,-17.076335999999998,2019-09-07 13:36:26,20.0
766.0,-0.10412598,0.012329102,0.01550293,97.08397,-27.007633000000002,-12.396947,2019-09-07 13:36:26,20.0
767.0,-0.09661865,0.020568848,0.009033203,90.10687,-38.961834,-11.160305000000001,2019-09-07 13:36:26,20.0
768.0,-0.16320801,0.023498535,-0.016357422,118.183205,51.961834,-21.641222,2019-09-07 13:36:26,20.0
769.0,-0.29327393,0.031433105,-0.017578125,80.78626,-24.175573,-22.679389999999998,2019-09-07 13:36:26,20.0
770.0,-0.23101807,0.02947998,0.024475097999999997,33.82443,-9.129771,-13.633588,2019-09-07 13:36:26,20.0
771.0,-0.20385742,0.026550293,0.04248047,10.435115,42.816795,-10.961832000000001,2019-09-07 13:36:26,20.0
772.0,-0.14923096,-0.0018920898,0.059692382999999995,-65.27481,49.580154,25.374046,2019-09-07 13:36:26,20.0
773.0,-0.11596680000000001,-0.015991211,0.044311523,-108.42748,69.37405,46.274809999999995,2019-09-07 13:36:26,20.0
774.0,-0.14434814,-0.024230957,0.040649414,-118.15267,56.412212,57.71755600000001,2019-09-07 13:36:26,20.0
775.0,-0.13256836,-0.010864258,0.03253174,-124.73283,11.702291,47.427483,2019-09-07 13:36:26,20.0
776.0,-0.11199951,-0.028076172000000003,0.026245117000000002,-103.778625,-14.534351000000001,18.030535,2019-09-07 13:36:26,20.0
777.0,-0.09405517599999999,-0.049072265999999996,0.016479492,-17.114504,-16.908398000000002,-4.1679387000000006,2019-09-07 13:36:26,20.0
778.0,-0.09173584,-0.033935547,0.029296875,87.1145,6.152672,-12.198473,2019-09-07 13:36:26,20.0
779.0,-0.09063721,-0.004272461,0.038635254,132.38931000000002,15.549619,-7.9541984,2019-09-07 13:36:26,20.0
780.0,-0.08642578,0.028930664,0.04449463,85.0458,25.038168,-16.824427,2019-09-07 13:36:26,20.0
781.0,-0.101379395,0.036193848,0.04248047,-16.221375,40.343509999999995,-37.801525,2019-09-07 13:36:26,20.0
782.0,-0.09790039,0.026916503999999997,0.03515625,-90.32825,46.82443,-51.900764,2019-09-07 13:36:26,20.0
783.0,-0.12194824,0.022094727,0.02758789,-120.76336,66.46565,-59.85496,2019-09-07 13:36:26,20.0
784.0,-0.13812256,0.007019043000000001,0.025512695,-116.9542,54.106869999999994,-59.106869999999994,2019-09-07 13:36:26,20.0
785.0,-0.13586426,0.0007934570299999999,0.007385254,-73.29771,43.06107,-46.244274,2019-09-07 13:36:26,20.0
786.0,-0.14337158,0.0063476562,-0.0017089844000000001,-21.312977,36.007633,-27.0,2019-09-07 13:36:26,20.0
787.0,-0.19604492,0.014709473,-0.010314941,10.458015,39.12214,-11.374044999999999,2019-09-07 13:36:26,20.0
788.0,-0.23840332,0.013000488000000001,0.002746582,11.946565,-3.2671757,10.473283,2019-09-07 13:36:26,20.0
789.0,-0.15704346,0.0045166016,0.020751953,4.8396945,-54.908398,32.366413,2019-09-07 13:36:26,20.0
790.0,-0.087768555,0.015991211,0.018005371000000003,5.1603055,-64.9313,48.496179999999995,2019-09-07 13:36:26,20.0
791.0,-0.07849121,0.018371582,0.004699707,-11.633588,-35.755726,60.0229,2019-09-07 13:36:26,20.0
792.0,-0.123535156,0.022460938,0.0006713867,-36.427483,-27.641221999999996,68.51145,2019-09-07 13:36:26,20.0
793.0,-0.14666748,0.024475097999999997,-0.0028686523,-64.541985,-63.82443000000001,74.496185,2019-09-07 13:36:26,20.0
794.0,-0.15692139,0.022705077999999997,-0.002319336,-103.94655999999999,-63.687022999999996,65.59541999999999,2019-09-07 13:36:26,20.0
795.0,-0.16674805,0.0068359375,-0.0033569335999999996,-118.96947,-84.23664000000001,58.931297,2019-09-07 13:36:26,20.0
796.0,-0.14965820000000002,-0.02166748,-0.026611327999999997,-113.43511000000001,-96.08397,60.038166000000004,2019-09-07 13:36:27,20.0
797.0,-0.12896729,-0.04815674,-0.04107666,-30.045801,-94.87023,63.648853,2019-09-07 13:36:27,20.0
798.0,-0.113464355,-0.03253174,-0.028808594,35.85496,-76.27481,63.47328,2019-09-07 13:36:27,20.0
799.0,-0.11444092,-0.0126953125,-0.00024414062000000002,42.87786,-57.900764,52.572517000000005,2019-09-07 13:36:27,20.0
800.0,-0.11419678,-0.002380371,0.005065918,33.251907,-31.12977,29.183207,2019-09-07 13:36:27,20.0
801.0,-0.09869385,0.013305663999999998,0.004760742,12.122137,-2.6335877999999995,6.908396700000001,2019-09-07 13:36:27,20.0
802.0,-0.09716797,-0.0021972656,0.009094238000000001,-13.068703,18.389313,-15.80916,2019-09-07 13:36:27,20.0
803.0,-0.09814453,-0.0025024414000000004,0.0067749023,-34.404579999999996,27.541984999999997,-32.816795,2019-09-07 13:36:27,20.0
804.0,-0.10418701,-0.0068969727,0.0061035156000000005,-38.51145,38.129771999999996,-45.274809999999995,2019-09-07 13:36:27,20.0
805.0,-0.10510254,-0.006286621,-0.0012207030999999999,-19.045801,44.419846,-55.206109999999995,2019-09-07 13:36:27,20.0
806.0,-0.10668945,0.0030517578000000003,0.0095825195,12.114504,43.160305,-63.969467,2019-09-07 13:36:27,20.0
807.0,-0.10504150400000001,-0.010070800999999999,0.012756348,41.526720000000005,41.992367,-72.8855,2019-09-07 13:36:27,20.0
808.0,-0.08239746,-0.0026855469,0.0134887695,68.145035,47.687022999999996,-81.47328,2019-09-07 13:36:27,20.0
809.0,-0.09844971,0.001953125,0.008178711,82.824425,56.870228000000004,-85.74809,2019-09-07 13:36:27,20.0
810.0,-0.10308838,0.012451172,0.013916016000000002,81.99235999999999,68.35114,-93.34351,2019-09-07 13:36:27,20.0
811.0,-0.11645508,0.024902344,0.022949219,70.01527,72.29771,-101.55725,2019-09-07 13:36:27,20.0
812.0,-0.11389160000000002,0.020324707,0.026794434,43.038166,79.34351,-111.67175,2019-09-07 13:36:27,20.0
813.0,-0.09063721,0.020202637,0.025634766,31.29771,83.51145,-113.84733,2019-09-07 13:36:27,20.0
814.0,-0.111450195,0.02331543,0.0068969727,14.664123000000002,86.67939,-107.92367,2019-09-07 13:36:27,20.0
815.0,-0.16436768,0.027770996000000003,0.0061035156000000005,12.526717,127.46565,-109.50381499999999,2019-09-07 13:36:27,20.0
816.0,-0.24487305,0.030700684,0.008544922,-29.725191,89.47328,-85.862595,2019-09-07 13:36:27,20.0
817.0,-0.18902588,0.029663086,0.03137207,-58.549618,26.648854999999998,-45.114502,2019-09-07 13:36:27,20.0
818.0,-0.15301514,0.0045776367,0.0154418945,-45.931297,20.885496,6.1297708,2019-09-07 13:36:27,20.0
819.0,-0.1875,-0.02166748,0.008422852,-38.244274,13.206107000000001,62.38168,2019-09-07 13:36:27,20.0
820.0,-0.21331787,-0.022949219,0.014221191000000001,-29.19084,-33.732826,110.84733,2019-09-07 13:36:27,20.0
821.0,-0.17687988,-0.008605957,0.025390625,-29.732824,-77.21374,134.0916,2019-09-07 13:36:27,20.0
822.0,-0.14892578,-0.0017089844000000001,0.027709961,-45.656490000000005,-93.72519,125.908394,2019-09-07 13:36:27,20.0
823.0,-0.13031006,-0.015319824,0.029418945,-74.35878000000001,-107.51145,106.83206000000001,2019-09-07 13:36:27,20.0
824.0,-0.10809326,-0.020874023000000002,0.028198242000000002,-75.70229,-106.83206000000001,89.75572,2019-09-07 13:36:27,20.0
825.0,-0.088378906,-0.033935547,0.025390625,-39.656490000000005,-93.62595,74.16794,2019-09-07 13:36:27,20.0
826.0,-0.08264160000000001,-0.019226074,0.030395507999999998,-15.0,-66.20611,62.30534399999999,2019-09-07 13:36:27,20.0
827.0,-0.08648682,-0.0079956055,0.034179688,-18.114504,-46.908398,49.755726,2019-09-07 13:36:27,20.0
828.0,-0.07861328,-0.0048828125,0.026367188,-28.885496000000003,-39.580154,39.274809999999995,2019-09-07 13:36:27,20.0
829.0,-0.07379150400000001,0.0038452148,0.027038574,-47.809162,-33.793890000000005,27.625953999999997,2019-09-07 13:36:27,20.0
830.0,-0.072143555,-0.005981445300000001,0.01928711,-58.419846,-26.480916999999998,20.389313,2019-09-07 13:36:27,20.0
831.0,-0.08923339999999999,-0.006042480500000001,0.014587402,-47.91603,-12.78626,13.290076000000001,2019-09-07 13:36:27,20.0
832.0,-0.111816406,-0.006042480500000001,0.024353027000000003,-46.992367,-16.259542,1.0687023,2019-09-07 13:36:27,20.0
833.0,-0.09838867,-0.008117675999999999,0.020812988,-26.145039,-17.541985,-2.7480917000000002,2019-09-07 13:36:27,20.0
834.0,-0.09667969,-0.009155273,0.018920898000000002,-3.5572519999999996,-23.755726,-4.0,2019-09-07 13:36:28,20.0
835.0,-0.10040283,-0.007873535,-0.005981445300000001,29.549618,-18.992367,0.4427481,2019-09-07 13:36:28,20.0
836.0,-0.15893555,-0.0043945312,-0.010864258,54.106869999999994,15.152672,-4.0839696000000005,2019-09-07 13:36:28,20.0
837.0,-0.20751953,0.015563965,0.0018310547,34.839695,-16.694656,-6.80916,2019-09-07 13:36:28,20.0
838.0,-0.18548584,0.004699707,-0.0020141601999999997,24.091601999999998,-13.526717000000001,-15.541985,2019-09-07 13:36:28,20.0
839.0,-0.21911621,0.014221191000000001,-0.009094238000000001,24.778625,28.274809,-38.85496,2019-09-07 13:36:28,20.0
840.0,-0.21392822,0.010986328,0.0029296875,13.450381,44.12214,-52.251907,2019-09-07 13:36:28,20.0
841.0,-0.18157959,0.010620117,0.014831543,-1.5038168,82.58778000000001,-68.96183,2019-09-07 13:36:28,20.0
842.0,-0.15051270000000003,0.00030517577999999995,0.020202637,1.6717557,110.78626000000001,-74.458015,2019-09-07 13:36:28,20.0
843.0,-0.1282959,0.008728027,0.029968262000000002,4.0610685,121.43511000000001,-76.19084000000001,2019-09-07 13:36:28,20.0
844.0,-0.11126709,0.0049438477,0.023071289,-8.641221,121.68701999999999,-74.42748,2019-09-07 13:36:28,20.0
845.0,-0.10217285,-0.011962891000000002,0.023071289,-2.2290077,126.46565,-70.67175,2019-09-07 13:36:28,20.0
846.0,-0.11407471,-0.0032348633000000003,0.023620605,21.717558,116.07633,-69.778625,2019-09-07 13:36:28,20.0
847.0,-0.11029053,-0.011962891000000002,0.029541016,35.0,87.16031,-67.183205,2019-09-07 13:36:28,20.0
848.0,-0.09893799,-0.0056152343999999995,0.025695799999999998,65.25954399999999,55.885498,-61.15266999999999,2019-09-07 13:36:28,20.0
849.0,-0.08123779,-0.0041503906,0.022705077999999997,87.20611,25.419847,-50.374046,2019-09-07 13:36:28,20.0
850.0,-0.07397461,0.009399414,0.013977051,100.0229,2.2519082999999998,-35.89313,2019-09-07 13:36:28,20.0
851.0,-0.06762695,0.007751465,0.006713866999999999,100.59541999999999,0.8396947,-18.183207,2019-09-07 13:36:28,20.0
852.0,-0.10205078,0.0030517578000000003,0.0115356445,102.78626,2.3511450000000003,-1.7251908999999999,2019-09-07 13:36:28,20.0
853.0,-0.1071167,0.013671875,0.018188476999999998,92.63359,-34.17557,15.137404,2019-09-07 13:36:28,20.0
854.0,-0.08245849599999999,0.013366699,0.016601562,82.32061,-67.87023,23.961832,2019-09-07 13:36:28,20.0
855.0,-0.05633545,0.019592285,0.006225586,85.52672,-55.38168,26.290077,2019-09-07 13:36:28,20.0
856.0,-0.12371826,0.031188965,-0.040405273,86.061066,37.641220000000004,15.396947,2019-09-07 13:36:28,20.0
857.0,-0.26092529999999997,0.04284668,-0.008300781,50.648853,-23.221375,4.5801525000000005,2019-09-07 13:36:28,20.0
858.0,-0.22320557,0.03161621,0.022338867000000002,-37.76336,-56.366413,12.984733,2019-09-07 13:36:28,20.0
859.0,-0.18066406,0.018371582,0.026550293,-52.076336,0.20610687,14.603053,2019-09-07 13:36:28,20.0
860.0,-0.23321533,0.015563965,0.026367188,-101.55725,34.030533,31.770992,2019-09-07 13:36:28,20.0
861.0,-0.18481445,-0.025024414,0.036865234,-158.96184,25.045801,62.458015,2019-09-07 13:36:28,20.0
862.0,-0.14703369,-0.03363037,0.034179688,-166.6565,31.786259,74.58778000000001,2019-09-07 13:36:28,20.0
863.0,-0.11883545,-0.028808594,0.024169922000000003,-113.824425,0.14503817,77.73283,2019-09-07 13:36:28,20.0
864.0,-0.122924805,-0.024230957,0.022888184,-85.15267,-13.816792999999999,64.061066,2019-09-07 13:36:28,20.0
865.0,-0.09796142599999999,-0.038757323999999996,0.024658202999999997,-45.725190000000005,-38.251907,53.725190000000005,2019-09-07 13:36:28,20.0
866.0,-0.07836914,-0.027832031,0.026855469,12.473283,-36.748093,45.137405,2019-09-07 13:36:28,20.0
867.0,-0.074279785,-0.011413574,0.03100586,41.908398,-26.480916999999998,41.778625,2019-09-07 13:36:28,20.0
868.0,-0.07489014,6.1035155999999994e-05,0.03338623,23.961832,-15.251907999999998,36.931297,2019-09-07 13:36:28,20.0
869.0,-0.07379150400000001,0.0038452148,0.038330078,-15.908397,-12.061069,29.67939,2019-09-07 13:36:28,20.0
870.0,-0.076660156,0.0034179688000000002,0.032043457000000004,-57.83969499999999,-6.412214,15.908397,2019-09-07 13:36:29,20.0
871.0,-0.09136963,0.0044555664,0.024963378999999997,-73.70992,10.335877,0.8244275,2019-09-07 13:36:29,20.0
872.0,-0.10699463,-0.0006103515599999999,0.027526855,-84.75572,18.87023,-14.022901000000001,2019-09-07 13:36:29,20.0
873.0,-0.10815430000000001,-0.012756348,0.032226562,-78.12977,-9.366412,-15.374045,2019-09-07 13:36:29,20.0
874.0,-0.08270264,-0.012573242,0.008544922,-37.732826,-25.38168,-7.152672,2019-09-07 13:36:29,20.0
875.0,-0.12719727,-0.003540039,-0.025390625,15.40458,9.358779,-4.1679387000000006,2019-09-07 13:36:29,20.0
876.0,-0.21228027,0.0036621094,-0.020263672,30.442749,11.595419999999999,-12.015267,2019-09-07 13:36:29,20.0
877.0,-0.26525879999999996,0.009155273,-0.0146484375,3.961832,-62.480915,3.9389312000000007,2019-09-07 13:36:29,20.0
878.0,-0.21014404,0.004028320300000001,-0.016906738,14.038167999999999,-65.24428,-0.9541985000000001,2019-09-07 13:36:29,20.0
879.0,-0.23382568,0.014770508,-0.010375977,21.167938,-38.435116,-14.770992000000001,2019-09-07 13:36:29,20.0
880.0,-0.1875,0.010375977,-0.0013427734,19.213741,-27.419846999999997,-15.068703,2019-09-07 13:36:29,20.0
881.0,-0.14105225,0.0033569335999999996,0.011291503999999999,9.954199000000001,8.641221,-13.961832000000001,2019-09-07 13:36:29,20.0
882.0,-0.10327148400000001,0.0025634766,0.022399902000000003,13.145039,34.641220000000004,-16.038168,2019-09-07 13:36:29,20.0
883.0,-0.08203125,0.008728027,0.02947998,3.129771,50.931297,-21.900763,2019-09-07 13:36:29,20.0
884.0,-0.07470703,-0.0028686523,0.023864746000000003,-15.862596,67.816795,-24.343512,2019-09-07 13:36:29,20.0
885.0,-0.07434082,-0.013427733999999998,0.020935059,-11.770992,69.53435,-31.931296999999997,2019-09-07 13:36:29,20.0
886.0,-0.08264160000000001,-0.004028320300000001,0.019836426,-2.961832,67.25191,-44.312977000000004,2019-09-07 13:36:29,20.0
887.0,-0.09161377,0.0021362305,0.022277832,8.931297,56.221375,-57.15266999999999,2019-09-07 13:36:29,20.0
888.0,-0.09442139,-0.00024414062000000002,0.009765625,35.496179999999995,40.129771999999996,-62.679390000000005,2019-09-07 13:36:29,20.0
889.0,-0.09484863,0.0056152343999999995,0.012390136999999999,65.48855,12.587786999999999,-59.18320500000001,2019-09-07 13:36:29,20.0
890.0,-0.0847168,0.009155273,0.0073242188,97.48092,3.1145039,-50.503820000000005,2019-09-07 13:36:29,20.0
891.0,-0.09814453,0.02178955,0.0032348633000000003,97.31298000000001,12.717557000000001,-38.725190000000005,2019-09-07 13:36:29,20.0
892.0,-0.101379395,0.023803711,0.018371582,88.458015,-5.442748,-27.824427000000004,2019-09-07 13:36:29,20.0
893.0,-0.10815430000000001,0.021606445,0.014465332,69.16031,-10.045800999999999,-14.641221,2019-09-07 13:36:29,20.0
894.0,-0.09924316400000001,0.025939941,0.016418457,51.17557,-11.748092,-7.0839696,2019-09-07 13:36:29,20.0
895.0,-0.07788086,0.023010253999999997,0.013183594,34.412212,-14.580152499999999,-0.6259541999999999,2019-09-07 13:36:29,20.0
896.0,-0.09509277,0.028808594,-0.016479492,17.0,9.946565,1.4961832,2019-09-07 13:36:29,20.0
897.0,-0.18206787,0.021240234,-0.004638672,11.938931,54.099236,-5.3511453,2019-09-07 13:36:29,20.0
898.0,-0.22564697,0.024658202999999997,0.0037231445,-22.656488,-6.7175574000000005,6.7480917,2019-09-07 13:36:29,20.0
899.0,-0.17340088,0.016296387,0.030334472999999997,-50.732826,-6.8549619999999996,13.442748000000002,2019-09-07 13:36:29,20.0
900.0,-0.17144775,0.01171875,0.008544922,-51.496179999999995,28.87023,22.87023,2019-09-07 13:36:29,20.0
901.0,-0.24621582,0.007446289,0.011962891000000002,-89.55725,42.458015,34.931297,2019-09-07 13:36:29,20.0
902.0,-0.1953125,-0.005676269499999999,0.032348632999999995,-122.0687,15.870229,52.679390000000005,2019-09-07 13:36:29,20.0
903.0,-0.15881348,-0.019897461,0.032409667999999996,-129.9771,14.877863,54.190838,2019-09-07 13:36:29,20.0
904.0,-0.1182251,-0.016479492,0.026916503999999997,-105.061066,-3.9541983999999997,52.885498,2019-09-07 13:36:29,20.0
905.0,-0.09527588,-0.024169922000000003,0.02355957,-69.221375,-6.6335880000000005,49.839695,2019-09-07 13:36:30,20.0
906.0,-0.085998535,-0.022949219,0.02545166,-27.587785999999998,-0.8091603,44.610687,2019-09-07 13:36:30,20.0
907.0,-0.093688965,-0.0078125,0.03137207,0.41984734,-0.8015267,34.809162,2019-09-07 13:36:30,20.0
908.0,-0.08648682,-0.0036010741999999997,0.034118652,1.5267175,1.4580153,19.053434,2019-09-07 13:36:30,20.0
909.0,-0.087402344,0.0072631836,0.03314209,-14.007632999999998,0.67175573,7.70229,2019-09-07 13:36:30,20.0
910.0,-0.07421875,0.0016479492000000002,0.035095215,-41.89313,-1.2900764,0.6259541999999999,2019-09-07 13:36:30,20.0
911.0,-0.06768799,0.0021362305,0.030761719,-57.900764,-9.0992365,1.5877863,2019-09-07 13:36:30,20.0
912.0,-0.0715332,-0.0028076171999999997,0.010925293,-55.396946,3.5190839999999994,0.7557252,2019-09-07 13:36:30,20.0
913.0,-0.10876465,0.00579834,0.015014648,-50.709922999999996,28.053434000000003,-6.7328243,2019-09-07 13:36:30,20.0
914.0,-0.14050293,0.0007934570299999999,0.02532959,-59.114502,-7.656488400000001,-7.80916,2019-09-07 13:36:30,20.0
915.0,-0.11126709,-0.010681152,0.012512207,-41.190838,-56.221375,1.1221374,2019-09-07 13:36:30,20.0
916.0,-0.07824707,-0.0033569335999999996,0.008361816,0.64122134,-41.46565,7.8549619999999996,2019-09-07 13:36:30,20.0
917.0,-0.122924805,0.008850098,-0.020263672,35.625954,-5.40458,14.40458,2019-09-07 13:36:30,20.0
918.0,-0.20989989999999997,0.013977051,-0.01586914,28.648854999999998,-21.809160000000002,16.908398000000002,2019-09-07 13:36:30,20.0
919.0,-0.21899414,0.009887695,-0.017822266,-1.2061069,-64.59541999999999,20.900763,2019-09-07 13:36:30,20.0
920.0,-0.20428467,0.012390136999999999,-0.010681152,-3.6412212999999998,-60.0,6.4885497,2019-09-07 13:36:30,20.0
921.0,-0.2298584,0.024291992000000002,-0.0029296875,-0.38167940000000006,-23.48855,-25.412214000000002,2019-09-07 13:36:30,20.0
922.0,-0.19647217,0.028991700000000002,0.0036621094,-10.427481,-6.9160304,-35.076336,2019-09-07 13:36:30,20.0
923.0,-0.15411377,0.0034179688000000002,0.014709473,-8.068703,32.839695,-43.076336,2019-09-07 13:36:30,20.0
924.0,-0.10968017599999999,0.009094238000000001,0.022644043,0.6946565,58.610687,-38.87786,2019-09-07 13:36:30,20.0
925.0,-0.09832764,0.0020141601999999997,0.032348632999999995,-9.137404,65.816795,-32.404579999999996,2019-09-07 13:36:30,20.0
926.0,-0.07867432,0.00030517577999999995,0.024291992000000002,-31.358778000000004,74.28244000000001,-22.770992,2019-09-07 13:36:30,20.0
927.0,-0.07873535,-0.0048828125,0.019592285,-26.984734000000003,73.63359,-15.519084,2019-09-07 13:36:30,20.0
928.0,-0.08264160000000001,-0.00030517577999999995,0.020935059,-8.358779,51.74046,-29.206106,2019-09-07 13:36:30,20.0
929.0,-0.07659912,0.0005493164,0.021606445,14.793892999999999,20.534351,-35.244274,2019-09-07 13:36:30,20.0
930.0,-0.07244873,0.0028076171999999997,0.010437011999999999,38.931297,6.9541984,-42.412212,2019-09-07 13:36:30,20.0
931.0,-0.07592773400000001,0.011169433999999999,0.00018310547,59.190838,2.8625952999999997,-43.17557,2019-09-07 13:36:30,20.0
932.0,-0.10119629,0.012756348,-0.0036621094,68.175575,0.6183206,-39.15267,2019-09-07 13:36:30,20.0
933.0,-0.10852051,0.017150878999999997,0.008239746,62.40458,-21.480917,-28.42748,2019-09-07 13:36:30,20.0
934.0,-0.0925293,0.008178711,0.016174316,50.885498,-47.51145,-16.167938,2019-09-07 13:36:30,20.0
935.0,-0.06994629,0.016052246000000003,0.015563965,52.007633,-38.725190000000005,-6.0458016,2019-09-07 13:36:30,20.0
936.0,-0.0949707,0.02178955,-0.011047363000000001,58.458015,12.931297,-2.3969467,2019-09-07 13:36:30,20.0
937.0,-0.20172119,0.02557373,-0.006164551,55.961833999999996,56.351147,-10.816792999999999,2019-09-07 13:36:30,20.0
938.0,-0.2442627,0.030395507999999998,0.023010253999999997,-6.816794,18.694656,-9.389313000000001,2019-09-07 13:36:30,20.0
939.0,-0.17443848,0.020996094,0.04345703,-58.938930000000006,23.770992,-10.137404,2019-09-07 13:36:30,20.0
940.0,-0.18884277,0.016540527,0.00024414062000000002,-72.69466,81.36641,-4.2824425999999995,2019-09-07 13:36:31,20.0
941.0,-0.25512695,-0.008728027,0.005676269499999999,-158.21375,46.305344,20.320610000000002,2019-09-07 13:36:31,20.0
942.0,-0.1685791,-0.042663574,0.01159668,-159.38168000000002,-10.938931,60.793890000000005,2019-09-07 13:36:31,20.0
943.0,-0.13562012,-0.036987305,0.016357422,-85.99235999999999,-27.290077,75.35114,2019-09-07 13:36:31,20.0
944.0,-0.12225342,-0.034301757999999995,0.013671875,-31.526718,-50.458015,77.57252,2019-09-07 13:36:31,20.0
945.0,-0.10736084,-0.026672362999999998,0.018676758,-1.9160305,-58.709922999999996,69.25191,2019-09-07 13:36:31,20.0
946.0,-0.09112549,-0.031311035,0.026367188,29.152671999999995,-65.42748,64.65649,2019-09-07 13:36:31,20.0
947.0,-0.072753906,-0.01751709,0.030517577999999997,48.374046,-51.839695,51.0229,2019-09-07 13:36:31,20.0
948.0,-0.070495605,0.0037231445,0.041015625,44.725190000000005,-31.564885999999998,33.23664,2019-09-07 13:36:31,20.0
949.0,-0.06799316400000001,0.0095825195,0.036621094,11.320611,-11.267176,18.900763,2019-09-07 13:36:31,20.0
950.0,-0.068481445,0.012329102,0.031433105,-33.030533,0.9236641,7.038167999999999,2019-09-07 13:36:31,20.0
951.0,-0.0690918,0.009887695,0.027038574,-58.702290000000005,14.587786999999999,-1.2137405,2019-09-07 13:36:31,20.0
952.0,-0.09204101599999999,0.0064086914,0.017211914,-73.45038000000001,32.244274,-12.923664,2019-09-07 13:36:31,20.0
953.0,-0.11871338,0.0006103515599999999,0.019958496000000003,-82.07633,34.954197,-21.748089999999998,2019-09-07 13:36:31,20.0
954.0,-0.11676025400000001,-0.009033203,0.02368164,-63.366413,5.190840000000001,-23.732824,2019-09-07 13:36:31,20.0
955.0,-0.09423828,-0.006591797,0.012634277,-26.045801,-25.229008,-9.9007635,2019-09-07 13:36:31,20.0
956.0,-0.09545898400000001,-0.007446289,-0.013000488000000001,26.76336,-14.648855,-1.9312977,2019-09-07 13:36:31,20.0
957.0,-0.16320801,0.001953125,-0.03173828,57.748093000000004,15.473282999999999,0.73282444,2019-09-07 13:36:31,20.0
958.0,-0.23443604,0.0036621094,-0.024902344,46.923664,-35.908398,11.465649,2019-09-07 13:36:31,20.0
959.0,-0.21490479,-0.00048828125,-0.008850098,39.603054,-79.34351,10.244275,2019-09-07 13:36:31,20.0
960.0,-0.22161865,0.015808105,-0.0115356445,53.23664,-38.809162,-14.435115,2019-09-07 13:36:31,20.0
961.0,-0.23596191,0.018310547,0.00024414062000000002,29.48855,-24.908398000000002,-27.099237,2019-09-07 13:36:31,20.0
962.0,-0.17059326,0.016723633,0.014099121000000001,29.160304999999997,6.664122,-34.641220000000004,2019-09-07 13:36:31,20.0
963.0,-0.123168945,0.01361084,0.022399902000000003,26.244274,37.732826,-34.366413,2019-09-07 13:36:31,20.0
964.0,-0.09509277,0.00390625,0.020874023000000002,22.625954,53.274809999999995,-30.496183000000002,2019-09-07 13:36:31,20.0
965.0,-0.07501221,-0.0012817383,0.017150878999999997,13.954199,66.84733,-26.267176,2019-09-07 13:36:31,20.0
966.0,-0.081848145,-0.001953125,0.017822266,3.5496182000000003,77.29008,-24.89313,2019-09-07 13:36:31,20.0
967.0,-0.08996582,-0.0044555664,0.020202637,4.587786,74.87786,-32.305344,2019-09-07 13:36:31,20.0
968.0,-0.09100342,0.00024414062000000002,0.01953125,13.0992365,71.27481,-48.480915,2019-09-07 13:36:31,20.0
969.0,-0.09869385,0.0022583008,0.02319336,24.519083,59.931297,-63.396946,2019-09-07 13:36:31,20.0
970.0,-0.093933105,-0.0006713867,0.015197753999999999,43.343509999999995,33.038166,-71.80153,2019-09-07 13:36:31,20.0
971.0,-0.07824707,0.010070800999999999,0.012939453,70.1145,9.312977,-73.23664000000001,2019-09-07 13:36:31,20.0
972.0,-0.07843017599999999,0.018371582,0.0006103515599999999,80.0458,8.923664,-65.12977,2019-09-07 13:36:31,20.0
973.0,-0.09576416,0.014038086000000002,-0.0018310547,73.75572,18.10687,-54.458015,2019-09-07 13:36:31,20.0
974.0,-0.11993408,0.014770508,0.012207031,57.82443000000001,-4.5343513,-41.282444,2019-09-07 13:36:32,20.0
975.0,-0.07952881,0.012573242,0.014892578,47.038166,-46.251907,-20.442749,2019-09-07 13:36:32,20.0
976.0,-0.05670166,0.0032348633000000003,0.019897461,47.748093,-22.259542,-10.725191,2019-09-07 13:36:32,20.0
977.0,-0.09143066400000001,0.026794434,-0.01184082,51.076336,21.0,-3.59542,2019-09-07 13:36:32,20.0
978.0,-0.21405029999999997,0.026489257999999998,-0.0048217773,52.17557,73.33588,-9.908397,2019-09-07 13:36:32,20.0
979.0,-0.25256348,0.026550293,0.007080078,-5.5343513,-9.145039,12.053435,2019-09-07 13:36:32,20.0
980.0,-0.17407227,0.024841309,0.020080566,-32.78626,-9.893129,15.473282999999999,2019-09-07 13:36:32,20.0
981.0,-0.21850586,0.020324707,0.0012207030999999999,-47.23664,52.992367,28.786259,2019-09-07 13:36:32,20.0
982.0,-0.23181152,-0.0037841796999999997,0.014770508,-116.58015400000001,-2.7480917000000002,63.83969499999999,2019-09-07 13:36:32,20.0
983.0,-0.17401123,-0.027404785,0.024780273,-133.29007,-7.656488400000001,84.29008,2019-09-07 13:36:32,20.0
984.0,-0.15319824,-0.026062012000000002,0.021484375,-113.41221999999999,-30.931296999999997,94.12977,2019-09-07 13:36:32,20.0
985.0,-0.12634277,-0.024353027000000003,0.014709473,-69.03817,-48.900764,89.52672,2019-09-07 13:36:32,20.0
986.0,-0.12207031,-0.025512695,0.019226074,-48.274809999999995,-56.77099200000001,77.99235999999999,2019-09-07 13:36:32,20.0
987.0,-0.101379395,-0.036865234,0.019836426,-9.992367,-65.03817,66.87023,2019-09-07 13:36:32,20.0
988.0,-0.07867432,-0.028320312,0.031982422,26.282442,-47.618320000000004,53.801525,2019-09-07 13:36:32,20.0
989.0,-0.07141113,-0.0048217773,0.032043457000000004,28.267176,-34.038166,41.290077000000004,2019-09-07 13:36:32,20.0
990.0,-0.07287598,-0.0005493164,0.034362792999999996,9.442748,-17.290077,29.908398,2019-09-07 13:36:32,20.0
991.0,-0.06213379,0.009094238000000001,0.029663086,-23.290077,-7.5038165999999995,17.908398000000002,2019-09-07 13:36:32,20.0
992.0,-0.07006836,0.0064697266000000005,0.022521972999999997,-53.061069999999994,15.564885,5.412214,2019-09-07 13:36:32,20.0
993.0,-0.10211182,0.00012207031000000001,0.029418945,-78.816795,37.435116,-12.564885,2019-09-07 13:36:32,20.0
994.0,-0.109191895,-0.008361816,0.03552246,-100.03053,23.816793,-22.450382,2019-09-07 13:36:32,20.0
995.0,-0.09588623,-0.0115356445,0.026000977,-82.66412,7.923664,-25.259542,2019-09-07 13:36:32,20.0
996.0,-0.09552002,-0.015319824,0.0107421875,-40.076336,6.5343513,-25.671754999999997,2019-09-07 13:36:32,20.0
997.0,-0.11828613,-0.002380371,-0.027954102,11.946565,17.0,-20.954199,2019-09-07 13:36:32,20.0
998.0,-0.20129395,0.004211426,-0.018981934,33.053436,30.175572999999996,-31.0,2019-09-07 13:36:32,20.0
999.0,-0.25177002,-0.00036621094,-0.014587402,25.358778,-42.08397,-18.06107,2019-09-07 13:36:32,20.0
1000.0,-0.21228027,0.010131836,-0.006286621,29.022902000000002,-57.137405,-24.068703,2019-09-07 13:36:32,20.0
1001.0,-0.22961426,0.025024414,-0.01171875,47.351147,-26.404581,-42.12214,2019-09-07 13:36:32,20.0
1002.0,-0.2142334,0.016845703,-0.003540039,33.923664,-29.48855,-37.931297,2019-09-07 13:36:32,20.0
1003.0,-0.16656494,-0.0008544922000000001,0.009887695,34.404579999999996,-0.7633588000000001,-40.641220000000004,2019-09-07 13:36:32,20.0
1004.0,-0.115356445,0.004211426,0.019470215,35.55725,25.38168,-35.10687,2019-09-07 13:36:32,20.0
1005.0,-0.08795166,0.016784668,0.024169922000000003,26.793894,41.76336,-35.51145,2019-09-07 13:36:32,20.0
1006.0,-0.07696533,0.00390625,0.018127441,4.519083999999999,56.53435,-39.091602,2019-09-07 13:36:32,20.0
1007.0,-0.08374023400000001,-0.005554199,0.015136719,4.931298,65.41221999999999,-40.030533,2019-09-07 13:36:32,20.0
1008.0,-0.083984375,-0.0012207030999999999,0.019104003999999997,9.801527,59.083969999999994,-48.564884,2019-09-07 13:36:32,20.0
1009.0,-0.08514404,0.005554199,0.0178833,25.206106,53.648853,-59.587788,2019-09-07 13:36:32,20.0
1010.0,-0.09741211,0.010375977,0.02178955,39.9771,40.969467,-64.80153,2019-09-07 13:36:32,20.0
1011.0,-0.09222412,0.0037841796999999997,0.020874023000000002,55.045803,15.175572,-61.809162,2019-09-07 13:36:32,20.0
1012.0,-0.08099365,0.009338379,0.003540039,79.12977,5.5038165999999995,-53.809162,2019-09-07 13:36:33,20.0
1013.0,-0.1071167,0.016113281,0.0073242188,88.183205,8.7786255,-39.221375,2019-09-07 13:36:33,20.0
1014.0,-0.11456299,0.022949219,0.016113281,77.07633,-14.091603,-23.610687,2019-09-07 13:36:33,20.0
1015.0,-0.09503174,0.012329102,0.011779785,67.36641,-35.778625,-7.2671757,2019-09-07 13:36:33,20.0
1016.0,-0.07843017599999999,0.015197753999999999,0.016357422,60.900764,-30.862595000000002,6.603053599999999,2019-09-07 13:36:33,20.0
1017.0,-0.074035645,0.029663086,-0.00042724610000000003,56.038166000000004,-13.198473000000002,11.21374,2019-09-07 13:36:33,20.0
1018.0,-0.15039062,0.030212402000000003,-0.018371582,58.312977000000004,73.900764,2.7709923,2019-09-07 13:36:33,20.0
1019.0,-0.23388672,0.036804199999999995,0.008911133,-2.557252,-1.3740458,-4.152672,2019-09-07 13:36:33,20.0
1020.0,-0.17370605,0.034362792999999996,0.038879395,-60.648853,3.0305343,-4.8015265,2019-09-07 13:36:33,20.0
1021.0,-0.1317749,0.028564452999999997,0.010986328,-84.01527,38.229008,4.1374044,2019-09-07 13:36:33,20.0
1022.0,-0.26104736,0.014038086000000002,0.010314941,-113.137405,93.183205,11.145039,2019-09-07 13:36:33,20.0
1023.0,-0.23266602,-0.02532959,0.03125,-174.9084,5.7251905999999995,57.076336,2019-09-07 13:36:33,20.0
1024.0,-0.15136719,-0.03778076,0.03253174,-148.39694,2.1603053,74.98473,2019-09-07 13:36:33,20.0
1025.0,-0.13244629,-0.028930664,0.029663086,-101.67939,-20.763360000000002,84.62595,2019-09-07 13:36:33,20.0
1026.0,-0.13079834,-0.030151367000000002,0.019348145,-59.709922999999996,-34.473279999999995,82.20611,2019-09-07 13:36:33,20.0
1027.0,-0.11529541,-0.03869629,0.023925781,-33.603054,-54.572517000000005,78.91603,2019-09-07 13:36:33,20.0
1028.0,-0.09631348,-0.033508300000000005,0.030639648,5.519083999999999,-47.671757,66.229004,2019-09-07 13:36:33,20.0
1029.0,-0.08605957,-0.0079956055,0.041809082000000004,16.412214000000002,-31.229008,48.244274,2019-09-07 13:36:33,20.0
1030.0,-0.08770752,0.0017700195,0.04425049,-12.961832000000001,-4.473282299999999,29.274809,2019-09-07 13:36:33,20.0
1031.0,-0.07647705,-0.002380371,0.047302246,-46.74046,0.19083970000000003,13.305344,2019-09-07 13:36:33,20.0
1032.0,-0.07360839999999999,-0.003540039,0.04107666,-69.76335999999999,1.6870228999999999,5.2290077,2019-09-07 13:36:33,20.0
1033.0,-0.06829834,-0.007629394499999999,0.02178955,-72.900764,10.114504,0.22900763,2019-09-07 13:36:33,20.0
1034.0,-0.12677002,-0.01361084,0.023803711,-64.32061,1.7557251,-13.480916,2019-09-07 13:36:33,20.0
1035.0,-0.105529785,-0.016479492,0.020080566,-34.53435,-27.541984999999997,-15.152672,2019-09-07 13:36:33,20.0
1036.0,-0.09173584,-0.01373291,0.009277344,6.4961834000000005,-33.389313,-11.625955000000001,2019-09-07 13:36:33,20.0
1037.0,-0.09661865,-0.00042724610000000003,-0.005676269499999999,41.961834,-43.15267,0.6259541999999999,2019-09-07 13:36:33,20.0
1038.0,-0.13769531,0.005065918,-0.029052734,73.79389,-10.770992,6.0610685,2019-09-07 13:36:33,20.0
1039.0,-0.22424316,0.021728516,-0.0044555664,54.77099200000001,-41.290077000000004,-2.221374,2019-09-07 13:36:33,20.0
1040.0,-0.20898438,0.015808105,0.012390136999999999,23.114504,-54.068703,-10.045800999999999,2019-09-07 13:36:33,20.0
1041.0,-0.20623779999999997,0.03186035,0.003540039,13.770992000000001,-4.6412214999999994,-38.503820000000005,2019-09-07 13:36:33,20.0
1042.0,-0.22735596,0.03186035,-0.0036621094,-8.557252,29.801527,-53.14504,2019-09-07 13:36:33,20.0
1043.0,-0.18170166,0.015136719,0.0073242188,-29.854961,52.908398,-54.9771,2019-09-07 13:36:33,20.0
1044.0,-0.15228271,0.013305663999999998,0.028198242000000002,-57.419846,73.51145,-46.664124,2019-09-07 13:36:33,20.0
1045.0,-0.113342285,-0.0056152343999999995,0.033203125,-73.59541999999999,77.175575,-37.282444,2019-09-07 13:36:33,20.0
1046.0,-0.09277344,-0.005432129,0.026794434,-76.33588,74.32061,-28.351145000000002,2019-09-07 13:36:34,20.0
1047.0,-0.07879639,-0.014160156,0.023498535,-60.091602,66.778625,-21.152672,2019-09-07 13:36:34,20.0
1048.0,-0.09344482400000001,-0.022155762000000002,0.029846191,-26.877863,51.816795,-20.93893,2019-09-07 13:36:34,20.0
1049.0,-0.09155273400000001,-0.01977539,0.034484863,11.038167999999999,37.007633,-27.74809,2019-09-07 13:36:34,20.0
1050.0,-0.08770752,-0.012634277,0.031555176000000004,26.931296999999997,17.297710000000002,-30.625953999999997,2019-09-07 13:36:34,20.0
1051.0,-0.07891846,-0.004699707,0.030883789,50.580154,0.54198474,-27.908398,2019-09-07 13:36:34,20.0
1052.0,-0.07366943,-0.0020141601999999997,0.027648926,78.78626,-19.931297,-22.282442,2019-09-07 13:36:34,20.0
1053.0,-0.06542969,0.0015869141,0.011352538999999998,94.458015,-25.587785999999998,-13.0,2019-09-07 13:36:34,20.0
1054.0,-0.08911133,0.01574707,0.007446289,95.57252,-14.671756,-6.4961834000000005,2019-09-07 13:36:34,20.0
1055.0,-0.106933594,0.025390625,0.018371582,74.0458,-34.778625,1.2977100000000001,2019-09-07 13:36:34,20.0
1056.0,-0.09539795,0.01361084,0.016845703,42.91603,-68.099236,8.19084,2019-09-07 13:36:34,20.0
1057.0,-0.06109619,0.015258788999999998,0.020202637,31.580153000000003,-53.251906999999996,7.290076299999999,2019-09-07 13:36:34,20.0
1058.0,-0.08825683599999999,0.009887695,-0.016967773000000002,38.503820000000005,-7.9465647,3.5190839999999994,2019-09-07 13:36:34,20.0
1059.0,-0.18927002,0.036621094,-0.0036621094,42.25954,22.366413,-7.10687,2019-09-07 13:36:34,20.0
1060.0,-0.23895264,0.026062012000000002,0.02130127,-39.946564,-0.114503816,-13.702291,2019-09-07 13:36:34,20.0
1061.0,-0.17193604,0.014892578,0.049682617000000005,-69.98473,31.694656,-13.183207000000001,2019-09-07 13:36:34,20.0
1062.0,-0.20117188,0.018981934,0.012329102,-87.770996,88.541985,-3.1984732000000005,2019-09-07 13:36:34,20.0
1063.0,-0.2479248,-0.008850098,0.015197753999999999,-159.70993,60.38168,31.496183000000002,2019-09-07 13:36:34,20.0
1064.0,-0.1885376,-0.03277588,0.030334472999999997,-158.74046,31.908398,62.15266999999999,2019-09-07 13:36:34,20.0
1065.0,-0.12585449,-0.037109375,0.029174805,-130.73282,-14.167939000000002,78.45038000000001,2019-09-07 13:36:34,20.0
1066.0,-0.113220215,-0.022888184,0.025695799999999998,-81.53435,-27.450382,71.541985,2019-09-07 13:36:34,20.0
1067.0,-0.10699463,-0.03466797,0.02722168,-56.007633,-44.702290000000005,65.72519,2019-09-07 13:36:34,20.0
1068.0,-0.087768555,-0.040893555,0.031188965,-14.473282999999999,-47.572517,60.137405,2019-09-07 13:36:34,20.0
1069.0,-0.07208252,-0.02520752,0.04547119,19.122137,-30.335878000000005,44.618320000000004,2019-09-07 13:36:34,20.0
1070.0,-0.07122803,-0.002746582,0.049438477,14.725191,-13.671756,31.076335999999998,2019-09-07 13:36:34,20.0
1071.0,-0.07006836,0.0,0.04437256,-19.48855,6.862595599999999,19.274809,2019-09-07 13:36:34,20.0
1072.0,-0.072753906,-0.006164551,0.036865234,-52.84733000000001,16.564885999999998,4.847328,2019-09-07 13:36:34,20.0
1073.0,-0.095214844,-0.010498047,0.03125,-78.36641,33.618320000000004,-6.664122,2019-09-07 13:36:34,20.0
1074.0,-0.12145996,-0.012329102,0.041870117000000005,-96.89313,38.412212,-20.648854999999998,2019-09-07 13:36:34,20.0
1075.0,-0.11627197,-0.018432617,0.034118652,-89.43511,20.977098,-24.740458,2019-09-07 13:36:34,20.0
1076.0,-0.10119629,-0.029785156,0.024963378999999997,-43.244274,1.9236640999999999,-23.015266,2019-09-07 13:36:34,20.0
1077.0,-0.08477783,-0.020263672,0.011352538999999998,10.335877,-15.38168,-15.038167999999999,2019-09-07 13:36:34,20.0
1078.0,-0.115234375,-0.008300781,-0.009094238000000001,65.816795,-9.297709,-3.9160306000000005,2019-09-07 13:36:34,20.0
1079.0,-0.20379639,0.00592041,-0.0017089844000000001,88.20611,-21.977098,2.7099237,2019-09-07 13:36:34,20.0
1080.0,-0.22875977,0.013977051,0.005065918,58.87786,-65.37405,5.3129773,2019-09-07 13:36:34,20.0
1081.0,-0.20538330000000002,0.00793457,0.008605957,43.045803,-62.22900799999999,-1.4961832,2019-09-07 13:36:35,20.0
1082.0,-0.20440674,0.020690918,-0.0048828125,29.343512,-42.587788,-8.702291,2019-09-07 13:36:35,20.0
1083.0,-0.19830322,0.008422852,-0.0087890625,17.770992,-30.51145,-9.7404585,2019-09-07 13:36:35,20.0
1084.0,-0.17224121,-0.0038452148,0.005126953,12.793892999999999,-18.832062,-11.114504,2019-09-07 13:36:35,20.0
1085.0,-0.13580322,0.009094238000000001,0.01953125,6.038168,4.656488400000001,-16.496183,2019-09-07 13:36:35,20.0
1086.0,-0.099487305,0.004638672,0.026428222999999997,-0.9465648999999999,25.251910000000002,-26.068703,2019-09-07 13:36:35,20.0
1087.0,-0.08459473,0.005065918,0.032958984,-1.610687,38.25954,-34.015266,2019-09-07 13:36:35,20.0
1088.0,-0.08087158,-0.003540039,0.021850586,-7.885496000000001,39.748093,-41.992367,2019-09-07 13:36:35,20.0
1089.0,-0.07098389,-0.009887695,0.020385742,11.748092,40.129771999999996,-47.549618,2019-09-07 13:36:35,20.0
1090.0,-0.0758667,-0.005065918,0.028015137000000002,40.725190000000005,45.12214,-54.48855,2019-09-07 13:36:35,20.0
1091.0,-0.08483887,-0.0017089844000000001,0.025390625,53.992367,35.992367,-57.28244399999999,2019-09-07 13:36:35,20.0
1092.0,-0.07281494,-0.008483886999999999,0.026245117000000002,63.17556999999999,23.480917,-58.702290000000005,2019-09-07 13:36:35,20.0
1093.0,-0.06280517599999999,0.011779785,0.017822266,75.33588,8.2213745,-55.580154,2019-09-07 13:36:35,20.0
1094.0,-0.06597900400000001,0.00592041,0.004028320300000001,84.66412,15.274809,-49.78626,2019-09-07 13:36:35,20.0
1095.0,-0.09820557,0.017944336,0.010253906,86.29771,18.679389999999998,-43.099236,2019-09-07 13:36:35,20.0
1096.0,-0.10192871,0.014343261999999999,0.015930176,66.816795,-9.381680000000001,-33.84733,2019-09-07 13:36:35,20.0
1097.0,-0.07983398400000001,0.01763916,0.015808105,49.015266,-12.458015,-35.076336,2019-09-07 13:36:35,20.0
1098.0,-0.10827637,0.015991211,-0.018920898000000002,58.23664,35.770992,-38.137405,2019-09-07 13:36:35,20.0
1099.0,-0.21319580000000002,0.023742676,-0.007629394499999999,60.37404599999999,37.778625,-47.549618,2019-09-07 13:36:35,20.0
1100.0,-0.22912598,0.015563965,0.0078125,33.78626,22.900763,-38.381679999999996,2019-09-07 13:36:35,20.0
1101.0,-0.16363525,0.025939941,0.025268555,20.343512,41.206109999999995,-25.541985,2019-09-07 13:36:35,20.0
1102.0,-0.18701172,0.02178955,0.015258788999999998,12.2213745,94.48092,-5.7938933,2019-09-07 13:36:35,20.0
1103.0,-0.21936035,0.0063476562,0.036315917999999996,-69.381676,81.41221999999999,21.648854999999998,2019-09-07 13:36:35,20.0
1104.0,-0.16412354,-0.012878418,0.039855957000000004,-124.84733,75.175575,35.816795,2019-09-07 13:36:35,20.0
1105.0,-0.14672852,-0.020690918,0.028991700000000002,-127.39695,44.389313,46.129771999999996,2019-09-07 13:36:35,20.0
1106.0,-0.12976074,-0.01763916,0.02557373,-103.96183,14.687023000000002,39.961834,2019-09-07 13:36:35,20.0
1107.0,-0.11157226599999999,-0.040405273,0.034851073999999996,-76.8855,-13.137404,41.0,2019-09-07 13:36:35,20.0
1108.0,-0.08880615,-0.053649902,0.039001465,15.59542,-21.770992,36.0,2019-09-07 13:36:35,20.0
1109.0,-0.07769775400000001,-0.024536132999999998,0.036193848,82.9313,-6.9847326,27.816793,2019-09-07 13:36:35,20.0
1110.0,-0.0871582,-0.0087890625,0.046569824,87.221375,-0.8854962,18.740458,2019-09-07 13:36:35,20.0
1111.0,-0.079589844,-0.0014648438,0.041320800000000005,45.908398,5.3893127,9.801527,2019-09-07 13:36:35,20.0
1112.0,-0.08489989999999999,0.0031738281,0.041320800000000005,4.740458,7.068702,-2.183206,2019-09-07 13:36:35,20.0
1113.0,-0.09265137,0.004333496,0.034240723,-35.954197,9.770992,-16.229008,2019-09-07 13:36:35,20.0
1114.0,-0.10992432,0.0015258789000000001,0.026916503999999997,-52.412212,13.572519,-24.923664000000002,2019-09-07 13:36:35,20.0
1115.0,-0.12597656,-0.006042480500000001,0.02709961,-48.679390000000005,-2.0610688,-26.442749,2019-09-07 13:36:35,20.0
1116.0,-0.101745605,-0.0126953125,0.016113281,-19.091601999999998,-11.366412,-21.687023,2019-09-07 13:36:35,20.0
1117.0,-0.11071777,-0.0061035156000000005,0.010620117,15.7786255,-7.137404400000001,-14.259541500000001,2019-09-07 13:36:35,20.0
1118.0,-0.14685059,0.019226074,-0.010192871,41.595420000000004,3.40458,-5.3053436,2019-09-07 13:36:36,20.0
1119.0,-0.20092773,0.016479492,-0.0020751953,21.564885999999998,-9.450381,-4.40458,2019-09-07 13:36:36,20.0
1120.0,-0.21484375,0.017089844,0.008850098,-9.526717,-26.145039,-5.9007635,2019-09-07 13:36:36,20.0
1121.0,-0.20147705,0.028198242000000002,0.0010375977,-24.610687,-15.229007999999999,-6.740458,2019-09-07 13:36:36,20.0
1122.0,-0.20770264,0.026000977,0.005859375,-64.938934,-10.091603,-5.0992365,2019-09-07 13:36:36,20.0
1123.0,-0.17987060000000002,0.012329102,0.005676269499999999,-92.74809,-12.480916,4.4961834000000005,2019-09-07 13:36:36,20.0
1124.0,-0.16394043,0.008911133,0.010925293,-104.64121999999999,-13.290076000000001,17.809160000000002,2019-09-07 13:36:36,20.0
1125.0,-0.13824463,0.0010375977,0.0087890625,-98.28244000000001,-34.809162,34.129771999999996,2019-09-07 13:36:36,20.0
1126.0,-0.11059569999999999,0.0067749023,0.011657715,-78.9313,-47.0,43.038166,2019-09-07 13:36:36,20.0
1127.0,-0.10638428,-0.004272461,0.016296387,-58.16030500000001,-59.748093000000004,55.267174,2019-09-07 13:36:36,20.0
1128.0,-0.09289551,-0.005737304699999999,0.0138549805,-37.404579999999996,-64.0687,60.885498,2019-09-07 13:36:36,20.0
1129.0,-0.11267089999999998,-0.0010986328,0.02520752,-21.183207,-56.12214,59.22900799999999,2019-09-07 13:36:36,20.0
1130.0,-0.11468506,-0.0034179688000000002,0.024475097999999997,-29.465649,-68.19847,57.053436,2019-09-07 13:36:36,20.0
1131.0,-0.11871338,-0.011962891000000002,0.022644043,-22.229008,-72.48855,51.129771999999996,2019-09-07 13:36:36,20.0
1132.0,-0.10809326,-0.002746582,0.0126953125,-10.358779,-78.70992,50.458015,2019-09-07 13:36:36,20.0
1133.0,-0.10626221,-0.008911133,0.010803223,3.6793892,-74.57252,45.08397,2019-09-07 13:36:36,20.0
1134.0,-0.11761474599999999,-0.009277344,0.0029907227,23.89313,-63.221375,39.51145,2019-09-07 13:36:36,20.0
1135.0,-0.13446045,0.0017700195,0.00592041,33.816795,-53.885498,27.221375,2019-09-07 13:36:36,20.0
1136.0,-0.12426758,0.0020141601999999997,0.0067749023,37.099236,-43.687022999999996,8.549619,2019-09-07 13:36:36,20.0
1137.0,-0.14654541,0.013916016000000002,0.0063476562,39.0229,-2.4045799999999997,-18.473282,2019-09-07 13:36:36,20.0
1138.0,-0.14312744,0.010498047,0.0126953125,30.648854999999998,19.587785999999998,-37.343509999999995,2019-09-07 13:36:36,20.0
1139.0,-0.13665771,0.005981445300000001,0.01763916,26.389313,66.061066,-58.64122,2019-09-07 13:36:36,20.0
1140.0,-0.12243652,0.0061035156000000005,0.03289795,9.763359,82.00764000000001,-62.412212,2019-09-07 13:36:36,20.0
1141.0,-0.10052489999999999,0.0018920898,0.032165527,-4.0992365,102.53435,-62.801525,2019-09-07 13:36:36,20.0
1142.0,-0.11444092,-0.0036621094,0.02355957,-28.564885999999998,105.83206000000001,-56.274809999999995,2019-09-07 13:36:36,20.0
1143.0,-0.14343262,-0.005676269499999999,0.017456055,-35.221375,91.145035,-48.633587,2019-09-07 13:36:36,20.0
1144.0,-0.15802002,-0.0015258789000000001,0.017944336,-34.297709999999995,70.21374,-43.0,2019-09-07 13:36:36,20.0
1145.0,-0.14959717,-0.009277344,0.02130127,-9.641221,51.564884,-39.778625,2019-09-07 13:36:36,20.0
1146.0,-0.1328125,-0.020080566,0.018554688,27.923664000000002,45.679390000000005,-35.343509999999995,2019-09-07 13:36:36,20.0
1147.0,-0.12738037,-0.00030517577999999995,0.017028809,57.15266999999999,39.580154,-25.244274,2019-09-07 13:36:36,20.0
1148.0,-0.12683105,-0.00048828125,0.022521972999999997,73.0458,40.25954,-21.274809,2019-09-07 13:36:36,20.0
1149.0,-0.12280273400000001,0.0043945312,0.032287598,51.473279999999995,38.374046,-25.42748,2019-09-07 13:36:36,20.0
1150.0,-0.10284424,0.014282227,0.03265381,21.793894,37.091602,-32.984734,2019-09-07 13:36:36,20.0
1151.0,-0.10217285,0.015319824,0.030639648,-6.8015265,40.687022999999996,-36.969467,2019-09-07 13:36:36,20.0
1152.0,-0.09985351599999999,0.0013427734,0.027526855,-23.473282,43.770992,-38.427483,2019-09-07 13:36:36,20.0
1153.0,-0.11077881,0.0020751953,0.026672362999999998,-19.961832,47.267174,-36.900764,2019-09-07 13:36:37,20.0
1154.0,-0.12243652,0.0015258789000000001,0.028747559,-19.152672,45.274809999999995,-33.74046,2019-09-07 13:36:37,20.0
1155.0,-0.123168945,0.00042724610000000003,0.028747559,-10.267176,28.48855,-20.419847,2019-09-07 13:36:37,20.0
1156.0,-0.107421875,0.0033569335999999996,0.026123047000000003,5.885496,18.312977,-8.641221,2019-09-07 13:36:37,20.0
1157.0,-0.10107422,0.008483886999999999,0.01751709,12.732824,4.10687,2.923664,2019-09-07 13:36:37,20.0
1158.0,-0.11071777,-0.0029296875,0.01953125,22.748089999999998,-8.19084,16.412214000000002,2019-09-07 13:36:37,20.0
1159.0,-0.105529785,0.008056641,0.016967773000000002,22.984734,-20.51145,24.404581,2019-09-07 13:36:37,20.0
1160.0,-0.10449219,0.008544922,0.013366699,27.603053999999997,-31.587785999999998,30.099237,2019-09-07 13:36:37,20.0
1161.0,-0.12054443,0.010375977,0.013366699,25.809160000000002,-39.755726,38.25954,2019-09-07 13:36:37,20.0
1162.0,-0.118652344,-0.004211426,0.0178833,24.396946,-55.251906999999996,49.496179999999995,2019-09-07 13:36:37,20.0
1163.0,-0.095825195,0.005126953,0.01763916,30.42748,-62.61832,55.450382,2019-09-07 13:36:37,20.0
1164.0,-0.10705566400000001,0.009338379,-0.0015258789000000001,43.709922999999996,-42.83206,58.77099200000001,2019-09-07 13:36:37,20.0
1165.0,-0.16137695,0.011779785,0.005493164,36.78626,-32.83206,55.30534399999999,2019-09-07 13:36:37,20.0
1166.0,-0.20074463,0.012023926,0.010253906,3.2366412,-46.83206,42.87786,2019-09-07 13:36:37,20.0
1167.0,-0.18121338,0.01361084,0.0021972656,-9.770992,-47.91603,31.824427000000004,2019-09-07 13:36:37,20.0
1168.0,-0.20977783,0.018676758,-0.0041503906,-27.648854999999998,-18.557251,11.2213745,2019-09-07 13:36:37,20.0
1169.0,-0.20867919999999998,0.001953125,0.0021972656,-44.687022999999996,-20.824427,1.7175573,2019-09-07 13:36:37,20.0
1170.0,-0.16894531,-0.0034790040000000004,0.0099487305,-38.198475,4.9007635,-4.587786,2019-09-07 13:36:37,20.0
1171.0,-0.14587402,-0.007507324,0.012756348,-26.74809,14.175572,-6.2137402999999996,2019-09-07 13:36:37,20.0
1172.0,-0.118652344,-0.005065918,0.018615723,-17.022902,23.137404999999998,-8.0,2019-09-07 13:36:37,20.0
1173.0,-0.09082031,-0.0014648438,0.024353027000000003,-21.992367,25.687023,-10.091603,2019-09-07 13:36:37,20.0
1174.0,-0.08917236,-0.01184082,0.023071289,-6.4503818,29.305344,-23.137404999999998,2019-09-07 13:36:37,20.0
1175.0,-0.09417724599999999,-0.007019043000000001,0.02331543,-5.5496182,14.717557000000001,-32.351147,2019-09-07 13:36:37,20.0
1176.0,-0.08660889,-0.010375977,0.0154418945,5.3053436,2.534351,-44.656490000000005,2019-09-07 13:36:37,20.0
1177.0,-0.08764648400000001,-0.0008544922000000001,0.023132324,21.473282,-14.916031,-53.916030000000006,2019-09-07 13:36:37,20.0
1178.0,-0.0847168,-0.007080078,0.023620605,44.625954,-33.335876,-52.83969499999999,2019-09-07 13:36:37,20.0
1179.0,-0.07196045,0.0020751953,0.018737793,76.183205,-30.76336,-53.755726,2019-09-07 13:36:37,20.0
1180.0,-0.07421875,0.011474608999999998,0.016418457,107.25191000000001,-26.87023,-42.55725,2019-09-07 13:36:37,20.0
1181.0,-0.09106445,0.017150878999999997,0.013793945,115.87023,-22.824427,-35.900764,2019-09-07 13:36:37,20.0
1182.0,-0.09466553,0.024414062,0.01953125,90.48092,-31.419846999999997,-33.06107,2019-09-07 13:36:37,20.0
1183.0,-0.06951904,0.026000977,0.016540527,62.0229,-33.580154,-31.198473,2019-09-07 13:36:37,20.0
1184.0,-0.11395264,0.024047852,-0.011657715,42.870228000000004,13.519084,-38.44275,2019-09-07 13:36:37,20.0
1185.0,-0.22784424,0.031921387,-0.0038452148,31.832062,4.5801525000000005,-54.251906999999996,2019-09-07 13:36:37,20.0
1186.0,-0.20275879,0.034362792999999996,0.012268066000000001,2.2442749,7.4198475,-43.198475,2019-09-07 13:36:37,20.0
1187.0,-0.14379883,0.020996094,0.036071777,4.9541984,51.381679999999996,-32.664124,2019-09-07 13:36:37,20.0
1188.0,-0.21252441,0.023498535,0.029541016,-2.1145039,115.01527,-14.312976999999998,2019-09-07 13:36:38,20.0
1189.0,-0.21356201,0.014831543,0.05279541,-107.69466000000001,99.47328,16.801527,2019-09-07 13:36:38,20.0
1190.0,-0.17749023,0.009399414,0.052612305,-189.6565,104.0687,34.328243,2019-09-07 13:36:38,20.0
1191.0,-0.14105225,-0.0048828125,0.030639648,-212.1374,47.74046,51.9771,2019-09-07 13:36:38,20.0
1192.0,-0.12207031,-0.010986328,0.024291992000000002,-193.47328000000002,14.053435,50.290077000000004,2019-09-07 13:36:38,20.0
1193.0,-0.10888672,-0.04852295,0.026855469,-164.0458,-21.274809,58.450382,2019-09-07 13:36:38,20.0
1194.0,-0.09320068,-0.06585693,0.03692627,-40.641220000000004,-22.10687,51.038166,2019-09-07 13:36:38,20.0
1195.0,-0.07836914,-0.04638672,0.053955078,33.954197,-1.3969465,39.87786,2019-09-07 13:36:38,20.0
1196.0,-0.07391357400000001,-0.02154541,0.05279541,39.923664,1.648855,31.51145,2019-09-07 13:36:38,20.0
1197.0,-0.056030273,-0.0043945312,0.054504395,10.618319999999999,8.717557000000001,24.625954,2019-09-07 13:36:38,20.0
1198.0,-0.059936523,0.0018310547,0.045288086,-41.08397,13.068703,12.038167999999999,2019-09-07 13:36:38,20.0
1199.0,-0.07287598,0.0016479492000000002,0.036010742000000005,-82.48092,26.442749,-5.5038165999999995,2019-09-07 13:36:38,20.0
1200.0,-0.09069824,-0.008728027,0.0357666,-97.496185,20.900763,-18.541985,2019-09-07 13:36:38,20.0
1201.0,-0.10369873,-0.012634277,0.029174805,-79.29771,6.6412214999999994,-23.473282,2019-09-07 13:36:38,20.0
1202.0,-0.10003662,-0.012329102,0.014160156,-27.343512,-7.6412214999999994,-21.076335999999998,2019-09-07 13:36:38,20.0
1203.0,-0.13537598,0.011291503999999999,-0.02557373,15.946565,2.7557251,-14.175572,2019-09-07 13:36:38,20.0
1204.0,-0.23498535,0.010498047,-0.02142334,15.816792999999999,-13.358779,-7.374046000000001,2019-09-07 13:36:38,20.0
1205.0,-0.24603271,0.0036621094,-0.0178833,-7.4198475,-98.48855,18.091601999999998,2019-09-07 13:36:38,20.0
1206.0,-0.20941162,0.005126953,-0.025024414,14.076335999999998,-83.98473,24.641222,2019-09-07 13:36:38,20.0
1207.0,-0.27319336,0.02154541,-0.018066406,12.549619,-77.183205,20.992367,2019-09-07 13:36:38,20.0
1208.0,-0.20703125,0.015258788999999998,-0.0012207030999999999,7.3664119999999995,-57.290077000000004,23.458015,2019-09-07 13:36:38,20.0
1209.0,-0.15130615,0.015625,0.020751953,1.5343511,-15.862596,24.931297,2019-09-07 13:36:38,20.0
1210.0,-0.11090088,-0.00018310547,0.029663086,-3.5801528,10.274809,28.755726,2019-09-07 13:36:38,20.0
1211.0,-0.08093262,0.0006103515599999999,0.026550293,-23.656488,22.786259,29.755726,2019-09-07 13:36:38,20.0
1212.0,-0.064453125,-0.001159668,0.018676758,-48.351147,31.923664000000002,33.55725,2019-09-07 13:36:38,20.0
1213.0,-0.06536865,-0.011291503999999999,0.021240234,-45.87786,36.14504,27.389313,2019-09-07 13:36:38,20.0
1214.0,-0.07574463,-0.0071411133,0.020385742,-30.374046000000003,21.595419,13.022901,2019-09-07 13:36:38,20.0
1215.0,-0.078308105,-0.010253906,0.023803711,-20.687023,10.885496,-3.4580152,2019-09-07 13:36:38,20.0
1216.0,-0.07452392599999999,-0.0056152343999999995,0.026611327999999997,4.4961834000000005,-2.9847328999999996,-19.206106,2019-09-07 13:36:38,20.0
1217.0,-0.06793213,-0.01776123,0.018859863,33.91603,-19.450382,-27.473282,2019-09-07 13:36:38,20.0
1218.0,-0.05291748,-0.0065307617,0.017456055,60.572517000000005,-33.007633,-26.48855,2019-09-07 13:36:38,20.0
1219.0,-0.059448242000000005,0.009460449000000001,0.004028320300000001,87.33588,-21.496183,-24.0,2019-09-07 13:36:38,20.0
1220.0,-0.07916260000000001,0.011352538999999998,0.0031738281,103.05344000000001,-8.572519,-17.992367,2019-09-07 13:36:38,20.0
1221.0,-0.09161377,0.022338867000000002,0.016174316,86.27481,-26.473282,-15.259541500000001,2019-09-07 13:36:38,20.0
1222.0,-0.066345215,0.018615723,0.012512207,52.648853,-34.458015,-21.633587,2019-09-07 13:36:38,20.0
1223.0,-0.11401367,0.02709961,-0.02734375,64.15267,37.74046,-41.984734,2019-09-07 13:36:38,20.0
1224.0,-0.28051758,0.035339355,0.01184082,46.770992,41.671757,-87.05344000000001,2019-09-07 13:36:39,20.0
1225.0,-0.2518921,0.032348632999999995,0.030395507999999998,-22.335878,44.389313,-83.27481,2019-09-07 13:36:39,20.0
1226.0,-0.20410156,0.03656006,0.03125,-38.328243,101.01527,-94.73283,2019-09-07 13:36:39,20.0
1227.0,-0.25732422,0.019836426,0.019897461,-55.587788,138.96184,-69.48092,2019-09-07 13:36:39,20.0
1228.0,-0.19329834,-0.029785156,0.033569336,-99.72519,92.45038000000001,-13.7786255,2019-09-07 13:36:39,20.0
1229.0,-0.12536621,-0.033935547,0.029846191,-83.15267,73.79389,27.435114000000002,2019-09-07 13:36:39,20.0
1230.0,-0.11254883,-0.010192871,0.027709961,-16.763360000000002,45.48855,44.679390000000005,2019-09-07 13:36:39,20.0
1231.0,-0.115234375,-0.002380371,0.028442382999999998,-9.664123,18.793894,36.21374,2019-09-07 13:36:39,20.0
1232.0,-0.10083008,-0.017578125,0.022583007999999998,4.6106873,-19.282442,29.610687,2019-09-07 13:36:39,20.0
1233.0,-0.09399414,-0.020690918,0.027648926,42.190838,-18.473282,20.91603,2019-09-07 13:36:39,20.0
1234.0,-0.083496094,-0.0048217773,0.028381347999999997,66.83969,-15.328244,8.816792999999999,2019-09-07 13:36:39,20.0
1235.0,-0.091308594,0.0033569335999999996,0.042236328,54.702290000000005,-2.0,-1.4961832,2019-09-07 13:36:39,20.0
1236.0,-0.08135986,0.012023926,0.041809082000000004,20.167938,8.274809,-8.694656,2019-09-07 13:36:39,20.0
1237.0,-0.08673096,0.01763916,0.034729004,-20.229008,24.755726,-16.763360000000002,2019-09-07 13:36:39,20.0
1238.0,-0.11053467,0.0115356445,0.030456543,-62.64122,50.076336,-29.206106,2019-09-07 13:36:39,20.0
1239.0,-0.13262939999999998,0.007019043000000001,0.025634766,-101.099236,40.648853,-34.14504,2019-09-07 13:36:39,20.0
1240.0,-0.13488770000000003,-0.0115356445,0.033813477,-99.91603,22.183207,-31.80916,2019-09-07 13:36:39,20.0
1241.0,-0.11151123,-0.016540527,0.026306152000000003,-57.053436,-6.5114503,-17.709923,2019-09-07 13:36:39,20.0
1242.0,-0.09637451,-0.017211914,0.010131836,6.89313,-27.740458,-0.030534351,2019-09-07 13:36:39,20.0
1243.0,-0.08514404,-0.017333984,0.0078125,64.65649,-46.931297,18.587785999999998,2019-09-07 13:36:39,20.0
1244.0,-0.09472656,0.0036621094,-0.014953613000000001,110.618324,-41.732826,35.053436,2019-09-07 13:36:39,20.0
1245.0,-0.16314697,0.021362305,-0.016662598,131.38931000000002,-4.7862597000000004,44.496179999999995,2019-09-07 13:36:39,20.0
1246.0,-0.25305176,0.036865234,0.0034179688000000002,43.946564,-81.175575,44.717556,2019-09-07 13:36:39,20.0
1247.0,-0.22595215,0.014343261999999999,-0.0036010741999999997,-9.587786999999999,-126.70228999999999,46.76336,2019-09-07 13:36:39,20.0
1248.0,-0.20904541,0.020568848,-0.013244628999999999,-13.389313000000001,-86.83969,32.55725,2019-09-07 13:36:39,20.0
1249.0,-0.21966553,0.021118164,-0.016723633,-40.08397,-82.67939,27.045801,2019-09-07 13:36:39,20.0
1250.0,-0.16973877,0.0048828125,-0.0051879883,-27.885496000000003,-48.839695,21.854961,2019-09-07 13:36:39,20.0
1251.0,-0.13500977,-0.0015258789000000001,0.022644043,-25.213741,-17.946566,22.786259,2019-09-07 13:36:39,20.0
1252.0,-0.10430908,0.004760742,0.024963378999999997,-8.328244,9.366412,16.473282,2019-09-07 13:36:39,20.0
1253.0,-0.08874512,-0.0017700195,0.02758789,-5.236641400000001,26.671754999999997,10.694656,2019-09-07 13:36:39,20.0
1254.0,-0.07940674,0.005493164,0.017028809,-15.419847500000001,35.419846,6.519083999999999,2019-09-07 13:36:39,20.0
1255.0,-0.081848145,-0.0033569335999999996,0.014465332,-16.045801,25.595419,-1.5572518999999998,2019-09-07 13:36:39,20.0
1256.0,-0.07940674,-6.1035155999999994e-05,0.011169433999999999,-10.305344,13.992367000000002,-9.854961,2019-09-07 13:36:39,20.0
1257.0,-0.08917236,-0.0010375977,0.011169433999999999,-0.41221374,3.3435113,-17.755726,2019-09-07 13:36:39,20.0
1258.0,-0.08728027,0.0025634766,0.0099487305,17.42748,-11.061069,-24.114504,2019-09-07 13:36:39,20.0
1259.0,-0.0847168,0.004272461,0.011047363000000001,40.15267,-18.641222,-24.374046,2019-09-07 13:36:39,20.0
1260.0,-0.09173584,0.0095825195,0.0048217773,61.67175699999999,-10.664123,-31.412214000000002,2019-09-07 13:36:40,20.0
1261.0,-0.09576416,0.007629394499999999,0.008544922,77.19847,-14.083969,-33.572517,2019-09-07 13:36:40,20.0
1262.0,-0.097595215,0.021484375,0.0048828125,77.52672,-9.419847500000001,-40.358779999999996,2019-09-07 13:36:40,20.0
1263.0,-0.09991455,0.013427733999999998,0.010620117,73.778625,14.480916,-50.221375,2019-09-07 13:36:40,20.0
1264.0,-0.09722900400000001,0.02947998,0.020019531,52.687022999999996,15.954199,-59.923664,2019-09-07 13:36:40,20.0
1265.0,-0.08764648400000001,0.019165039,0.022216797000000003,23.412214000000002,25.633587,-65.66412,2019-09-07 13:36:40,20.0
1266.0,-0.07861328,0.017822266,0.013793945,2.076336,47.55725,-68.8855,2019-09-07 13:36:40,20.0
1267.0,-0.10375976599999999,0.02319336,-0.015625,-1.610687,77.45038000000001,-74.28244000000001,2019-09-07 13:36:40,20.0
1268.0,-0.19628906,0.021362305,0.005432129,-17.412214000000002,101.091606,-89.63359,2019-09-07 13:36:40,20.0
1269.0,-0.22625732,0.030700684,0.013916016000000002,-74.33588,74.66412,-78.03817,2019-09-07 13:36:40,20.0
1270.0,-0.18688965,0.022033691,0.026062012000000002,-86.30534,69.69466,-64.08397,2019-09-07 13:36:40,20.0
1271.0,-0.19244385,0.012512207,0.0014648438,-70.27481,75.778625,-28.076335999999998,2019-09-07 13:36:40,20.0
1272.0,-0.22546387,-0.012817383,0.008300781,-79.87023,48.15267,19.587785999999998,2019-09-07 13:36:40,20.0
1273.0,-0.18359375,-0.01953125,0.027038574,-56.946564,5.7480917,66.87786,2019-09-07 13:36:40,20.0
1274.0,-0.15612793,-0.004638672,0.034179688,-48.862595,-13.152672,84.21374,2019-09-07 13:36:40,20.0
1275.0,-0.14025879,-0.0006713867,0.034057617000000005,-54.64122,-34.198475,81.25191,2019-09-07 13:36:40,20.0
1276.0,-0.124816895,-0.007690429699999999,0.025939941,-60.40458,-44.946564,70.26717,2019-09-07 13:36:40,20.0
1277.0,-0.10986328,-0.015625,0.029418945,-48.46565,-52.648853,58.77099200000001,2019-09-07 13:36:40,20.0
1278.0,-0.09991455,-0.020080566,0.033203125,-18.648854999999998,-39.816795,45.580154,2019-09-07 13:36:40,20.0
1279.0,-0.09674072,-0.0036010741999999997,0.027404785,-9.671756,-30.450382,34.183205,2019-09-07 13:36:40,20.0
1280.0,-0.09143066400000001,-0.005432129,0.032348632999999995,-7.862595599999999,-19.770992,21.396946,2019-09-07 13:36:40,20.0
1281.0,-0.081848145,0.010620117,0.034179688,-22.877863,-16.396946,15.511451000000001,2019-09-07 13:36:40,20.0
1282.0,-0.082092285,0.00390625,0.03100586,-46.358779999999996,-13.465648999999999,8.633588,2019-09-07 13:36:40,20.0
1283.0,-0.07989502,0.0007934570299999999,0.016967773000000002,-48.503820000000005,-12.847328,7.3511453,2019-09-07 13:36:40,20.0
1284.0,-0.09991455,0.006164551,0.015686035,-53.732826,3.7404580000000003,-0.77862597,2019-09-07 13:36:40,20.0
1285.0,-0.12921143,0.0037841796999999997,0.025512695,-49.427483,-17.625954,-5.0610685,2019-09-07 13:36:40,20.0
1286.0,-0.10430908,-0.0072021483999999995,0.01928711,-28.908398,-39.21374,-2.832061,2019-09-07 13:36:40,20.0
1287.0,-0.09155273400000001,-0.0041503906,0.012084961000000002,9.366412,-43.137405,3.29771,2019-09-07 13:36:40,20.0
1288.0,-0.08465576,0.0032348633000000003,0.0034179688000000002,41.984734,-46.93893,12.229008,2019-09-07 13:36:40,20.0
1289.0,-0.13067627,0.0036010741999999997,-0.027832031,72.061066,-18.267176,20.732824,2019-09-07 13:36:40,20.0
1290.0,-0.22790527,0.024597168,0.0053710938,52.664124,-34.83206,12.816792999999999,2019-09-07 13:36:40,20.0
1291.0,-0.21679688,0.010498047,0.0040893555,-6.5801525,-71.08397,20.229008,2019-09-07 13:36:40,20.0
1292.0,-0.15856934,0.016845703,0.004699707,-7.5725193,-47.099236,7.0152674,2019-09-07 13:36:40,20.0
1293.0,-0.20306396,0.018554688,-0.014465332,-12.610686999999999,-8.984733,-7.8244276,2019-09-07 13:36:40,20.0
1294.0,-0.19506836,0.01171875,-0.0018920898,-28.10687,2.5954200000000003,-15.244275,2019-09-07 13:36:40,20.0
1295.0,-0.15710449,-0.0024414061999999998,0.019958496000000003,-31.91603,34.541985,-26.145039,2019-09-07 13:36:41,20.0
1296.0,-0.11682129,-0.0051879883,0.030944824,-42.198475,61.190838,-36.129771999999996,2019-09-07 13:36:41,20.0
1297.0,-0.10278319999999999,0.0073242188,0.030883789,-29.374046000000003,75.45038000000001,-44.984734,2019-09-07 13:36:41,20.0
1298.0,-0.08929443,-0.003540039,0.025756836,-39.664124,84.53435,-48.08397,2019-09-07 13:36:41,20.0
1299.0,-0.08648682,-0.019958496000000003,0.026428222999999997,-41.458015,83.145035,-51.839695,2019-09-07 13:36:41,20.0
1300.0,-0.09246826,-0.019042969,0.02130127,-1.8931297999999999,76.80915999999999,-63.908398,2019-09-07 13:36:41,20.0
1301.0,-0.10314941400000001,-0.005676269499999999,0.02746582,19.923664000000002,73.84733,-74.73283,2019-09-07 13:36:41,20.0
1302.0,-0.10314941400000001,-0.007690429699999999,0.029907227,36.656490000000005,51.14504,-78.816795,2019-09-07 13:36:41,20.0
1303.0,-0.09259033,-0.0017089844000000001,0.02758789,64.40458000000001,31.06107,-76.34351,2019-09-07 13:36:41,20.0
1304.0,-0.076171875,0.0040893555,0.021057128999999997,93.43511,6.374046,-68.381676,2019-09-07 13:36:41,20.0
1305.0,-0.07305908,0.026062012000000002,0.007690429699999999,91.137405,11.435115,-52.992367,2019-09-07 13:36:41,20.0
1306.0,-0.10498047,0.020324707,0.01940918,73.0458,6.053435299999999,-35.496179999999995,2019-09-07 13:36:41,20.0
1307.0,-0.08758545,0.01586914,0.023071289,38.244274,-39.778625,-11.465649,2019-09-07 13:36:41,20.0
1308.0,-0.062316895,0.010681152,0.0211792,24.549618,-41.625954,-1.5801526000000001,2019-09-07 13:36:41,20.0
1309.0,-0.07623291,0.0138549805,-0.0026245116999999997,18.503817,-21.343512,6.2137402999999996,2019-09-07 13:36:41,20.0
1310.0,-0.15057373,0.03186035,-0.0234375,29.244274,50.496179999999995,1.480916,2019-09-07 13:36:41,20.0
1311.0,-0.24298096,0.019226074,0.0064697266000000005,-26.61832,-25.931297,0.41984734,2019-09-07 13:36:41,20.0
1312.0,-0.20318604,0.023620605,0.025268555,-67.01527,-8.832061,3.7251909,2019-09-07 13:36:41,20.0
1313.0,-0.22668457,0.024963378999999997,0.008178711,-77.54961999999999,44.702290000000005,9.564885,2019-09-07 13:36:41,20.0
1314.0,-0.26800537,-0.006652831999999999,0.03289795,-158.27481,42.267174,48.625954,2019-09-07 13:36:41,20.0
1315.0,-0.16992188,-0.03955078,0.033081055,-160.74046,9.977099,83.229004,2019-09-07 13:36:41,20.0
1316.0,-0.13946533,-0.04699707,0.028015137000000002,-109.15267,-18.229008,113.061066,2019-09-07 13:36:41,20.0
1317.0,-0.11175537,-0.008361816,0.01739502,-33.480915,-41.717556,110.94656,2019-09-07 13:36:41,20.0
1318.0,-0.11358642599999999,-0.01751709,0.0146484375,-21.648854999999998,-67.27481,96.03817,2019-09-07 13:36:41,20.0
1319.0,-0.10461426,-0.03137207,0.023864746000000003,-9.549619,-86.12977,77.48855,2019-09-07 13:36:41,20.0
1320.0,-0.091308594,-0.03277588,0.025695799999999998,23.358778,-82.54961999999999,61.412212,2019-09-07 13:36:41,20.0
1321.0,-0.08520508,-0.0038452148,0.028747559,47.396946,-55.862595,44.007633,2019-09-07 13:36:41,20.0
1322.0,-0.09039307,-0.0075683593999999995,0.03741455,29.91603,-29.755726,37.564884,2019-09-07 13:36:41,20.0
1323.0,-0.08374023400000001,-0.00042724610000000003,0.036499023,0.045801528,-4.8320612999999994,27.32061,2019-09-07 13:36:41,20.0
1324.0,-0.107910156,0.010803223,0.027404785,-41.114502,14.389313000000001,15.946565,2019-09-07 13:36:41,20.0
1325.0,-0.11694336,-0.0030517578000000003,0.026245117000000002,-70.9542,23.38168,1.7404580000000003,2019-09-07 13:36:41,20.0
1326.0,-0.113464355,-0.015991211,0.031311035,-82.83969,18.08397,-10.129771,2019-09-07 13:36:41,20.0
1327.0,-0.121276855,-0.02709961,0.025695799999999998,-60.198475,13.320610999999998,-23.229008,2019-09-07 13:36:41,20.0
1328.0,-0.11187744,-0.022460938,0.022460938,-9.297709,-2.8931298,-24.969465,2019-09-07 13:36:41,20.0
1329.0,-0.09448242,-0.02508545,0.017456055,49.244274,-24.389313,-18.465649,2019-09-07 13:36:41,20.0
1330.0,-0.08697510000000001,-0.016601562,0.009765625,97.221375,-37.946564,-12.503817,2019-09-07 13:36:41,20.0
1331.0,-0.09307861,-0.008300781,-0.0010986328,134.45038,-35.14504,-4.335878,2019-09-07 13:36:42,20.0
1332.0,-0.13470459,0.008728027,-0.0021972656,149.54962,-14.931297,-7.1755724,2019-09-07 13:36:42,20.0
1333.0,-0.1920166,0.02331543,0.012878418,106.03053,-34.198475,-26.23664,2019-09-07 13:36:42,20.0
1334.0,-0.16918945,0.020812988,0.012451172,55.801525,-39.404579999999996,-40.305344,2019-09-07 13:36:42,20.0
1335.0,-0.15594482,0.015380858999999998,-0.005432129,46.84733,-0.8091603,-64.19847,2019-09-07 13:36:42,20.0
1336.0,-0.22235107,0.016601562,-0.005737304699999999,48.137405,27.206106,-80.824425,2019-09-07 13:36:42,20.0
1337.0,-0.21008301,0.014709473,0.016784668,39.587788,43.076336,-81.79389,2019-09-07 13:36:42,20.0
1338.0,-0.17755127,0.014404297,0.03564453,31.816793,79.58778000000001,-97.778625,2019-09-07 13:36:42,20.0
1339.0,-0.15686035,0.026184082,0.03289795,30.992366999999998,89.26717,-97.92367,2019-09-07 13:36:42,20.0
1340.0,-0.123168945,0.01586914,0.021484375,24.480917,77.29008,-88.541985,2019-09-07 13:36:42,20.0
1341.0,-0.10131836,0.012451172,0.0138549805,9.358779,62.969467,-77.541985,2019-09-07 13:36:42,20.0
1342.0,-0.10632324,0.005004883,0.026855469,30.526718,61.091602,-68.70992,2019-09-07 13:36:42,20.0
1343.0,-0.109313965,0.012573242,0.034973145,38.595420000000004,46.328243,-70.061066,2019-09-07 13:36:42,20.0
1344.0,-0.09405517599999999,0.023803711,0.03173828,44.862595,33.702290000000005,-71.0229,2019-09-07 13:36:42,20.0
1345.0,-0.09362793,0.030456543,0.032470703,41.572517,24.694656,-63.251906999999996,2019-09-07 13:36:42,20.0
1346.0,-0.08691406,0.017211914,0.024353027000000003,36.053436,15.870229,-53.297709999999995,2019-09-07 13:36:42,20.0
1347.0,-0.09606933599999999,0.026184082,0.019104003999999997,38.984734,12.992367,-39.21374,2019-09-07 13:36:42,20.0
1348.0,-0.11224365,0.031066895,0.017456055,33.51145,11.335877,-24.992367,2019-09-07 13:36:42,20.0
1349.0,-0.11340332,0.036193848,0.016418457,21.763360000000002,-8.717557000000001,-10.7404585,2019-09-07 13:36:42,20.0
1350.0,-0.11114502,0.030822753999999997,0.009399414,22.900763,-14.541985,0.7557252,2019-09-07 13:36:42,20.0
1351.0,-0.107299805,0.019958496000000003,0.019104003999999997,29.343512,-20.48855,11.450381,2019-09-07 13:36:42,20.0
1352.0,-0.0881958,0.013061523,0.021728516,27.694656,-21.534351,23.580153,2019-09-07 13:36:42,20.0
1353.0,-0.08093262,0.010803223,0.023376465,29.175572999999996,-19.396946,30.435114000000002,2019-09-07 13:36:42,20.0
1354.0,-0.12188721,0.036376953,-0.00042724610000000003,33.12214,18.580153,29.419846999999997,2019-09-07 13:36:42,20.0
1355.0,-0.19830322,0.03717041,0.021911621000000003,-16.778625,3.2900763,20.603054,2019-09-07 13:36:42,20.0
1356.0,-0.21380615,0.024536132999999998,0.028564452999999997,-72.862595,2.778626,25.435114000000002,2019-09-07 13:36:42,20.0
1357.0,-0.16534424,0.0040893555,0.034179688,-112.99236,-6.6412214999999994,42.671757,2019-09-07 13:36:42,20.0
1358.0,-0.1605835,-0.0032348633000000003,0.02911377,-115.00764,0.5114504,67.94655999999999,2019-09-07 13:36:42,20.0
1359.0,-0.21801758,-0.009277344,0.029724121000000003,-137.9542,-13.175572,86.41984599999999,2019-09-07 13:36:42,20.0
1360.0,-0.2220459,-0.022460938,0.028686523,-150.41222,-53.61832,103.08397,2019-09-07 13:36:42,20.0
1361.0,-0.18145752,-0.02508545,0.020812988,-136.45801,-91.45038000000001,108.60305,2019-09-07 13:36:42,20.0
1362.0,-0.14550781,-0.036621094,0.010681152,-105.43511000000001,-96.99235999999999,103.30534,2019-09-07 13:36:42,20.0
1363.0,-0.13427734,-0.028808594,0.019104003999999997,-61.664124,-93.19084000000001,98.07633,2019-09-07 13:36:42,20.0
1364.0,-0.12536621,-0.022827148,0.024841309,-35.717556,-75.908394,86.8855,2019-09-07 13:36:42,20.0
1365.0,-0.10070801,-0.011474608999999998,0.029052734,-15.549619,-55.48855,70.83206,2019-09-07 13:36:43,-2.0
1366.0,-0.09118652,-0.0018920898,0.029663086,-10.862596,-28.480916999999998,53.732826,2019-09-07 13:36:43,-2.0
1367.0,-0.08380127,0.0018920898,0.027404785,-23.93893,-11.923664,35.85496,2019-09-07 13:36:43,-2.0
1368.0,-0.09271239999999999,-0.0034790040000000004,0.026733398,-43.14504,0.14503817,19.328245000000003,2019-09-07 13:36:43,-2.0
1369.0,-0.08746338,-0.0029296875,0.026000977,-51.74046,5.40458,6.412214,2019-09-07 13:36:43,-2.0
1370.0,-0.07928467,0.004272461,0.025268555,-42.82443,15.145039,-4.2519083,2019-09-07 13:36:43,-2.0
1371.0,-0.08258057,0.009460449000000001,0.032409667999999996,-36.748093,32.89313,-18.877863,2019-09-07 13:36:43,-2.0
1372.0,-0.101623535,0.017944336,0.033691406,-33.251907,37.801525,-27.51145,2019-09-07 13:36:43,-2.0
1373.0,-0.117126465,0.015075683999999999,0.024902344,-22.030535,42.85496,-32.53435,2019-09-07 13:36:43,-2.0
1374.0,-0.12957764,0.030822753999999997,0.03918457,-7.221374000000001,49.099236,-34.931297,2019-09-07 13:36:43,-2.0
1375.0,-0.14178467,0.043945312,0.032592773,-6.6488547,51.725190000000005,-31.32061,2019-09-07 13:36:43,-2.0
1376.0,-0.16326904,0.052856445,0.04107666,-7.541984599999999,57.038166000000004,-19.61832,2019-09-07 13:36:43,-2.0
1377.0,-0.16418457,0.054626465,0.045837402,-5.5038165999999995,40.954197,3.9694656999999998,2019-09-07 13:36:43,-2.0
1378.0,-0.14544678,0.05859375,0.05218506,-4.7938933,17.12977,35.900764,2019-09-07 13:36:43,-2.0
1379.0,-0.11590576,0.06280517599999999,0.030395507999999998,5.366412,10.19084,70.0458,2019-09-07 13:36:43,-2.0
1380.0,-0.13391113,0.08337402,0.030700684,17.694656,8.007633,99.91603,2019-09-07 13:36:43,-2.0
1381.0,-0.13110352,0.09124756,0.037963867000000005,-1.351145,-0.2519084,119.34351000000001,2019-09-07 13:36:43,-2.0
1382.0,-0.12530518,0.09954834,0.032714844,-24.748089999999998,1.0534351,136.51908999999998,2019-09-07 13:36:43,-2.0
1383.0,-0.12701416,0.10076904,0.032409667999999996,-37.435116,8.595419999999999,156.6565,2019-09-07 13:36:43,-2.0
1384.0,-0.11907959,0.11450195,0.026550293,-49.839695,15.725191,178.01527,2019-09-07 13:36:43,-2.0
1385.0,-0.12664795,0.11401367,0.027709961,-55.366413,23.114504,198.9542,2019-09-07 13:36:43,-2.0
1386.0,-0.12030029,0.11035156,0.028320312,-63.335876,25.167938,214.9771,2019-09-07 13:36:43,-2.0
1387.0,-0.11621094,0.11267089999999998,0.020080566,-52.9771,22.06107,234.30534,2019-09-07 13:36:43,-2.0
1388.0,-0.10638428,0.09326172,0.014587402,9.160305000000001,22.274809,250.0687,2019-09-07 13:36:43,-2.0
1389.0,-0.08551025400000001,0.10357666,0.008178711,57.389313,34.83206,250.12977999999998,2019-09-07 13:36:43,-2.0
1390.0,-0.09020996,0.09295654,0.0095825195,109.40458000000001,51.15267,250.12977999999998,2019-09-07 13:36:43,-2.0
1391.0,-0.08081055,0.09313965,-0.0008544922000000001,174.12213,68.65649,244.16794,2019-09-07 13:36:43,-2.0
1392.0,-0.06439209,0.10015869,0.0006713867,170.48856,86.47328,217.57252999999997,2019-09-07 13:36:43,-2.0
1393.0,-0.06872558599999999,0.09814453,-0.011779785,139.99237,104.21374,182.66412,2019-09-07 13:36:43,-2.0
1394.0,-0.05206299,0.09014892599999999,-0.0032958984000000004,113.15267,80.1145,147.46565,2019-09-07 13:36:43,-2.0
1395.0,-0.05102539,0.09460449,-0.0053710938,94.80153,58.076336,115.67938999999998,2019-09-07 13:36:43,-2.0
1396.0,-0.042663574,0.08166504,-0.005676269499999999,52.458015,34.0229,82.87786,2019-09-07 13:36:43,-2.0
1397.0,-0.027893066,0.07708739999999999,-0.006591797,37.55725,3.7862597,50.17557,2019-09-07 13:36:43,-2.0
1398.0,-0.020690918,0.09197998,-0.012451172,26.91603,-12.931297,16.862595000000002,2019-09-07 13:36:43,-2.0
1399.0,-0.015686035,0.09320068,-0.006713866999999999,9.022901,-29.717558,-11.450381,2019-09-07 13:36:43,-2.0
1400.0,-0.022766112999999998,0.09710693,-0.01751709,-5.053435299999999,-52.305344,-24.595419,2019-09-07 13:36:43,-2.0
1401.0,-0.022888184,0.10998535,-0.021972656,-5.473282299999999,-52.404579999999996,-28.664121999999995,2019-09-07 13:36:43,-2.0
1402.0,-0.022766112999999998,0.11456299,-0.029418945,-2.6488549999999997,-72.03817,-30.587785999999998,2019-09-07 13:36:44,-2.0
1403.0,-0.018798828,0.13299560000000002,-0.029846191,0.5801527,-86.9313,-23.57252,2019-09-07 13:36:44,-2.0
1404.0,-0.022888184,0.1227417,-0.03253174,-14.580152499999999,-88.76335999999999,-21.580153,2019-09-07 13:36:44,-2.0
1405.0,-0.018310547,0.10925293,-0.033996582000000004,-10.320611,-93.900764,-21.137404999999998,2019-09-07 13:36:44,-2.0
1406.0,-0.0099487305,0.11553955,-0.04144287,-17.42748,-107.01527,-16.679389999999998,2019-09-07 13:36:44,-2.0
1407.0,-0.007080078,0.11126709,-0.041137695,-16.793894,-111.061066,-14.442748000000002,2019-09-07 13:36:44,-2.0
1408.0,-0.010559082,0.10516357400000001,-0.034240723,-15.633588,-117.53435,-16.480917,2019-09-07 13:36:44,-2.0
1409.0,-0.0020141601999999997,0.10778808599999999,-0.035095215,-11.702291,-122.900764,-19.541985,2019-09-07 13:36:44,-2.0
1410.0,-0.0063476562,0.10992432,-0.034729004,-12.763359,-122.45038000000001,-18.900763,2019-09-07 13:36:44,-2.0
1411.0,-0.0044555664,0.11016846,-0.039489746,-7.541984599999999,-123.40458000000001,-19.656488,2019-09-07 13:36:44,-2.0
1412.0,-0.0009765625,0.10980224599999999,-0.037475586,4.473282299999999,-118.38931000000001,-17.175573,2019-09-07 13:36:44,-2.0
1413.0,-0.0048828125,0.11273193,-0.028015137000000002,33.526720000000005,-100.83206,-9.526717,2019-09-07 13:36:44,-2.0
1414.0,-0.0068969727,0.119262695,-0.039123535,32.885498,-96.01527,-4.2061067,2019-09-07 13:36:44,-2.0
1415.0,-0.003967285,0.13488770000000003,-0.051940917999999996,21.755726,-90.099236,1.1068702,2019-09-07 13:36:44,-2.0
1416.0,-0.004760742,0.13970947,-0.054626465,17.167938,-71.26717,-3.793893,2019-09-07 13:36:44,-2.0
1417.0,-0.015930176,0.13464355,-0.051757812,7.847328,-61.244274,-6.4580154,2019-09-07 13:36:44,-2.0
1418.0,-0.019042969,0.14709473,-0.05303955,19.587785999999998,-47.137405,-3.6870230000000004,2019-09-07 13:36:44,-2.0
1419.0,-0.01977539,0.13903809,-0.051635742000000005,8.2213745,-40.14504,-2.7633588,2019-09-07 13:36:44,-2.0
1420.0,-0.00970459,0.14904785,-0.06451416,13.2213745,-34.9771,-6.7251906,2019-09-07 13:36:44,-2.0
1421.0,-0.011230469,0.14581299,-0.05999756,4.8320612999999994,-5.7557254,-7.5038165999999995,2019-09-07 13:36:44,-2.0
1422.0,-0.015319824,0.12408447,-0.042907715,-7.290076299999999,13.839695,2.076336,2019-09-07 13:36:44,-2.0
1423.0,-0.0013427734,0.11706543,-0.041748047,-19.816793,21.709923,9.755725,2019-09-07 13:36:44,-2.0
1424.0,-0.00048828125,0.11779785,-0.04949951,-49.55725,48.9771,15.839695,2019-09-07 13:36:44,-2.0
1425.0,-0.018310547,0.11383057,-0.04663086,-49.671757,54.59542,18.625954,2019-09-07 13:36:44,-2.0
1426.0,-0.012207031,0.11859131,-0.04486084,-36.0229,53.85496,16.549618,2019-09-07 13:36:44,-2.0
1427.0,-0.018066406,0.10815430000000001,-0.039794922,-35.15267,65.12214,22.763360000000002,2019-09-07 13:36:44,-2.0
1428.0,-0.013671875,0.123168945,-0.037353516,-36.274809999999995,59.0,23.290077,2019-09-07 13:36:44,-2.0
1429.0,-0.020263672,0.11590576,-0.028137207,-51.16794,60.099236,25.045801,2019-09-07 13:36:44,-2.0
1430.0,-0.028198242000000002,0.10626221,-0.016601562,-61.916030000000006,52.396946,22.954199,2019-09-07 13:36:44,-2.0
1431.0,-0.016235351999999998,0.09478760000000001,-0.008056641,-75.778625,42.312977000000004,18.847328,2019-09-07 13:36:44,-2.0
1432.0,-0.019592285,0.09143066400000001,-0.0048217773,-80.541985,35.435116,9.946565,2019-09-07 13:36:44,-2.0
1433.0,-0.016357422,0.07006836,0.00036621094,-93.15267,34.045803,-3.7633588,2019-09-07 13:36:44,-2.0
1434.0,-0.020263672,0.06964111,0.0068969727,-121.07633,19.274809,-26.992366999999998,2019-09-07 13:36:44,-2.0
1435.0,-0.020812988,0.06628418,0.011352538999999998,-185.27481,23.625954,-55.793890000000005,2019-09-07 13:36:44,-2.0
1436.0,-0.03100586,0.042419434000000006,0.007751465,-250.1374,30.145039,-82.80153,2019-09-07 13:36:44,-2.0
1437.0,-0.04638672,0.051635742000000005,0.017028809,-250.1374,34.603054,-109.56488999999999,2019-09-07 13:36:44,-2.0
1438.0,-0.058044434000000006,0.05078125,0.029968262000000002,-250.1374,66.12977,-136.94656,2019-09-07 13:36:45,-2.0
1439.0,-0.07727051,0.03186035,0.030578612999999998,-250.1374,107.23664,-162.32825,2019-09-07 13:36:45,-2.0
1440.0,-0.10998535,0.026611327999999997,0.04522705,-250.1374,159.06107,-180.70993,2019-09-07 13:36:45,-2.0
1441.0,-0.15655518,0.0053100586,0.040100098,-250.1374,245.2061,-185.35878,2019-09-07 13:36:45,-2.0
1442.0,-0.2076416,-0.00579834,0.039489746,-177.38931000000002,250.12977999999998,-182.03816,2019-09-07 13:36:45,-2.0
1443.0,-0.23779297,-0.015136719,0.035827637,-25.809160000000002,250.12977999999998,-190.94656,2019-09-07 13:36:45,-2.0
1444.0,-0.27044678,-0.006958008000000001,0.03173828,90.824425,250.12977999999998,-206.67175,2019-09-07 13:36:45,-2.0
1445.0,-0.2524414,0.011474608999999998,0.021850586,174.38168000000002,250.12977999999998,-205.91603,2019-09-07 13:36:45,-2.0
1446.0,-0.22344970000000003,0.012939453,0.02911377,250.12977999999998,158.36641,-171.37403999999998,2019-09-07 13:36:45,-2.0
1447.0,-0.17718506,0.03387451,0.038635254,250.12977999999998,86.24428,-134.87022,2019-09-07 13:36:45,-2.0
1448.0,-0.15496826,0.030334472999999997,0.037109375,242.47328,27.389313,-85.63359,2019-09-07 13:36:45,-2.0
1449.0,-0.1395874,0.04663086,0.04321289,201.229,5.778626,-50.564884,2019-09-07 13:36:45,-2.0
1450.0,-0.13336182,0.06536865,0.0423584,88.26717,8.045800999999999,-32.25954,2019-09-07 13:36:45,-2.0
1451.0,-0.13055419999999998,0.042541504,0.02960205,-30.152671999999995,0.64122134,-27.274809,2019-09-07 13:36:45,-2.0
1452.0,-0.12799072,-0.0034179688000000002,0.020690918,0.35877863,-15.580152499999999,-27.633587,2019-09-07 13:36:45,-2.0
1453.0,-0.09613037,0.024658202999999997,0.04296875,-43.038166,-5.7251905999999995,-21.91603,2019-09-07 13:36:45,-2.0
1454.0,-0.10589599599999999,-0.0034790040000000004,0.034362792999999996,24.122137,17.717558,-40.610687,2019-09-07 13:36:45,-2.0
1455.0,-0.10546875,0.018493652,0.03125,82.84733,36.580154,-31.801527,2019-09-07 13:36:45,-2.0
1456.0,-0.11682129,0.0115356445,0.030090332,91.59541999999999,42.229008,-29.259542,2019-09-07 13:36:45,-2.0
1457.0,-0.111450195,0.023376465,0.03137207,84.65649,34.427483,-24.076335999999998,2019-09-07 13:36:45,-2.0
1458.0,-0.1038208,0.030578612999999998,0.028015137000000002,63.541985,31.022902000000002,-19.251910000000002,2019-09-07 13:36:45,-2.0
1459.0,-0.11981201,0.026550293,0.03149414,41.08397,34.038166,-12.656488000000001,2019-09-07 13:36:45,-2.0
1460.0,-0.1352539,0.014099121000000001,0.030517577999999997,25.068703,35.305344,0.5954198,2019-09-07 13:36:45,-2.0
1461.0,-0.14556885,0.026550293,0.022521972999999997,11.496183,34.15267,16.923664000000002,2019-09-07 13:36:45,-2.0
1462.0,-0.14801025,0.026550293,0.029663086,-12.320611,36.53435,33.290077000000004,2019-09-07 13:36:45,-2.0
1463.0,-0.16418457,0.023620605,0.03137207,-48.06107,33.17557,46.068703,2019-09-07 13:36:45,-2.0
1464.0,-0.15338135,0.030761719,0.03753662,-86.618324,24.900763,58.16030500000001,2019-09-07 13:36:45,-2.0
1465.0,-0.13879395,0.01739502,0.02368164,-107.28244,16.954199,63.251906999999996,2019-09-07 13:36:45,-2.0
1466.0,-0.15350342,0.031799316,0.018127441,-132.31297,4.068702,74.9313,2019-09-07 13:36:45,-2.0
1467.0,-0.15454102,0.03564453,0.007385254,-163.45038,-32.908398,83.26717,2019-09-07 13:36:45,-2.0
1468.0,-0.13885498,0.022583007999999998,-0.0029296875,-180.91603,-55.076336,92.21374,2019-09-07 13:36:45,-2.0
1469.0,-0.13763428,0.014770508,-0.0010375977,-172.92366,-72.770996,99.854965,2019-09-07 13:36:45,-2.0
1470.0,-0.14007568,0.008605957,-0.00042724610000000003,-155.99237,-85.37405,108.061066,2019-09-07 13:36:45,-2.0
1471.0,-0.14953613,0.002380371,0.00048828125,-131.7939,-89.62595,110.26717,2019-09-07 13:36:45,-2.0
1472.0,-0.14129639,-0.00036621094,0.001953125,-98.28244000000001,-88.31298000000001,110.42748,2019-09-07 13:36:45,-2.0
1473.0,-0.13787842,0.0061035156000000005,0.006591797,-67.51908,-80.458015,103.94655999999999,2019-09-07 13:36:45,-2.0
1474.0,-0.12915039,0.017089844,0.0053100586,-50.17557,-72.25954399999999,93.816795,2019-09-07 13:36:46,-2.0
1475.0,-0.12884521,0.020690918,0.0075683593999999995,-45.671757,-66.48855,79.96947,2019-09-07 13:36:46,-2.0
1476.0,-0.11956787,0.0034179688000000002,-6.1035155999999994e-05,-41.580154,-60.076336,65.56489,2019-09-07 13:36:46,-2.0
1477.0,-0.11376953,0.0025634766,-0.00048828125,-32.099236,-52.74046,52.412212,2019-09-07 13:36:46,-2.0
1478.0,-0.09814453,-0.0045166016,0.001953125,-17.366413,-42.274809999999995,37.770992,2019-09-07 13:36:46,-2.0
1479.0,-0.10766601599999999,0.004333496,0.004333496,-8.717557000000001,-21.854961,19.015266,2019-09-07 13:36:46,-2.0
1480.0,-0.12628174,0.009155273,0.0041503906,-2.6412212999999998,0.7251908,-5.0305343,2019-09-07 13:36:46,-2.0
1481.0,-0.13006592,0.006958008000000001,0.0028076171999999997,10.091603,16.290077,-28.694656,2019-09-07 13:36:46,-2.0
1482.0,-0.13360596,0.011047363000000001,0.005676269499999999,18.007633,43.85496,-52.229008,2019-09-07 13:36:46,-2.0
1483.0,-0.13952637,0.015930176,0.011047363000000001,12.519084,66.52672,-72.00764000000001,2019-09-07 13:36:46,-2.0
1484.0,-0.14367676,0.020751953,0.023742676,7.183206,93.0687,-88.98473,2019-09-07 13:36:46,-2.0
1485.0,-0.12927246,0.011657715,0.02935791,-16.38168,102.68701999999999,-94.34351,2019-09-07 13:36:46,-2.0
1486.0,-0.12408447,0.012145996000000001,0.024841309,-22.61832,111.51145,-94.32061,2019-09-07 13:36:46,-2.0
1487.0,-0.13763428,0.010131836,0.014038086000000002,-20.419847,107.42748,-85.778625,2019-09-07 13:36:46,-2.0
1488.0,-0.15203857,0.0012207030999999999,0.009460449000000001,-9.480916,87.58015400000001,-71.221375,2019-09-07 13:36:46,-2.0
1489.0,-0.14544678,-0.0009765625,0.009887695,6.8244276,56.206109999999995,-48.320609999999995,2019-09-07 13:36:46,-2.0
1490.0,-0.13171387,0.0012817383,0.007507324,47.48855,37.23664,-31.38168,2019-09-07 13:36:46,-2.0
1491.0,-0.12377930000000001,0.003540039,0.006042480500000001,76.137405,22.213741,-21.114504,2019-09-07 13:36:46,-2.0
1492.0,-0.12713623,-0.00390625,0.015686035,99.58015400000001,13.893129,-17.854961,2019-09-07 13:36:46,-2.0
1493.0,-0.12048339999999998,0.010131836,0.012145996000000001,109.07633,12.664123,-23.068703,2019-09-07 13:36:46,-2.0
1494.0,-0.113098145,0.018554688,0.016479492,99.183205,19.419847,-32.51145,2019-09-07 13:36:46,-2.0
1495.0,-0.11456299,0.024353027000000003,0.019165039,72.938934,31.648854999999998,-46.778625,2019-09-07 13:36:46,-2.0
1496.0,-0.12988281,0.024536132999999998,0.020629883,33.435116,45.404579999999996,-58.30534399999999,2019-09-07 13:36:46,-2.0
1497.0,-0.12646484,0.01953125,0.022949219,9.335877,54.732826,-65.71755999999999,2019-09-07 13:36:46,-2.0
1498.0,-0.11517334,0.012451172,0.019836426,-0.7557252,58.267174,-66.74809,2019-09-07 13:36:46,-2.0
1499.0,-0.123535156,0.016967773000000002,0.015197753999999999,4.6488547,69.381676,-67.770996,2019-09-07 13:36:46,-2.0
1500.0,-0.13909912,0.019836426,0.019592285,9.442748,72.51908,-62.267174,2019-09-07 13:36:46,-2.0
1501.0,-0.15252686,0.017700195,0.008178711,17.160304999999997,60.77099200000001,-49.702290000000005,2019-09-07 13:36:46,-2.0
1502.0,-0.16790771,0.020507812,0.0037841796999999997,24.160304999999997,51.778625,-37.343509999999995,2019-09-07 13:36:46,-2.0
1503.0,-0.17907715,0.01574707,0.017578125,22.458015,35.656490000000005,-18.89313,2019-09-07 13:36:46,-2.0
1504.0,-0.15515137,0.027038574,0.025756836,28.80916,9.305344,5.396946400000001,2019-09-07 13:36:46,-2.0
1505.0,-0.12402344,0.024963378999999997,0.029663086,24.473282,-13.167939000000002,33.374046,2019-09-07 13:36:46,-2.0
1506.0,-0.13024902,0.041259766,0.010070800999999999,21.160304999999997,-15.152672,54.061069999999994,2019-09-07 13:36:46,-2.0
1507.0,-0.14776611,0.05718994,0.010070800999999999,-8.282442999999999,-45.114502,78.0458,2019-09-07 13:36:46,-2.0
1508.0,-0.13372803,0.05682373,0.006958008000000001,-48.541985,-79.87023,103.33588,2019-09-07 13:36:46,-2.0
1509.0,-0.11853027,0.052490234000000004,0.0037231445,-62.450382,-88.34351,121.54961999999999,2019-09-07 13:36:46,-2.0
1510.0,-0.14770508,0.053894042999999996,0.013977051,-69.938934,-85.0,142.93893,2019-09-07 13:36:47,-2.0
1511.0,-0.14538574,0.04827881,0.010192871,-57.30534399999999,-89.52672,170.49618999999998,2019-09-07 13:36:47,-2.0
1512.0,-0.14624023,0.06048584,0.011047363000000001,-26.633587,-78.69466,195.37403999999998,2019-09-07 13:36:47,-2.0
1513.0,-0.15045166,0.08544922,0.00970459,-28.32061,-70.70229,210.51908999999998,2019-09-07 13:36:47,-2.0
1514.0,-0.1416626,0.09118652,0.004211426,-31.389313,-62.82443000000001,228.41222000000002,2019-09-07 13:36:47,-2.0
1515.0,-0.14526367,0.09301758,0.005432129,-27.854961,-52.793890000000005,242.2061,2019-09-07 13:36:47,-2.0
1516.0,-0.140625,0.09326172,0.0020751953,-15.877863,-36.580154,247.62596000000002,2019-09-07 13:36:47,-2.0
1517.0,-0.13323975,0.09094238,0.003540039,-7.931298,-22.51145,250.12977999999998,2019-09-07 13:36:47,-2.0
1518.0,-0.115112305,0.0690918,0.00012207031000000001,19.740458,-7.900763499999999,247.28243999999998,2019-09-07 13:36:47,-2.0
1519.0,-0.09350586,0.06982422,-0.0063476562,66.03053,11.083969,247.31297,2019-09-07 13:36:47,-2.0
1520.0,-0.08605957,0.08129883,-0.010498047,126.32061000000002,34.427483,235.72519,2019-09-07 13:36:47,-2.0
