measurement,Acc_X,Acc_Y,Acc_Z,Gyr_X,Gyr_Y,Gyr_Z,Time(hh:mm:ss),Label
640.0,-0.10522461,-0.006164551,0.009216309,-10.412213000000001,3.6641220000000003,-4.473282299999999,2019-09-07 14:14:48,0.0
641.0,-0.13879395,-0.016845703,0.00982666,-7.465648700000001,7.8244276,-3.1374047000000003,2019-09-07 14:14:48,0.0
642.0,-0.14587402,-0.008666992,0.005065918,-2.183206,4.6793895,-4.259542,2019-09-07 14:14:48,0.0
643.0,-0.13146973,-0.0078125,0.009216309,-3.0992367,6.5114503,-2.4961832000000004,2019-09-07 14:14:48,0.0
644.0,-0.14868164,-0.0024414061999999998,0.0068359375,-2.4351146,9.702291,-1.6412214,2019-09-07 14:14:48,0.0
645.0,-0.13256836,0.002380371,0.009155273,-5.740458,8.435115,0.2977099,2019-09-07 14:14:48,0.0
646.0,-0.15148926,0.011047363000000001,0.008666992,-1.4732825,5.908396700000001,1.8931297999999999,2019-09-07 14:14:48,0.0
647.0,-0.1473999,0.0051879883,0.00970459,-4.1374044,6.374046,0.99236643,2019-09-07 14:14:48,0.0
648.0,-0.13775635,-0.0014038085999999999,0.007019043000000001,-0.79389316,8.366412,1.3129771000000001,2019-09-07 14:14:48,0.0
649.0,-0.14794922,-0.0033569335999999996,0.009155273,-0.259542,6.5114503,1.0,2019-09-07 14:14:48,0.0
650.0,-0.1494751,0.008300781,0.0072021483999999995,1.0152671,4.5038165999999995,-1.480916,2019-09-07 14:14:48,0.0
651.0,-0.14086914,-0.0048217773,0.013244628999999999,0.33587787,5.335878,0.9694656999999999,2019-09-07 14:14:48,0.0
652.0,-0.13867188,-0.004272461,0.0095825195,1.4732825,7.6335880000000005,-1.4122137,2019-09-07 14:14:48,0.0
653.0,-0.15197754,-0.0017700195,0.007080078,-0.030534351,8.206107000000001,-2.0305343000000002,2019-09-07 14:14:48,0.0
654.0,-0.1552124,-0.002319336,0.008605957,-1.4580153,7.7175574000000005,-3.1374047000000003,2019-09-07 14:14:48,0.0
655.0,-0.15258789,0.0036010741999999997,0.009338379,-1.8320610000000002,7.0839696,-2.9923662999999996,2019-09-07 14:14:48,0.0
656.0,-0.10443115,-0.016418457,0.004211426,-3.40458,3.8854961,-2.465649,2019-09-07 14:14:48,0.0
657.0,-0.16375732,0.0065307617,0.010620117,-3.0229008,6.839694500000001,-1.8473282,2019-09-07 14:14:48,0.0
658.0,-0.15148926,0.009399414,0.0071411133,-2.4122138,6.6412214999999994,-4.4351144,2019-09-07 14:14:48,0.0
659.0,-0.16308594,0.0061035156000000005,0.00970459,-1.0305344,6.366412,-2.4732822999999997,2019-09-07 14:14:48,0.0
660.0,-0.12902832,0.0020751953,0.005493164,2.9770992,5.473282299999999,-4.923664,2019-09-07 14:14:48,0.0
661.0,-0.14892578,0.015014648,0.007629394499999999,3.0687022,4.343511599999999,-7.4885497,2019-09-07 14:14:48,0.0
662.0,-0.15679932,0.0020751953,0.0072631836,6.6946563999999995,3.6106870000000004,-4.038168,2019-09-07 14:14:48,0.0
663.0,-0.1640625,0.0073242188,0.013366699,4.8778625,5.145038,-5.068702,2019-09-07 14:14:48,0.0
664.0,-0.14202881,-0.0028686523,0.007385254,8.366412,3.9160306000000005,-3.5801528,2019-09-07 14:14:48,0.0
665.0,-0.11297607400000001,-0.027038574,0.011352538999999998,12.2213745,0.099236645,-3.2366412,2019-09-07 14:14:48,0.0
666.0,-0.12902832,-0.007385254,0.011047363000000001,11.931297,-1.9923664,2.4045799999999997,2019-09-07 14:14:48,0.0
667.0,-0.13092041,0.0038452148,0.008972168,13.458015,1.6641221000000002,3.8549618999999997,2019-09-07 14:14:48,0.0
668.0,-0.13995361,0.0029296875,0.010253906,8.519084,7.89313,6.923664,2019-09-07 14:14:48,0.0
669.0,-0.14068604,0.009887695,0.008850098,-3.9847328999999996,3.7633588,9.091603,2019-09-07 14:14:48,0.0
670.0,-0.13488770000000003,-0.004760742,0.014709473,-7.6412214999999994,1.5725191,9.702291,2019-09-07 14:14:48,0.0
671.0,-0.14245605,-0.00579834,0.009765625,-9.7786255,-2.167939,10.305344,2019-09-07 14:14:48,0.0
672.0,-0.1381836,-0.0034790040000000004,0.009033203,-10.282442999999999,-4.8320612999999994,9.21374,2019-09-07 14:14:48,0.0
673.0,-0.13922119,-0.0029907227,0.01361084,-5.7099237,-6.259542,7.625953999999999,2019-09-07 14:14:48,0.0
674.0,-0.12567139,-0.015686035,0.010986328,13.366412,-7.4274807,1.648855,2019-09-07 14:14:48,0.0
675.0,-0.13995361,-0.015014648,0.0041503906,40.870228000000004,-4.152672,1.8931297999999999,2019-09-07 14:14:48,0.0
676.0,-0.13922119,-0.0014648438,0.006164551,75.862595,-1.351145,1.1145038999999999,2019-09-07 14:14:49,0.0
677.0,-0.13867188,0.0030517578000000003,0.009277344,80.618324,-0.2977099,-2.8549618999999997,2019-09-07 14:14:49,0.0
678.0,-0.13519287,0.004638672,0.009460449000000001,77.99235999999999,3.6793892,-10.755725,2019-09-07 14:14:49,0.0
679.0,-0.13043213,0.0068969727,0.014953613000000001,63.954197,11.801527,-19.931297,2019-09-07 14:14:49,0.0
680.0,-0.14208984,0.0013427734,0.015014648,42.0,16.877863,-30.007633000000002,2019-09-07 14:14:49,0.0
681.0,-0.14184570000000002,0.010131836,0.0079956055,28.862595000000002,23.335878,-33.671757,2019-09-07 14:14:49,0.0
682.0,-0.12542725,0.0063476562,0.01171875,26.854961,27.770992,-34.656490000000005,2019-09-07 14:14:49,0.0
683.0,-0.14825439999999998,0.0037231445,0.020019531,45.503820000000005,31.57252,-34.10687,2019-09-07 14:14:49,0.0
684.0,-0.12573242,0.010498047,0.01727295,31.770992,36.549618,-37.82443,2019-09-07 14:14:49,0.0
685.0,-0.14965820000000002,0.008178711,0.020080566,17.358778,39.137405,-42.343509999999995,2019-09-07 14:14:49,0.0
686.0,-0.14849854,0.0072631836,0.019836426,8.236641,41.992367,-37.068703,2019-09-07 14:14:49,0.0
687.0,-0.13739014,0.0056152343999999995,0.015991211,18.57252,43.78626,-32.297709999999995,2019-09-07 14:14:49,0.0
688.0,-0.14404297,0.014282227,0.020507812,13.526717000000001,41.190838,-27.885496000000003,2019-09-07 14:14:49,0.0
689.0,-0.15026855,0.0045776367,0.017700195,7.2290077,40.870228000000004,-22.335878,2019-09-07 14:14:49,0.0
690.0,-0.14068604,0.0032958984000000004,0.028198242000000002,8.328244,36.748093,-18.160304999999997,2019-09-07 14:14:49,0.0
691.0,-0.15667725,0.0126953125,0.028625487999999998,1.7938931,28.08397,-12.984733,2019-09-07 14:14:49,0.0
692.0,-0.15808105,0.002380371,0.021240234,-2.2595419999999997,30.847328000000005,-12.106871,2019-09-07 14:14:49,0.0
693.0,-0.16491699,0.016296387,0.013305663999999998,-24.038168,15.137404,-10.038167999999999,2019-09-07 14:14:49,0.0
694.0,-0.15808105,0.006286621,0.015686035,-40.17557,15.923664000000002,-6.664122,2019-09-07 14:14:49,0.0
695.0,-0.15802002,0.010437011999999999,0.020141601999999998,-64.64121999999999,-2.8854961,-0.4274809,2019-09-07 14:14:49,0.0
696.0,-0.13934326,0.008666992,0.018127441,-74.183205,-21.900763,11.648855000000001,2019-09-07 14:14:49,0.0
697.0,-0.12469482400000001,0.0067749023,0.017944336,-81.47328,-25.786259,22.809160000000002,2019-09-07 14:14:49,0.0
698.0,-0.14605713,0.0063476562,0.004272461,-68.816795,-21.137404999999998,36.900764,2019-09-07 14:14:49,0.0
699.0,-0.15740967,0.00982666,-6.1035155999999994e-05,-51.671757,-37.221375,51.038166,2019-09-07 14:14:49,0.0
700.0,-0.16186523,0.005859375,-0.008972168,-44.076336,-64.89313,68.23664000000001,2019-09-07 14:14:49,0.0
701.0,-0.14483643,-0.001159668,-0.0095825195,-38.923664,-82.87786,79.0229,2019-09-07 14:14:49,0.0
702.0,-0.13586426,0.00592041,-0.013244628999999999,-22.175573,-86.496185,88.08397,2019-09-07 14:14:49,0.0
703.0,-0.16198729999999997,0.006225586,-0.010070800999999999,-2.2290077,-94.137405,102.0458,2019-09-07 14:14:49,0.0
704.0,-0.13702393,-0.00091552734,-0.011047363000000001,13.320610999999998,-96.68701999999999,111.58015400000001,2019-09-07 14:14:49,0.0
705.0,-0.14147949,0.005065918,-0.0034790040000000004,35.725190000000005,-94.1145,119.20611000000001,2019-09-07 14:14:49,0.0
706.0,-0.13067627,0.002746582,-0.0020141601999999997,48.748093,-79.816795,122.35878000000001,2019-09-07 14:14:49,0.0
707.0,-0.13256836,0.006652831999999999,0.0016479492000000002,39.717556,-63.50382,117.68701999999999,2019-09-07 14:14:49,0.0
708.0,-0.11596680000000001,-0.0009765625,0.0025634766,24.137404999999998,-52.053436,104.32825,2019-09-07 14:14:49,0.0
709.0,-0.118652344,0.0026245116999999997,0.0048828125,7.0839696,-40.93893,84.27481,2019-09-07 14:14:49,0.0
710.0,-0.11755371,0.0049438477,0.0065307617,-0.89312977,-30.137404999999998,59.51145,2019-09-07 14:14:49,0.0
711.0,-0.11889648400000001,-0.0051879883,0.010131836,-4.3206105,-17.236639999999998,34.21374,2019-09-07 14:14:49,0.0
712.0,-0.123168945,0.009643555,0.00970459,-3.465649,-4.557252,2.3740457999999998,2019-09-07 14:14:50,0.0
713.0,-0.10070801,0.0048217773,0.015625,4.8778625,13.274809,-26.740458,2019-09-07 14:14:50,0.0
714.0,-0.13055419999999998,0.005493164,0.012390136999999999,9.198473,37.572517,-57.885498,2019-09-07 14:14:50,0.0
715.0,-0.10968017599999999,0.0041503906,0.010009766,1.9160305,63.801525,-88.48092,2019-09-07 14:14:50,0.0
716.0,-0.15161133,0.02142334,0.013244628999999999,-12.290076,82.59541999999999,-121.25954399999999,2019-09-07 14:14:50,0.0
717.0,-0.15686035,0.0061035156000000005,0.008239746,-12.458015,82.41984599999999,-146.48856,2019-09-07 14:14:50,0.0
718.0,-0.16455078,0.008178711,0.002319336,0.8396947,99.84733,-164.25954,2019-09-07 14:14:50,0.0
719.0,-0.17108154,0.011352538999999998,0.016113281,9.2595415,96.900764,-170.67175,2019-09-07 14:14:50,0.0
720.0,-0.14801025,0.005859375,0.020141601999999998,15.748092000000002,48.656490000000005,-152.30534,2019-09-07 14:14:50,0.0
721.0,-0.15032959,0.011413574,0.0016479492000000002,38.320609999999995,71.45038000000001,-136.3435,2019-09-07 14:14:50,0.0
722.0,-0.1449585,0.0017089844000000001,0.0138549805,54.15266999999999,64.83206,-112.96183,2019-09-07 14:14:50,0.0
723.0,-0.15655518,0.007751465,0.009094238000000001,56.549618,35.801525,-81.458015,2019-09-07 14:14:50,0.0
724.0,-0.14251709,-0.012756348,0.0018310547,73.061066,25.961832,-48.908398,2019-09-07 14:14:50,0.0
725.0,-0.15460205,-0.0015869141,0.0026245116999999997,73.03053,1.1984733,-15.648855,2019-09-07 14:14:50,0.0
726.0,-0.15594482,-6.1035155999999994e-05,-0.0010375977,87.27481,-12.770992,9.396947,2019-09-07 14:14:50,0.0
727.0,-0.15527344,0.0061035156000000005,0.0015258789000000001,113.62595,-20.42748,26.847328000000005,2019-09-07 14:14:50,0.0
728.0,-0.13916016,0.007629394499999999,0.0021362305,126.96947,-31.824427000000004,35.82443,2019-09-07 14:14:50,0.0
729.0,-0.12078857400000001,0.005981445300000001,0.0016479492000000002,134.28243999999998,-35.007633,34.297709999999995,2019-09-07 14:14:50,0.0
730.0,-0.14501953,0.0064697266000000005,0.006591797,124.16793999999999,-27.19084,24.503817,2019-09-07 14:14:50,0.0
731.0,-0.10229492,0.022888184,0.013977051,97.84733,-25.343512,6.9160304,2019-09-07 14:14:50,0.0
732.0,-0.1449585,0.006652831999999999,0.016723633,59.274809999999995,-14.236641,-10.274809,2019-09-07 14:14:50,0.0
733.0,-0.14367676,0.023010253999999997,0.015258788999999998,22.679389999999998,-5.4198474999999995,-23.740458,2019-09-07 14:14:50,0.0
734.0,-0.12713623,0.016967773000000002,0.024963378999999997,-3.1221373,7.160305499999999,-34.91603,2019-09-07 14:14:50,0.0
735.0,-0.11138916,0.016479492,0.017089844,-21.160304999999997,31.961832,-34.343509999999995,2019-09-07 14:14:50,0.0
736.0,-0.1618042,0.009765625,0.012145996000000001,-35.595420000000004,55.137405,-37.10687,2019-09-07 14:14:50,0.0
737.0,-0.15692139,0.003112793,0.0134887695,-58.572517000000005,55.78626,-36.984734,2019-09-07 14:14:50,0.0
738.0,-0.14019775,0.01171875,0.011108398,-71.9542,59.603054,-38.274809999999995,2019-09-07 14:14:50,0.0
739.0,-0.15893555,0.01776123,0.008544922,-79.9771,58.25954,-37.458015,2019-09-07 14:14:50,0.0
740.0,-0.14422607,0.009094238000000001,0.02758789,-96.35114,51.53435,-32.435116,2019-09-07 14:14:50,0.0
741.0,-0.13201904,0.018554688,0.030761719,-98.854965,8.091603,-17.541985,2019-09-07 14:14:50,0.0
742.0,-0.12854004,0.013366699,0.015625,-99.35878000000001,35.603054,-6.8244276,2019-09-07 14:14:50,0.0
743.0,-0.13598633,0.022277832,0.013549805,-127.46565,19.229008,1.4045801000000002,2019-09-07 14:14:50,0.0
744.0,-0.13812256,0.007690429699999999,-0.0017700195,-152.45038,-31.625953999999997,22.190839999999998,2019-09-07 14:14:50,0.0
745.0,-0.13421631,0.00982666,-0.013366699,-166.78625,-53.809162,40.87786,2019-09-07 14:14:50,0.0
746.0,-0.13769531,0.0015258789000000001,-0.015197753999999999,-167.3435,-75.9771,56.312977000000004,2019-09-07 14:14:50,0.0
747.0,-0.14080810000000002,-0.008300781,-0.014282227,-151.49618999999998,-94.92367,73.96947,2019-09-07 14:14:51,0.0
748.0,-0.14355469,-0.012145996000000001,-0.010070800999999999,-120.64121999999999,-106.27481,89.63359,2019-09-07 14:14:51,0.0
749.0,-0.1451416,-0.010498047,-0.009277344,-66.824425,-110.0,103.12214,2019-09-07 14:14:51,0.0
750.0,-0.14367676,0.0072021483999999995,0.0006713867,-15.519084,-105.35878000000001,118.25954399999999,2019-09-07 14:14:51,0.0
751.0,-0.14160156,0.0014038085999999999,-0.004028320300000001,23.419847,-96.65649,123.20611000000001,2019-09-07 14:14:51,0.0
752.0,-0.14129639,0.016174316,-0.0015258789000000001,38.389313,-80.48855,123.28244,2019-09-07 14:14:51,0.0
753.0,-0.13989258,0.0138549805,-0.003540039,26.954199,-65.19847,107.83206000000001,2019-09-07 14:14:51,0.0
754.0,-0.15014648,0.008850098,-0.0028076171999999997,12.404580000000001,-49.793890000000005,85.0687,2019-09-07 14:14:51,0.0
755.0,-0.13653564,0.011657715,-0.004638672,-20.015266,-33.656490000000005,63.9771,2019-09-07 14:14:51,0.0
756.0,-0.12420654,0.0028076171999999997,-0.014587402,-47.46565,-13.389313000000001,38.992367,2019-09-07 14:14:51,0.0
757.0,-0.14831543,0.010253906,-0.012390136999999999,-52.664124,4.6946564,13.541985,2019-09-07 14:14:51,0.0
758.0,-0.15472412,0.008117675999999999,-0.007629394499999999,-44.702290000000005,5.923664,-7.671755999999999,2019-09-07 14:14:51,0.0
759.0,-0.14965820000000002,0.0064086914,-0.009460449000000001,-21.51145,25.496183,-26.068703,2019-09-07 14:14:51,0.0
760.0,-0.13916016,-0.0012207030999999999,-0.0009765625,4.2900763,40.732826,-42.435116,2019-09-07 14:14:51,0.0
761.0,-0.12805176,0.00579834,0.012329102,15.122137,52.267174,-51.099236,2019-09-07 14:14:51,0.0
762.0,-0.14581299,0.004699707,0.0178833,16.954199,68.64886,-61.648853,2019-09-07 14:14:51,0.0
763.0,-0.11248779,0.004028320300000001,0.019897461,17.213741,70.46565,-65.12214,2019-09-07 14:14:51,0.0
764.0,-0.13897705,0.010375977,0.010314941,11.549619,83.03817,-69.20611,2019-09-07 14:14:51,0.0
765.0,-0.09832764,-0.004638672,0.009765625,5.2061067,81.96183,-73.099236,2019-09-07 14:14:51,0.0
766.0,-0.15338135,0.0028686523,0.014099121000000001,-4.557252,69.80915999999999,-69.8855,2019-09-07 14:14:51,0.0
767.0,-0.15026855,0.0017089844000000001,0.007446289,0.5801527,60.083969999999994,-68.60305,2019-09-07 14:14:51,0.0
768.0,-0.15765381,0.0033569335999999996,0.018066406,25.351145000000002,51.21374,-62.74046,2019-09-07 14:14:51,0.0
769.0,-0.13708496,-0.0037841796999999997,0.0134887695,46.748093,46.83206,-60.580154,2019-09-07 14:14:51,0.0
770.0,-0.14953613,-0.0045166016,0.015563965,55.099236,43.687022999999996,-61.0229,2019-09-07 14:14:51,0.0
771.0,-0.13720703,0.0034179688000000002,0.012939453,64.37405,43.587788,-64.25954399999999,2019-09-07 14:14:51,0.0
772.0,-0.15502929999999998,0.007629394499999999,0.01953125,52.282444,42.458015,-71.221375,2019-09-07 14:14:51,0.0
773.0,-0.14471436,0.006591797,0.017028809,33.183205,45.21374,-72.87786,2019-09-07 14:14:51,0.0
774.0,-0.15142822,0.01159668,0.021728516,14.549619,48.908398,-75.28244000000001,2019-09-07 14:14:51,0.0
775.0,-0.14483643,0.011962891000000002,0.024597168,9.687023,45.587788,-74.816795,2019-09-07 14:14:51,0.0
776.0,-0.15649414,0.0048217773,0.014038086000000002,7.625953999999999,48.297709999999995,-72.19084000000001,2019-09-07 14:14:51,0.0
777.0,-0.13647461,0.013122558999999999,0.012878418,9.198473,57.137405,-67.33588,2019-09-07 14:14:51,0.0
778.0,-0.13684082,0.00030517577999999995,0.010192871,-5.2977099999999995,41.648853,-55.14504,2019-09-07 14:14:51,0.0
779.0,-0.14636229999999997,0.021728516,0.015991211,-12.396947,34.427483,-42.648853,2019-09-07 14:14:51,0.0
780.0,-0.14868164,0.021728516,0.014953613000000001,-17.809160000000002,18.809160000000002,-22.114504,2019-09-07 14:14:51,0.0
781.0,-0.13690186,0.012756348,0.01953125,-24.923664000000002,12.732824,-6.6412214999999994,2019-09-07 14:14:51,0.0
782.0,-0.12799072,0.008239746,0.030273438,-29.977097999999998,-21.396946,15.816792999999999,2019-09-07 14:14:51,0.0
783.0,-0.12725830000000002,0.008422852,0.015563965,-35.320609999999995,-19.496183,30.931296999999997,2019-09-07 14:14:52,0.0
784.0,-0.13641357,0.008911133,0.010498047,-51.328243,-13.656488000000001,39.328243,2019-09-07 14:14:52,0.0
785.0,-0.14245605,0.010070800999999999,0.001953125,-71.27481,-59.71755600000001,55.62595400000001,2019-09-07 14:14:52,0.0
786.0,-0.14605713,0.014343261999999999,-0.009338379,-84.25954399999999,-90.07633,66.74045600000001,2019-09-07 14:14:52,0.0
787.0,-0.11956787,0.0053100586,-0.014526367,-96.091606,-94.62595,76.778625,2019-09-07 14:14:52,0.0
788.0,-0.12463379,0.0068359375,-0.010681152,-98.15267,-101.80915999999999,88.39695,2019-09-07 14:14:52,0.0
789.0,-0.14978027,0.0040893555,-0.0048828125,-87.96183,-100.74045600000001,98.12977,2019-09-07 14:14:52,0.0
790.0,-0.10015869,-0.011474608999999998,-0.0041503906,-64.0458,-99.96947,107.07633,2019-09-07 14:14:52,0.0
791.0,-0.14880371,0.0025024414000000004,-0.0028686523,-27.603053999999997,-94.74045600000001,116.59541999999999,2019-09-07 14:14:52,0.0
792.0,-0.13427734,-0.004333496,-0.0021362305,-2.053435,-79.938934,124.53435,2019-09-07 14:14:52,0.0
793.0,-0.14727783,0.0068969727,-0.0018310547,-0.114503816,-66.19847,117.24428,2019-09-07 14:14:52,0.0
794.0,-0.14868164,0.005676269499999999,-0.00390625,-9.305344,-56.679390000000005,109.54961999999999,2019-09-07 14:14:52,0.0
795.0,-0.13446045,0.010314941,0.0020751953,-35.625954,-45.503820000000005,94.46565,2019-09-07 14:14:52,0.0
796.0,-0.14593506,0.0068969727,-0.005981445300000001,-48.78626,-40.717556,83.145035,2019-09-07 14:14:52,0.0
797.0,-0.14471436,-0.0061035156000000005,-0.011779785,-57.648853,-30.229008,64.45038000000001,2019-09-07 14:14:52,0.0
798.0,-0.15447998,0.0029907227,-0.010986328,-40.21374,-30.992366999999998,46.419846,2019-09-07 14:14:52,0.0
799.0,-0.14611816,0.001159668,-0.008422852,-14.770992000000001,-26.755726,27.290077,2019-09-07 14:14:52,0.0
800.0,-0.14923096,-0.00042724610000000003,0.005676269499999999,17.08397,1.0152671,3.8091602,2019-09-07 14:14:52,0.0
801.0,-0.12994385,0.005676269499999999,0.012817383,36.0,23.221375,-22.099237,2019-09-07 14:14:52,0.0
802.0,-0.1350708,0.0029907227,0.029846191,31.694656,33.969467,-44.587788,2019-09-07 14:14:52,0.0
803.0,-0.10455322,-0.00018310547,0.023376465,30.038168,54.48855,-67.0,2019-09-07 14:14:52,0.0
804.0,-0.10198974599999999,0.0064697266000000005,0.027526855,25.496183,68.9542,-81.91603,2019-09-07 14:14:52,0.0
805.0,-0.119140625,-0.004028320300000001,0.013427733999999998,22.12977,82.27481,-98.29008,2019-09-07 14:14:52,0.0
806.0,-0.15106201,-0.0044555664,0.0033569335999999996,21.06107,91.091606,-114.36641000000002,2019-09-07 14:14:52,0.0
807.0,-0.14953613,0.0,0.008239746,16.343512,84.41984599999999,-122.29771000000001,2019-09-07 14:14:52,0.0
808.0,-0.16009521,0.005737304699999999,0.012390136999999999,29.38168,69.45038000000001,-126.0458,2019-09-07 14:14:52,0.0
809.0,-0.15270996,0.0072631836,0.006591797,52.656490000000005,71.10687,-121.00764,2019-09-07 14:14:52,0.0
810.0,-0.14624023,-0.007751465,0.0095825195,78.381676,68.099236,-114.05344,2019-09-07 14:14:52,0.0
811.0,-0.15252686,0.002319336,0.008605957,82.46565,63.30534399999999,-104.0,2019-09-07 14:14:52,0.0
812.0,-0.16033936,0.009094238000000001,0.004211426,82.28244000000001,64.67175,-96.35114,2019-09-07 14:14:52,0.0
813.0,-0.12915039,0.0072631836,0.006225586,67.70992,66.31298000000001,-87.70992,2019-09-07 14:14:52,0.0
814.0,-0.13110352,0.010925293,0.016479492,44.625954,61.931297,-79.1145,2019-09-07 14:14:52,0.0
815.0,-0.11669922,0.0,0.018249512,32.091602,55.55725,-69.03053,2019-09-07 14:14:52,0.0
816.0,-0.13378906,0.0036010741999999997,0.01763916,31.076335999999998,51.328243,-59.007633,2019-09-07 14:14:52,0.0
817.0,-0.1395874,0.012207031,0.010131836,30.358778000000004,65.42748,-53.603054,2019-09-07 14:14:53,0.0
818.0,-0.14715576,0.01159668,0.015930176,17.152672,49.198475,-40.931297,2019-09-07 14:14:53,0.0
819.0,-0.15362549,0.0016479492000000002,0.014404297,18.458015,36.908398,-27.877863,2019-09-07 14:14:53,0.0
820.0,-0.14910889,0.016723633,0.027893066,8.725191,29.366413,-15.870229,2019-09-07 14:14:53,0.0
821.0,-0.16003418,0.0115356445,0.037719727,-2.5267177000000003,36.396946,-7.70229,2019-09-07 14:14:53,0.0
822.0,-0.14453125,0.009399414,0.03729248,-12.473283,-20.763360000000002,13.854961,2019-09-07 14:14:53,0.0
823.0,-0.12652588,-0.00048828125,0.018127441,-16.389313,-11.2213745,29.48855,2019-09-07 14:14:53,0.0
824.0,-0.14611816,0.012145996000000001,0.018493652,-36.23664,-4.7938933,41.969467,2019-09-07 14:14:53,0.0
825.0,-0.15368652,0.00592041,0.010070800999999999,-63.87786,-47.809162,65.35114,2019-09-07 14:14:53,0.0
826.0,-0.15838623,0.0053100586,-0.0007934570299999999,-77.099236,-86.0229,84.57252,2019-09-07 14:14:53,0.0
827.0,-0.14117432,0.004211426,-0.010314941,-91.57252,-109.94656,105.74808999999999,2019-09-07 14:14:53,0.0
828.0,-0.14099121,0.001159668,-0.009643555,-86.98473,-123.36641000000002,122.24428,2019-09-07 14:14:53,0.0
829.0,-0.13903809,-0.003112793,-0.008056641,-78.770996,-134.45038,135.58015,2019-09-07 14:14:53,0.0
830.0,-0.14855957,-0.007446289,0.0013427734,-56.83206,-137.12978,149.96947,2019-09-07 14:14:53,0.0
831.0,-0.13922119,-0.0026245116999999997,0.0041503906,-23.778625,-126.05344,157.52671999999998,2019-09-07 14:14:53,0.0
832.0,-0.14471436,0.0071411133,0.0072631836,11.862596,-108.98473,157.60306,2019-09-07 14:14:53,0.0
833.0,-0.1381836,0.002380371,0.009094238000000001,21.778625,-91.87786,150.77863,2019-09-07 14:14:53,0.0
834.0,-0.12683105,0.014282227,0.0099487305,0.79389316,-68.58778000000001,130.32825,2019-09-07 14:14:53,0.0
835.0,-0.13232422,0.0064697266000000005,0.0021972656,-14.458015,-50.46565,104.618324,2019-09-07 14:14:53,0.0
836.0,-0.1083374,0.0018920898,0.0014038085999999999,-36.664124,-34.351147,76.37405,2019-09-07 14:14:53,0.0
837.0,-0.12158203,-0.007019043000000001,-0.0018920898,-44.656490000000005,-10.152672,44.419846,2019-09-07 14:14:53,0.0
838.0,-0.13470459,0.008239746,0.004333496,-38.687022999999996,13.335876999999998,3.648855,2019-09-07 14:14:53,0.0
839.0,-0.13653564,0.008544922,0.009094238000000001,-27.305344,28.57252,-32.587788,2019-09-07 14:14:53,0.0
840.0,-0.12384033,-0.013916016000000002,0.008117675999999999,-4.6946564,44.969467,-62.67175699999999,2019-09-07 14:14:53,0.0
841.0,-0.14044189999999998,0.005676269499999999,0.002746582,18.91603,76.08397,-95.8855,2019-09-07 14:14:53,0.0
842.0,-0.1593628,0.0018920898,0.020202637,29.282442,77.67175,-116.42748,2019-09-07 14:14:53,0.0
843.0,-0.13134766,-0.016235351999999998,0.018493652,34.160305,95.79389,-128.09923999999998,2019-09-07 14:14:53,0.0
844.0,-0.14971924,0.004760742,0.015930176,33.572517,112.19847,-135.53435,2019-09-07 14:14:53,0.0
845.0,-0.16033936,0.008483886999999999,0.012634277,32.580154,108.64121999999999,-131.50381000000002,2019-09-07 14:14:53,0.0
846.0,-0.13049316,0.0056152343999999995,-0.0026855469,9.755725,89.58015400000001,-114.35878000000001,2019-09-07 14:14:53,0.0
847.0,-0.1607666,0.0064086914,0.0036621094,-1.4351145,72.908394,-90.137405,2019-09-07 14:14:53,0.0
848.0,-0.15997314,0.005554199,0.006591797,-10.961832000000001,60.23664,-62.732826,2019-09-07 14:14:53,0.0
849.0,-0.13604736,-0.019104003999999997,0.005432129,1.8167938999999997,49.572517,-34.595420000000004,2019-09-07 14:14:53,0.0
850.0,-0.16192627,0.005493164,6.1035155999999994e-05,33.068703,47.580154,-17.145039,2019-09-07 14:14:53,0.0
851.0,-0.12921143,0.0024414061999999998,0.0064086914,58.48855,40.648853,-10.320611,2019-09-07 14:14:54,0.0
852.0,-0.13861084,0.0013427734,0.011657715,71.20611,37.48855,-11.427481,2019-09-07 14:14:54,0.0
853.0,-0.13317871,0.009277344,0.018920898000000002,67.39695,32.656490000000005,-17.526718,2019-09-07 14:14:54,0.0
854.0,-0.13793945,0.016479492,0.023864746000000003,49.992367,34.351147,-29.770992,2019-09-07 14:14:54,0.0
855.0,-0.14099121,0.010437011999999999,0.032287598,22.824427,41.709922999999996,-47.320609999999995,2019-09-07 14:14:54,0.0
856.0,-0.11584473,0.011169433999999999,0.023376465,-1.1984733,45.603054,-59.351147,2019-09-07 14:14:54,0.0
857.0,-0.12896729,0.0064697266000000005,0.022033691,-17.251910000000002,54.18320500000001,-68.99235999999999,2019-09-07 14:14:54,0.0
858.0,-0.14611816,0.007507324,0.015930176,-33.633587,65.0687,-74.9542,2019-09-07 14:14:54,0.0
859.0,-0.14636229999999997,0.012939453,0.018737793,-43.618320000000004,62.938930000000006,-73.19847,2019-09-07 14:14:54,0.0
860.0,-0.1529541,0.010253906,0.014709473,-45.312977000000004,57.38168,-70.05344000000001,2019-09-07 14:14:54,0.0
861.0,-0.15386963,-0.0036621094,0.016540527,-45.343509999999995,42.656490000000005,-58.458015,2019-09-07 14:14:54,0.0
862.0,-0.14752197,0.016296387,0.019042969,-40.129771999999996,19.648854999999998,-41.625954,2019-09-07 14:14:54,0.0
863.0,-0.14312744,0.0051879883,0.028625487999999998,-32.229008,-7.4885497,-20.450382,2019-09-07 14:14:54,0.0
864.0,-0.14508057,0.005737304699999999,0.027709961,-14.488548999999999,-43.282444,3.7099237,2019-09-07 14:14:54,0.0
865.0,-0.124816895,0.0015258789000000001,0.009765625,-9.763359,-41.83206,23.839695000000003,2019-09-07 14:14:54,0.0
866.0,-0.14807129,0.0099487305,-0.0012817383,-31.877863,-51.755726,43.900764,2019-09-07 14:14:54,0.0
867.0,-0.14978027,0.0067749023,-0.013183594,-55.312977000000004,-88.37405,66.0229,2019-09-07 14:14:54,0.0
868.0,-0.15130615,0.008361816,-0.013366699,-62.541985,-112.27481,84.98473,2019-09-07 14:14:54,0.0
869.0,-0.15002441,0.0007934570299999999,-0.010986328,-58.312977000000004,-130.23665,100.74045600000001,2019-09-07 14:14:54,0.0
870.0,-0.15930176,0.0037841796999999997,-0.004272461,-39.91603,-133.83206,116.57252,2019-09-07 14:14:54,0.0
871.0,-0.14801025,0.0051879883,-0.0020141601999999997,-13.152672,-133.32825,129.08397,2019-09-07 14:14:54,0.0
872.0,-0.15649414,0.002319336,-0.0010375977,24.931297,-127.28244,143.92366,2019-09-07 14:14:54,0.0
873.0,-0.14715576,0.00390625,0.0061035156000000005,43.15267,-110.72519,150.52671999999998,2019-09-07 14:14:54,0.0
874.0,-0.14752197,0.006713866999999999,0.0029907227,40.419846,-89.29008,148.38168000000002,2019-09-07 14:14:54,0.0
875.0,-0.13116455,0.015319824,-0.0028686523,15.671756,-70.8855,135.21375,2019-09-07 14:14:54,0.0
876.0,-0.15008545,0.0037231445,-0.0009765625,-18.221375,-55.59542,113.03053,2019-09-07 14:14:54,0.0
877.0,-0.11456299,0.0012207030999999999,-0.00018310547,-52.480915,-39.732826,91.496185,2019-09-07 14:14:54,0.0
878.0,-0.12915039,0.01159668,0.004211426,-65.58778000000001,-25.458015,70.91603,2019-09-07 14:14:54,0.0
879.0,-0.12182617,-0.006652831999999999,0.002319336,-76.55725,-6.9541984,46.251907,2019-09-07 14:14:54,0.0
880.0,-0.1593628,0.0029907227,-0.0014648438,-64.64886,4.7480917,19.778625,2019-09-07 14:14:54,0.0
881.0,-0.10308838,-0.007690429699999999,-0.0034790040000000004,-29.648854999999998,11.526717,-3.3435113,2019-09-07 14:14:54,0.0
882.0,-0.14953613,-0.0038452148,0.00982666,7.8244276,33.816795,-31.549618,2019-09-07 14:14:54,0.0
883.0,-0.14239502,0.0032348633000000003,0.014038086000000002,39.870228000000004,60.251906999999996,-62.931297,2019-09-07 14:14:54,0.0
884.0,-0.113342285,0.00042724610000000003,0.028625487999999998,48.137405,48.625954,-80.1145,2019-09-07 14:14:54,0.0
885.0,-0.12188721,0.0026855469,0.005126953,61.656490000000005,76.78626,-103.28244000000001,2019-09-07 14:14:54,0.0
886.0,-0.16217041,0.00579834,0.010986328,75.496185,93.96947,-124.63358999999998,2019-09-07 14:14:54,0.0
887.0,-0.15362549,0.0146484375,0.008117675999999999,67.55725,92.94655999999999,-141.17557,2019-09-07 14:14:54,0.0
888.0,-0.15344238,-0.0033569335999999996,0.00793457,61.549618,98.183205,-155.25954,2019-09-07 14:14:54,0.0
889.0,-0.1517334,0.00048828125,0.013916016000000002,68.25954399999999,90.37405,-156.30534,2019-09-07 14:14:54,0.0
890.0,-0.13867188,-0.008605957,0.010925293,66.46565,83.27481,-149.22137,2019-09-07 14:14:55,0.0
891.0,-0.14276123,0.010620117,0.014282227,65.137405,79.20611,-138.01527,2019-09-07 14:14:55,0.0
892.0,-0.14099121,0.0022583008,0.013427733999999998,60.17556999999999,76.98473,-124.35113999999999,2019-09-07 14:14:55,0.0
893.0,-0.12097168,0.014465332,0.015930176,58.78626,74.89313,-111.221375,2019-09-07 14:14:55,0.0
894.0,-0.14099121,0.0065307617,0.013000488000000001,44.137405,78.57252,-105.07633,2019-09-07 14:14:55,0.0
895.0,-0.14178467,0.0034179688000000002,0.015197753999999999,33.198475,71.0458,-92.62595,2019-09-07 14:14:55,0.0
896.0,-0.16033936,0.005554199,0.0178833,31.419846999999997,49.76336,-78.54961999999999,2019-09-07 14:14:55,0.0
897.0,-0.14489746,0.0071411133,0.018615723,34.305344,35.450382,-63.687022999999996,2019-09-07 14:14:55,0.0
898.0,-0.13366699,0.0061035156000000005,0.0146484375,49.458015,33.541985,-46.870228000000004,2019-09-07 14:14:55,0.0
899.0,-0.144104,0.00793457,0.014587402,65.32825,39.14504,-29.633587,2019-09-07 14:14:55,0.0
900.0,-0.14971924,0.00982666,0.009765625,70.9771,11.633588,-8.198473,2019-09-07 14:14:55,0.0
901.0,-0.14965820000000002,0.0099487305,0.0010986328,66.28244000000001,13.0992365,7.885496000000001,2019-09-07 14:14:55,0.0
902.0,-0.16394043,0.008117675999999999,0.0134887695,50.778625,-11.297709,26.358778000000004,2019-09-07 14:14:55,0.0
903.0,-0.15710449,0.026062012000000002,0.0045776367,18.068703,16.503817,34.84733,2019-09-07 14:14:55,0.0
904.0,-0.1529541,0.015808105,0.022644043,-17.305344,-11.595419999999999,45.625954,2019-09-07 14:14:55,0.0
905.0,-0.12414551,0.012939453,0.016357422,-46.053436,-36.85496,58.114502,2019-09-07 14:14:55,0.0
906.0,-0.14794922,0.019592285,0.010009766,-69.71755999999999,-1.9236640999999999,61.091602,2019-09-07 14:14:55,0.0
907.0,-0.14892578,0.018066406,0.005554199,-104.64121999999999,-30.80916,70.061066,2019-09-07 14:14:55,0.0
908.0,-0.15026855,0.011108398,-0.0073242188,-135.06107,-56.114502,78.55725,2019-09-07 14:14:55,0.0
909.0,-0.14544678,0.001953125,-0.011657715,-140.80916000000002,-71.33588,91.58015400000001,2019-09-07 14:14:55,0.0
910.0,-0.1529541,-0.0024414061999999998,-0.011169433999999999,-140.2519,-87.80915999999999,101.44275,2019-09-07 14:14:55,0.0
911.0,-0.15765381,-0.00018310547,-0.012207031,-120.19084,-99.29771,114.96947,2019-09-07 14:14:55,0.0
912.0,-0.14587402,-0.009460449000000001,-0.0138549805,-93.83969,-101.67939,130.30534,2019-09-07 14:14:55,0.0
913.0,-0.15734863,0.0016479492000000002,-0.0068359375,-53.083969999999994,-104.08397,146.40458999999998,2019-09-07 14:14:55,0.0
914.0,-0.15734863,0.007080078,-0.007629394499999999,-26.267176,-98.83969,152.38168000000002,2019-09-07 14:14:55,0.0
915.0,-0.1171875,0.012512207,-0.008300781,-9.145039,-90.20611,154.48856,2019-09-07 14:14:55,0.0
916.0,-0.15484619,0.0071411133,-0.008117675999999999,-13.641221,-76.03053,148.15266,2019-09-07 14:14:55,0.0
917.0,-0.15350342,-0.0008544922000000001,-0.0036621094,-27.290077,-62.297709999999995,133.87022,2019-09-07 14:14:55,0.0
918.0,-0.13574219,0.0087890625,-0.0017700195,-45.419846,-48.694656,115.51145,2019-09-07 14:14:55,0.0
919.0,-0.13122559,0.0028076171999999997,-0.0053710938,-58.961833999999996,-30.832062,92.70229,2019-09-07 14:14:55,0.0
920.0,-0.12280273400000001,0.003112793,-0.005004883,-58.40458,-5.847328,59.946564,2019-09-07 14:14:55,0.0
921.0,-0.15985107,0.0072631836,-0.001159668,-59.778625,8.725191,26.12977,2019-09-07 14:14:55,0.0
922.0,-0.12896729,-0.0037231445,0.008850098,-45.55725,28.229008,-5.778626,2019-09-07 14:14:55,0.0
923.0,-0.12054443,-0.016540527,0.009094238000000001,-23.839695000000003,54.251906999999996,-42.14504,2019-09-07 14:14:55,0.0
924.0,-0.1395874,-0.0007324219,0.01977539,1.961832,71.57252,-75.19847,2019-09-07 14:14:55,0.0
925.0,-0.12615967,-0.013183594,0.038635254,5.259542,87.618324,-100.9771,2019-09-07 14:14:55,0.0
926.0,-0.14550781,-0.0119018555,0.01361084,47.335876,80.35878000000001,-124.0458,2019-09-07 14:14:56,0.0
927.0,-0.1373291,-0.0026245116999999997,-0.016052246000000003,116.54961999999999,56.778625,-131.41222,2019-09-07 14:14:56,0.0
928.0,-0.13439941,6.1035155999999994e-05,-0.025634766,176.38931000000002,84.38931,-147.21375,2019-09-07 14:14:56,0.0
929.0,-0.14099121,0.008544922,-0.008239746,182.48091000000002,68.15267,-142.0,2019-09-07 14:14:56,0.0
930.0,-0.14361572,0.011047363000000001,0.01171875,154.10687,45.320609999999995,-135.99237,2019-09-07 14:14:56,0.0
931.0,-0.14874268,0.010437011999999999,0.023132324,121.94656,39.946564,-134.10687,2019-09-07 14:14:56,0.0
932.0,-0.14154053,0.010925293,0.016418457,84.76335999999999,46.801525,-127.36641000000002,2019-09-07 14:14:56,0.0
933.0,-0.1350708,0.018432617,0.010192871,51.366413,47.595420000000004,-117.48855,2019-09-07 14:14:56,0.0
934.0,-0.1307373,0.024108887000000002,0.008666992,21.969465,53.83206,-111.25191000000001,2019-09-07 14:14:56,0.0
935.0,-0.13641357,0.0028076171999999997,0.007385254,5.5038165999999995,56.48855,-104.39695,2019-09-07 14:14:56,0.0
936.0,-0.13806152,0.0034790040000000004,0.0078125,-5.9770994,54.274809999999995,-91.87786,2019-09-07 14:14:56,0.0
937.0,-0.15594482,6.1035155999999994e-05,0.0024414061999999998,-1.1526718,46.74046,-82.0,2019-09-07 14:14:56,0.0
938.0,-0.14666748,0.005737304699999999,0.011047363000000001,17.274809,32.0229,-71.862595,2019-09-07 14:14:56,0.0
939.0,-0.13500977,0.009216309,0.0032958984000000004,33.91603,36.282444,-61.656490000000005,2019-09-07 14:14:56,0.0
940.0,-0.12042236,0.018859863,0.010681152,35.25954,54.343509999999995,-55.007633,2019-09-07 14:14:56,0.0
941.0,-0.15447998,0.017578125,0.009460449000000001,26.38168,29.786259,-43.74046,2019-09-07 14:14:56,0.0
942.0,-0.15563965,0.025878906,0.014038086000000002,17.183207,34.137405,-28.595419,2019-09-07 14:14:56,0.0
943.0,-0.14886475,0.022521972999999997,0.013671875,-6.5725193,29.160304999999997,-10.946565,2019-09-07 14:14:56,0.0
944.0,-0.14776611,0.016601562,0.02923584,-37.992367,5.923664,9.412213000000001,2019-09-07 14:14:56,0.0
945.0,-0.1260376,0.041503906,0.017944336,-52.687022999999996,-11.862596,32.358779999999996,2019-09-07 14:14:56,0.0
946.0,-0.13885498,0.0234375,0.017822266,-58.9771,-1.7175573,52.450382,2019-09-07 14:14:56,0.0
947.0,-0.15606689999999998,0.009033203,0.0025024414000000004,-81.0,-35.21374,72.73283,2019-09-07 14:14:56,0.0
948.0,-0.14520264,0.01159668,-0.008361816,-94.74809,-71.45038000000001,94.25954399999999,2019-09-07 14:14:56,0.0
949.0,-0.13476562,0.0026855469,-0.013916016000000002,-117.16793999999999,-84.24428,104.73283,2019-09-07 14:14:56,0.0
950.0,-0.15527344,0.0031738281,-0.01361084,-136.01527,-101.458015,115.29771000000001,2019-09-07 14:14:56,0.0
951.0,-0.15307617,0.0029296875,-0.015075683999999999,-139.15266,-106.67938999999998,127.229004,2019-09-07 14:14:56,0.0
952.0,-0.15765381,-0.00018310547,-0.006713866999999999,-120.05344,-115.27481,136.24428,2019-09-07 14:14:56,0.0
953.0,-0.15386963,-0.004211426,-0.0037231445,-79.221375,-117.70992,145.18321,2019-09-07 14:14:56,0.0
954.0,-0.15460205,0.0034790040000000004,-0.0026245116999999997,-34.83206,-104.37405,148.51908999999998,2019-09-07 14:14:56,0.0
955.0,-0.13909912,0.005126953,-0.0013427734,-4.664122,-91.824425,150.87787,2019-09-07 14:14:56,0.0
956.0,-0.125,0.0017089844000000001,-0.006225586,-1.6870228999999999,-74.57252,140.12213,2019-09-07 14:14:56,0.0
957.0,-0.14483643,0.022827148,-0.0029907227,-10.641221,-61.450382,124.900764,2019-09-07 14:14:56,0.0
958.0,-0.14697266,0.013427733999999998,-0.0021972656,-35.068703,-50.076336,105.83968999999999,2019-09-07 14:14:56,0.0
959.0,-0.12719727,0.0056152343999999995,-0.0020141601999999997,-48.587788,-39.14504,84.39695,2019-09-07 14:14:56,0.0
960.0,-0.15429688,0.0053710938,-0.010925293,-49.17557,-20.93893,57.732826,2019-09-07 14:14:56,0.0
961.0,-0.13665771,0.0018310547,-0.0065307617,-43.08397,-11.167939,28.89313,2019-09-07 14:14:56,0.0
962.0,-0.13372803,0.0049438477,0.008728027,-29.25191,0.8396947,1.8931297999999999,2019-09-07 14:14:57,0.0
963.0,-0.13153076,0.00592041,0.017333984,-14.335876999999998,27.61832,-30.312977000000004,2019-09-07 14:14:57,0.0
964.0,-0.12908936,-0.00970459,0.008972168,9.580152499999999,47.656490000000005,-59.206109999999995,2019-09-07 14:14:57,0.0
965.0,-0.10784912,-0.0036621094,0.018981934,18.167938,47.137405,-76.40458000000001,2019-09-07 14:14:57,0.0
966.0,-0.12341308599999999,0.0026245116999999997,0.010009766,43.595420000000004,67.0229,-97.67175,2019-09-07 14:14:57,0.0
967.0,-0.14215088,-0.008544922,0.012878418,64.80153,82.8855,-115.62595,2019-09-07 14:14:57,0.0
968.0,-0.13446045,0.007629394499999999,0.010864258,61.587788,78.854965,-124.58778000000001,2019-09-07 14:14:57,0.0
969.0,-0.14935303,0.003112793,0.0048217773,55.450382,79.29008,-132.38168000000002,2019-09-07 14:14:57,0.0
970.0,-0.15246582,0.006225586,0.0048828125,59.190838,69.60305,-130.53435,2019-09-07 14:14:57,0.0
971.0,-0.14996338,-0.005065918,0.011230469,64.59541999999999,63.12214,-125.24428,2019-09-07 14:14:57,0.0
972.0,-0.14910889,0.013549805,0.01171875,68.74809,56.870228000000004,-118.80916,2019-09-07 14:14:57,0.0
973.0,-0.14941406,0.009277344,0.008544922,70.0687,63.274809999999995,-111.74808999999999,2019-09-07 14:14:57,0.0
974.0,-0.14227295,0.009399414,0.01184082,66.74045600000001,63.290077000000004,-107.36641000000002,2019-09-07 14:14:57,0.0
975.0,-0.13830566,-0.0026855469,0.006713866999999999,58.37404599999999,62.61832,-107.71756,2019-09-07 14:14:57,0.0
976.0,-0.14874268,0.020507812,0.008056641,44.44275,64.824425,-108.50381499999999,2019-09-07 14:14:57,0.0
977.0,-0.15093994,0.015808105,0.01763916,27.412214000000002,56.633587,-107.31298000000001,2019-09-07 14:14:57,0.0
978.0,-0.1453247,0.0087890625,0.031433105,15.938931,56.656490000000005,-102.21374,2019-09-07 14:14:57,0.0
979.0,-0.1508789,0.005859375,0.019836426,4.1374044,57.52672,-94.908394,2019-09-07 14:14:57,0.0
980.0,-0.14849854,0.007629394499999999,0.023498535,-12.763359,76.19847,-87.67175,2019-09-07 14:14:57,0.0
981.0,-0.14416504,0.028503418,0.023498535,-28.793894,55.793890000000005,-73.07633,2019-09-07 14:14:57,0.0
982.0,-0.1618042,0.007751465,0.019104003999999997,-30.328245000000003,32.595420000000004,-52.48855,2019-09-07 14:14:57,0.0
983.0,-0.14282227,0.01586914,0.019958496000000003,-29.389313,17.206106,-27.465649,2019-09-07 14:14:57,0.0
984.0,-0.16021729,0.006958008000000001,0.014282227,-29.343512,24.320610000000002,-2.0305343000000002,2019-09-07 14:14:57,0.0
985.0,-0.15161133,0.0048828125,0.024902344,-37.778625,-26.12977,24.152672,2019-09-07 14:14:57,0.0
986.0,-0.12182617,-0.0012817383,0.010253906,-33.06107,-36.748093,49.541985,2019-09-07 14:14:57,0.0
987.0,-0.15124512,0.0010375977,0.0087890625,-22.06107,-27.206106,62.679390000000005,2019-09-07 14:14:57,0.0
988.0,-0.14721679999999998,0.012268066000000001,0.0007324219,-43.809162,-55.32824300000001,79.816795,2019-09-07 14:14:57,0.0
989.0,-0.16259766,0.0087890625,-0.007751465,-67.59541999999999,-87.74045600000001,96.57252,2019-09-07 14:14:57,0.0
990.0,-0.14929199,0.014587402,-0.016479492,-87.70992,-104.19847,110.14503500000001,2019-09-07 14:14:57,0.0
991.0,-0.16229248,0.0036621094,-0.0048828125,-93.12214,-117.07633,123.87023,2019-09-07 14:14:57,0.0
992.0,-0.15917969,0.010070800999999999,-0.008911133,-99.79389,-117.74808999999999,138.43511999999998,2019-09-07 14:14:57,0.0
993.0,-0.15051270000000003,-0.004760742,-0.0033569335999999996,-87.8855,-110.61068999999999,150.33588,2019-09-07 14:14:57,0.0
994.0,-0.1586914,0.0014038085999999999,-0.008544922,-66.98473,-107.70992,162.80916000000002,2019-09-07 14:14:57,0.0
995.0,-0.16253662,0.005676269499999999,-0.004760742,-36.473279999999995,-99.20611,172.61831999999998,2019-09-07 14:14:57,0.0
996.0,-0.16320801,0.008300781,-0.005065918,-23.152672,-83.96947,169.37403999999998,2019-09-07 14:14:57,0.0
997.0,-0.16345215,0.008666992,-0.0068359375,-24.847328,-74.91603,161.8855,2019-09-07 14:14:58,0.0
998.0,-0.14544678,0.010253906,-0.008178711,-41.282444,-58.0,143.19083999999998,2019-09-07 14:14:58,0.0
999.0,-0.16351318,0.008911133,-0.004028320300000001,-61.55725,-49.267174,122.48092,2019-09-07 14:14:58,0.0
1000.0,-0.1194458,-0.01727295,-0.007080078,-60.809162,-42.076336,95.80153,2019-09-07 14:14:58,0.0
1001.0,-0.12670898,-0.015014648,-0.009460449000000001,-32.519085,-20.984734,67.51908,2019-09-07 14:14:58,0.0
1002.0,-0.14520264,-0.010253906,0.0020141601999999997,-3.4809160000000006,0.053435113,30.534351,2019-09-07 14:14:58,0.0
1003.0,-0.13079834,0.005676269499999999,0.011169433999999999,14.259541500000001,11.381680000000001,-3.3740457999999998,2019-09-07 14:14:58,0.0
1004.0,-0.14526367,-0.0025634766,0.011657715,19.160304999999997,28.259542,-38.251907,2019-09-07 14:14:58,0.0
1005.0,-0.13964844,-0.0010986328,0.018310547,10.389313000000001,50.076336,-74.52672,2019-09-07 14:14:58,0.0
1006.0,-0.11590576,0.0015869141,0.02758789,-15.885496,42.0,-94.78626,2019-09-07 14:14:58,0.0
1007.0,-0.109191895,0.0014648438,0.008422852,-12.80916,67.64121999999999,-108.0458,2019-09-07 14:14:58,0.0
1008.0,-0.15301514,-0.0037231445,0.0024414061999999998,20.877863,86.72519,-123.19084,2019-09-07 14:14:58,0.0
1009.0,-0.14141846,-0.016113281,-0.0028076171999999997,37.961834,79.64886,-126.80916,2019-09-07 14:14:58,0.0
1010.0,-0.15704346,0.0015258789000000001,0.0007934570299999999,82.41221999999999,78.63359,-133.96184,2019-09-07 14:14:58,0.0
1011.0,-0.18084717,0.02355957,0.0068359375,119.19084,64.770996,-137.54199,2019-09-07 14:14:58,0.0
1012.0,-0.15283203,0.013183594,0.0053100586,144.12978,53.076336,-138.3435,2019-09-07 14:14:58,0.0
1013.0,-0.15185547,0.01763916,0.0024414061999999998,148.00763,53.633587,-138.64885,2019-09-07 14:14:58,0.0
1014.0,-0.14996338,0.018981934,0.006958008000000001,131.80916000000002,53.274809999999995,-139.98473,2019-09-07 14:14:58,0.0
1015.0,-0.13024902,0.03326416,0.010131836,95.938934,57.0229,-142.83969,2019-09-07 14:14:58,0.0
1016.0,-0.15545654,0.018371582,0.01184082,50.946564,68.496185,-144.58778,2019-09-07 14:14:58,0.0
1017.0,-0.1552124,0.014282227,0.012451172,12.297709,72.99235999999999,-142.68703,2019-09-07 14:14:58,0.0
1018.0,-0.15289307,0.013244628999999999,0.015319824,-21.297710000000002,74.54961999999999,-137.9542,2019-09-07 14:14:58,0.0
1019.0,-0.15063477,0.007446289,0.022644043,-24.312977,72.29008,-127.770996,2019-09-07 14:14:58,0.0
1020.0,-0.15704346,0.0025634766,0.017028809,-22.809160000000002,71.65649,-109.73283,2019-09-07 14:14:58,0.0
1021.0,-0.14019775,0.012207031,0.011779785,-7.076336,85.87786,-86.80153,2019-09-07 14:14:58,0.0
1022.0,-0.1585083,0.005859375,0.018737793,-0.7099236999999999,48.374046,-53.35878,2019-09-07 14:14:58,0.0
1023.0,-0.15747070000000002,0.009521484,0.020324707,7.969465700000001,29.412214000000002,-16.740458,2019-09-07 14:14:58,0.0
1024.0,-0.15258789,0.009033203,0.016723633,8.679389,4.885496,17.267176,2019-09-07 14:14:58,0.0
1025.0,-0.15887451,0.0045166016,0.012878418,9.297709,20.877863,45.015266,2019-09-07 14:14:58,0.0
1026.0,-0.15765381,-0.00012207031000000001,0.03338623,0.26717559,-24.099237,67.84733,2019-09-07 14:14:58,0.0
1027.0,-0.13049316,0.019165039,0.018371582,4.0076336999999995,-65.145035,93.36641,2019-09-07 14:14:58,0.0
1028.0,-0.15856934,0.009643555,0.014465332,-7.793893300000001,-23.725191,101.01527,2019-09-07 14:14:58,0.0
1029.0,-0.16040039,0.008117675999999999,0.010192871,-53.274809999999995,-48.74046,113.62595,2019-09-07 14:14:58,0.0
1030.0,-0.13995361,0.015319824,-0.0034790040000000004,-93.23664000000001,-78.24428,121.15267,2019-09-07 14:14:58,0.0
1031.0,-0.16424560000000002,0.008605957,-0.014282227,-119.42748,-86.96947,126.45038000000001,2019-09-07 14:14:58,0.0
1032.0,-0.1607666,0.0032958984000000004,-0.016967773000000002,-134.64885,-101.26717,132.37403999999998,2019-09-07 14:14:58,0.0
1033.0,-0.16802979,0.011352538999999998,-0.012390136999999999,-135.82443,-108.32825,137.12978,2019-09-07 14:14:59,0.0
1034.0,-0.16320801,0.0072021483999999995,-0.008239746,-124.60305,-104.58015400000001,138.77863,2019-09-07 14:14:59,0.0
1035.0,-0.16400146,0.007080078,0.00091552734,-96.0458,-95.25191,142.72519,2019-09-07 14:14:59,0.0
1036.0,-0.15460205,0.0178833,-0.0034179688000000002,-64.29008,-82.0458,143.83969,2019-09-07 14:14:59,0.0
1037.0,-0.15667725,0.016052246000000003,-0.0014648438,-42.51145,-70.908394,138.77100000000002,2019-09-07 14:14:59,0.0
1038.0,-0.14447021,-0.0071411133,-0.008300781,-37.816795,-57.129771999999996,128.1374,2019-09-07 14:14:59,0.0
1039.0,-0.14611816,0.0048217773,-0.0068359375,-51.572517,-46.045803,112.51145,2019-09-07 14:14:59,0.0
1040.0,-0.11254883,0.009887695,-0.0053100586,-60.9771,-36.969467,95.29771,2019-09-07 14:14:59,0.0
1041.0,-0.13171387,0.0073242188,-0.006042480500000001,-64.9771,-28.709923,77.80153,2019-09-07 14:14:59,0.0
1042.0,-0.119262695,0.014831543,-0.009155273,-52.480915,-14.259541500000001,50.618320000000004,2019-09-07 14:14:59,0.0
1043.0,-0.15039062,-0.0032348633000000003,-0.006286621,-31.045801,-4.9007635,23.908398000000002,2019-09-07 14:14:59,0.0
1044.0,-0.13677979,-0.0032348633000000003,-0.0037841796999999997,0.6870229,8.610686999999999,-3.4503817999999997,2019-09-07 14:14:59,0.0
1045.0,-0.14508057,0.0064086914,0.0032348633000000003,21.877863,33.908398,-37.53435,2019-09-07 14:14:59,0.0
1046.0,-0.14709473,0.010803223,0.013305663999999998,38.862595,51.458015,-68.19084000000001,2019-09-07 14:14:59,0.0
1047.0,-0.14746094,0.0030517578000000003,0.015014648,43.091602,71.15267,-95.938934,2019-09-07 14:14:59,0.0
1048.0,-0.13928223,-6.1035155999999994e-05,0.016357422,39.656490000000005,85.091606,-119.26717,2019-09-07 14:14:59,0.0
1049.0,-0.14862060000000002,0.005859375,0.018554688,43.381679999999996,91.824425,-136.19847,2019-09-07 14:14:59,0.0
1050.0,-0.15045166,0.010620117,0.0045166016,44.320609999999995,93.8855,-143.23665,2019-09-07 14:14:59,0.0
1051.0,-0.14758301,0.0056152343999999995,0.0031738281,59.984733999999996,88.67939,-142.69466,2019-09-07 14:14:59,0.0
1052.0,-0.15979004,0.005432129,0.0020141601999999997,68.770996,76.496185,-132.77100000000002,2019-09-07 14:14:59,0.0
1053.0,-0.15014648,-0.005859375,0.0067749023,75.31298000000001,64.25191,-121.58778000000001,2019-09-07 14:14:59,0.0
1054.0,-0.13885498,0.006164551,0.0013427734,87.175575,56.46565,-110.770996,2019-09-07 14:14:59,0.0
1055.0,-0.15185547,0.009216309,0.0034179688000000002,98.83969,50.679390000000005,-101.27481,2019-09-07 14:14:59,0.0
1056.0,-0.14434814,0.005065918,0.0029907227,95.47328,47.282444,-93.29771,2019-09-07 14:14:59,0.0
1057.0,-0.14294434,0.01727295,0.0073242188,82.938934,51.572517,-91.137405,2019-09-07 14:14:59,0.0
1058.0,-0.15228271,0.011291503999999999,0.013793945,58.038166000000004,49.687022999999996,-90.69466,2019-09-07 14:14:59,0.0
1059.0,-0.16253662,0.0067749023,0.018188476999999998,39.549618,45.366413,-88.19084000000001,2019-09-07 14:14:59,0.0
1060.0,-0.1572876,0.011474608999999998,0.022583007999999998,29.389313,45.419846,-86.221375,2019-09-07 14:14:59,0.0
1061.0,-0.1595459,0.0041503906,0.020080566,28.93893,44.038166,-80.31298000000001,2019-09-07 14:14:59,0.0
1062.0,-0.15130615,0.010131836,0.013977051,34.946564,61.84733000000001,-79.221375,2019-09-07 14:14:59,0.0
1063.0,-0.16082764,0.00793457,0.016052246000000003,32.969467,45.801525,-68.00764000000001,2019-09-07 14:14:59,0.0
1064.0,-0.16015625,0.010437011999999999,0.013427733999999998,20.748089999999998,34.480915,-50.10687,2019-09-07 14:14:59,0.0
1065.0,-0.12237549,0.033691406,0.02154541,4.4351144,21.610687,-24.954199,2019-09-07 14:14:59,0.0
1066.0,-0.16699219,0.019836426,0.016296387,-25.977098,44.55725,-6.4961834000000005,2019-09-07 14:14:59,0.0
1067.0,-0.16259766,0.00793457,0.024780273,-53.633587,-16.160304999999997,20.61832,2019-09-07 14:14:59,0.0
1068.0,-0.1439209,0.0056152343999999995,0.0024414061999999998,-61.0229,-1.3664121999999999,44.496179999999995,2019-09-07 14:14:59,0.0
1069.0,-0.16296387,0.0065307617,0.00982666,-77.44275,-16.832062,60.633587,2019-09-07 14:15:00,0.0
1070.0,-0.1630249,0.0073242188,-0.004028320300000001,-94.12214,-58.015266000000004,81.98473,2019-09-07 14:15:00,0.0
1071.0,-0.16247559,0.020690918,-0.0079956055,-109.1145,-82.381676,99.816795,2019-09-07 14:15:00,0.0
1072.0,-0.17114258,0.013549805,-0.013183594,-121.41984599999999,-104.10687,116.15267,2019-09-07 14:15:00,0.0
1073.0,-0.14416504,-0.0010375977,-0.018676758,-123.94656,-116.34351000000001,134.22899999999998,2019-09-07 14:15:00,0.0
1074.0,-0.17181396,0.0095825195,-0.0072021483999999995,-123.47328,-117.96947,147.41222,2019-09-07 14:15:00,0.0
1075.0,-0.1451416,-0.006042480500000001,-0.0053100586,-114.74808999999999,-123.85496499999999,161.37403999999998,2019-09-07 14:15:00,0.0
1076.0,-0.14990234,-0.0072631836,-0.007507324,-72.87023,-124.12977,175.0916,2019-09-07 14:15:00,0.0
1077.0,-0.16210938,0.005981445300000001,-0.0015258789000000001,-44.984734,-111.87023,181.43511999999998,2019-09-07 14:15:00,0.0
1078.0,-0.13952637,0.014343261999999999,-0.0026855469,-32.572517,-95.20611,174.22137,2019-09-07 14:15:00,0.0
1079.0,-0.14099121,0.0068359375,-0.011108398,-30.671754999999997,-82.91603,160.93893,2019-09-07 14:15:00,0.0
1080.0,-0.14819336,0.009155273,-0.008911133,-34.17557,-66.72519,138.90076000000002,2019-09-07 14:15:00,0.0
1081.0,-0.14276123,0.008178711,0.0026245116999999997,-55.908398,-51.755726,114.08397,2019-09-07 14:15:00,0.0
1082.0,-0.137146,0.00036621094,-0.0044555664,-60.49618,-35.671757,86.08397,2019-09-07 14:15:00,0.0
1083.0,-0.14257812,-0.007690429699999999,-0.0067749023,-47.160305,-15.374045,48.14504,2019-09-07 14:15:00,0.0
1084.0,-0.13323975,-0.0053710938,-0.00030517577999999995,-29.022902000000002,-3.2519082999999998,14.732823999999999,2019-09-07 14:15:00,0.0
1085.0,-0.12329101599999999,-0.005737304699999999,0.0041503906,-6.709923700000001,21.809160000000002,-22.679389999999998,2019-09-07 14:15:00,0.0
1086.0,-0.15057373,-0.0037231445,0.009277344,14.0,50.274809999999995,-59.0229,2019-09-07 14:15:00,0.0
1087.0,-0.12072754,0.00048828125,0.020812988,16.778625,48.343509999999995,-82.44275,2019-09-07 14:15:00,0.0
1088.0,-0.14416504,0.013427733999999998,0.009094238000000001,26.984734000000003,83.62595,-107.44275,2019-09-07 14:15:00,0.0
1089.0,-0.15264893,-0.004638672,0.01751709,42.23664,96.63359,-130.22899999999998,2019-09-07 14:15:00,0.0
1090.0,-0.16326904,0.0053100586,0.012207031,36.503820000000005,96.221375,-136.33588,2019-09-07 14:15:00,0.0
1091.0,-0.15911865,0.01751709,0.003967285,42.06107,91.58778000000001,-139.35878,2019-09-07 14:15:00,0.0
1092.0,-0.15014648,-0.003967285,-0.0008544922000000001,59.274809999999995,80.71755999999999,-131.48856,2019-09-07 14:15:00,0.0
1093.0,-0.14978027,0.0037841796999999997,0.0040893555,66.87023,69.43511,-121.80916,2019-09-07 14:15:00,0.0
1094.0,-0.14086914,0.0033569335999999996,0.0018310547,73.68701999999999,65.30534,-108.816795,2019-09-07 14:15:00,0.0
1095.0,-0.15557861,0.0032958984000000004,0.0025024414000000004,81.32825,72.1145,-101.96183,2019-09-07 14:15:00,0.0
1096.0,-0.15344238,0.00048828125,0.007629394499999999,83.12977,66.83969,-98.42748,2019-09-07 14:15:00,0.0
1097.0,-0.15289307,0.012268066000000001,0.007080078,70.175575,67.52672,-102.96183,2019-09-07 14:15:00,0.0
1098.0,-0.15863037,0.010375977,0.014099121000000001,56.603054,67.541985,-108.98473,2019-09-07 14:15:00,0.0
1099.0,-0.15039062,0.02130127,0.014953613000000001,32.641220000000004,60.725190000000005,-112.24428,2019-09-07 14:15:00,0.0
1100.0,-0.15008545,0.00970459,0.022827148,19.389313,66.32825,-109.908394,2019-09-07 14:15:00,0.0
1101.0,-0.14862060000000002,0.023254395,0.023254395,12.450381,66.70992,-106.35878000000001,2019-09-07 14:15:00,0.0
1102.0,-0.15863037,0.005981445300000001,0.017456055,14.725191,82.58778000000001,-98.175575,2019-09-07 14:15:00,0.0
1103.0,-0.16027832,0.014953613000000001,0.014709473,14.503817000000002,74.25954399999999,-84.00764000000001,2019-09-07 14:15:00,0.0
1104.0,-0.16088867,0.009399414,0.011474608999999998,11.2213745,48.541985,-63.541985,2019-09-07 14:15:00,0.0
1105.0,-0.16229248,0.0065307617,0.015563965,8.961832000000001,30.290077,-41.076336,2019-09-07 14:15:01,0.0
1106.0,-0.16192627,0.0095825195,0.018066406,-7.847328,34.14504,-17.557251,2019-09-07 14:15:01,0.0
1107.0,-0.14404297,0.018859863,0.026184082,-26.687022999999996,-6.3129773,11.954199000000001,2019-09-07 14:15:01,0.0
1108.0,-0.14642334,0.007080078,0.016601562,-33.10687,-23.022902,36.08397,2019-09-07 14:15:01,0.0
1109.0,-0.1552124,0.0146484375,0.010864258,-42.08397,-15.175572,57.389313,2019-09-07 14:15:01,0.0
1110.0,-0.16143799,0.0065307617,0.002746582,-52.83969499999999,-55.335876,76.71755999999999,2019-09-07 14:15:01,0.0
1111.0,-0.13970947,0.01739502,-0.007629394499999999,-78.83206,-86.42748,96.70229,2019-09-07 14:15:01,0.0
1112.0,-0.14007568,0.0038452148,-0.01373291,-102.87023,-98.32061,111.862595,2019-09-07 14:15:01,0.0
1113.0,-0.1428833,0.004760742,-0.005981445300000001,-118.900764,-107.14503500000001,118.67938999999998,2019-09-07 14:15:01,0.0
1114.0,-0.15234375,-0.0038452148,-0.006042480500000001,-114.05344,-112.80916,132.29007,2019-09-07 14:15:01,0.0
1115.0,-0.14056396,-0.01361084,0.0014038085999999999,-96.8855,-112.51908,137.80916000000002,2019-09-07 14:15:01,0.0
1116.0,-0.14703369,-0.008300781,-0.0008544922000000001,-61.251906999999996,-107.15267,144.48091000000002,2019-09-07 14:15:01,0.0
1117.0,-0.14025879,0.003967285,-0.0022583008,-25.099237,-93.9313,150.85497,2019-09-07 14:15:01,0.0
1118.0,-0.13568115,0.010192871,0.0020141601999999997,-20.114504,-77.99235999999999,145.68703,2019-09-07 14:15:01,0.0
1119.0,-0.16491699,0.007690429699999999,-0.0072631836,-24.358778,-68.20611,134.8626,2019-09-07 14:15:01,0.0
1120.0,-0.14666748,0.004760742,-0.0099487305,-37.687022999999996,-67.35114,121.96183,2019-09-07 14:15:01,0.0
1121.0,-0.14910889,-0.0045166016,-0.0061035156000000005,-49.091602,-62.030533,107.96183,2019-09-07 14:15:01,0.0
1122.0,-0.14678955,0.011169433999999999,-0.01159668,-45.85496,-51.923664,90.80915999999999,2019-09-07 14:15:01,0.0
1123.0,-0.15747070000000002,0.0009765625,-0.007751465,-33.801525,-35.625954,65.54961999999999,2019-09-07 14:15:01,0.0
1124.0,-0.16027832,0.0034179688000000002,-0.0018920898,-19.992367,-26.824427000000004,38.862595,2019-09-07 14:15:01,0.0
1125.0,-0.13598633,0.013061523,0.005554199,-5.259542,-3.1526718,5.0992365,2019-09-07 14:15:01,0.0
1126.0,-0.15362549,0.0048828125,0.01550293,8.007633,30.213741,-32.15267,2019-09-07 14:15:01,0.0
1127.0,-0.15863037,0.006713866999999999,0.020812988,17.702289999999998,48.10687,-64.98473,2019-09-07 14:15:01,0.0
1128.0,-0.14733887,0.0032348633000000003,0.022949219,15.992367000000002,70.03817,-93.99235999999999,2019-09-07 14:15:01,0.0
1129.0,-0.12915039,0.0065307617,0.016296387,13.893129,75.67939,-108.45038000000001,2019-09-07 14:15:01,0.0
1130.0,-0.14056396,0.012329102,0.0079956055,20.12977,85.35878000000001,-117.87023,2019-09-07 14:15:01,0.0
1131.0,-0.14776611,0.005126953,0.003112793,18.442749,94.20611,-119.41984599999999,2019-09-07 14:15:01,0.0
1132.0,-0.15814209,0.0037841796999999997,0.002746582,10.587786999999999,79.74809,-114.16793999999999,2019-09-07 14:15:01,0.0
1133.0,-0.15008545,0.01171875,0.007446289,8.541985,73.35114,-109.71756,2019-09-07 14:15:01,0.0
1134.0,-0.15148926,0.009887695,0.0072631836,23.450382,69.42748,-102.66412,2019-09-07 14:15:01,0.0
1135.0,-0.15264893,0.009887695,0.0051879883,34.816795,62.480915,-94.1145,2019-09-07 14:15:01,0.0
1136.0,-0.13934326,0.01361084,0.0075683593999999995,50.190838,57.335876,-83.64886,2019-09-07 14:15:01,0.0
1137.0,-0.14428711,0.005554199,0.010070800999999999,51.664124,62.114502,-77.29771,2019-09-07 14:15:01,0.0
1138.0,-0.14990234,0.014282227,0.013671875,35.267174,67.0458,-69.65649,2019-09-07 14:15:02,0.0
1139.0,-0.16400146,0.007873535,0.020996094,19.167938,65.00764000000001,-61.85496,2019-09-07 14:15:02,0.0
1140.0,-0.14398193,-0.006042480500000001,0.024475097999999997,9.282442999999999,65.80915999999999,-56.49618,2019-09-07 14:15:02,0.0
1141.0,-0.15161133,0.008239746,0.022644043,6.4885497,60.587788,-49.572517,2019-09-07 14:15:02,0.0
1142.0,-0.13861084,0.010437011999999999,0.014892578,5.633588,61.954197,-45.320609999999995,2019-09-07 14:15:02,0.0
1143.0,-0.14770508,-0.008728027,0.01977539,3.534351,64.78626,-44.969467,2019-09-07 14:15:02,0.0
1144.0,-0.15991211,0.010192871,0.018432617,-4.0610685,47.412212,-38.748093,2019-09-07 14:15:02,0.0
1145.0,-0.16845703,0.015686035,0.015319824,-11.435115,38.709922999999996,-33.770992,2019-09-07 14:15:02,0.0
1146.0,-0.15887451,0.0064697266000000005,0.024291992000000002,-21.809160000000002,21.167938,-23.519083,2019-09-07 14:15:02,0.0
1147.0,-0.17370605,0.0064086914,0.032165527,-27.206106,20.328245000000003,-14.320610999999998,2019-09-07 14:15:02,0.0
1148.0,-0.13952637,0.005981445300000001,0.034118652,-34.709922999999996,-24.824427,2.5496182000000003,2019-09-07 14:15:02,0.0
1149.0,-0.13848877,0.0037231445,0.02166748,-34.282444,-32.55725,15.732823999999999,2019-09-07 14:15:02,0.0
1150.0,-0.14904785,0.011230469,0.009399414,-48.305344,-32.633587,25.267176,2019-09-07 14:15:02,0.0
1151.0,-0.14709473,0.0061035156000000005,0.003967285,-68.91603,-62.664124,40.923664,2019-09-07 14:15:02,0.0
1152.0,-0.14685059,-0.0068969727,-0.0024414061999999998,-90.9771,-89.69466,57.15266999999999,2019-09-07 14:15:02,0.0
1153.0,-0.14593506,-0.00970459,-0.008666992,-86.32825,-101.41221999999999,66.26717,2019-09-07 14:15:02,0.0
1154.0,-0.14587402,0.0061035156000000005,-0.0064086914,-70.175575,-113.32061000000002,77.68701999999999,2019-09-07 14:15:02,0.0
1155.0,-0.14971924,0.003967285,-0.005004883,-48.9771,-111.221375,88.900764,2019-09-07 14:15:02,0.0
1156.0,-0.14837646,-0.0064697266000000005,0.0012207030999999999,-16.847328,-112.89313,102.0229,2019-09-07 14:15:02,0.0
1157.0,-0.14654541,-0.008728027,0.0032348633000000003,9.274809,-108.92367,112.1145,2019-09-07 14:15:02,0.0
1158.0,-0.15710449,0.015014648,-0.0010986328,25.977098,-92.36641,117.01527,2019-09-07 14:15:02,0.0
1159.0,-0.15258789,0.0087890625,-0.0010375977,15.557251999999998,-77.71755999999999,113.92367,2019-09-07 14:15:02,0.0
1160.0,-0.13494873,0.02960205,-0.0044555664,-4.236641400000001,-66.9771,106.32825,2019-09-07 14:15:02,0.0
1161.0,-0.15570068,0.0021362305,0.006225586,-32.709922999999996,-48.007633,93.12214,2019-09-07 14:15:02,0.0
1162.0,-0.15100098,-0.0022583008,0.0045166016,-40.297709999999995,-40.908398,79.28244000000001,2019-09-07 14:15:02,0.0
1163.0,-0.15460205,-0.0020141601999999997,-0.007629394499999999,-24.786259,-50.770992,61.435116,2019-09-07 14:15:02,0.0
1164.0,-0.13366699,0.010803223,-0.0234375,24.366413,-36.519085,40.381679999999996,2019-09-07 14:15:02,0.0
1165.0,-0.15527344,-0.00036621094,-0.0010986328,54.77099200000001,-16.809160000000002,14.755725,2019-09-07 14:15:02,0.0
1166.0,-0.15100098,0.01361084,0.008117675999999999,58.366413,-7.7251906,-9.755725,2019-09-07 14:15:02,0.0
1167.0,-0.15649414,0.004333496,0.010437011999999999,55.343509999999995,19.435114000000002,-38.809162,2019-09-07 14:15:02,0.0
1168.0,-0.13531494,0.013122558999999999,0.036865234,14.824428,62.76336,-83.64121999999999,2019-09-07 14:15:02,0.0
1169.0,-0.11676025400000001,0.008300781,0.039123535,-2.9847328999999996,83.19847,-100.76335999999999,2019-09-07 14:15:02,0.0
1170.0,-0.13012695,0.0010986328,0.01550293,-7.4198475,95.57252,-107.83206000000001,2019-09-07 14:15:02,0.0
1171.0,-0.12860107,0.0078125,0.0095825195,-3.1145039,97.16031,-111.37405,2019-09-07 14:15:02,0.0
1172.0,-0.15386963,0.003540039,-0.00042724610000000003,7.89313,74.824425,-108.19847,2019-09-07 14:15:02,0.0
1173.0,-0.15496826,-0.00036621094,0.0017089844000000001,33.908398,65.80915999999999,-98.91603,2019-09-07 14:15:02,0.0
1174.0,-0.15539551,0.0,0.0071411133,62.679390000000005,50.679390000000005,-89.0687,2019-09-07 14:15:02,0.0
1175.0,-0.1593628,0.005432129,0.016418457,89.87023,40.320609999999995,-79.20611,2019-09-07 14:15:03,0.0
1176.0,-0.13641357,0.010314941,0.015258788999999998,104.78626,40.83206,-74.29771,2019-09-07 14:15:03,0.0
1177.0,-0.16015625,0.002746582,0.0115356445,93.64121999999999,38.778625,-73.10687,2019-09-07 14:15:03,0.0
1178.0,-0.16143799,0.009643555,0.0087890625,74.96947,44.190838,-75.61069,2019-09-07 14:15:03,0.0
1179.0,-0.16235352,0.009094238000000001,0.018371582,48.900764,45.587788,-76.36641,2019-09-07 14:15:03,0.0
1180.0,-0.14361572,0.005432129,0.011779785,32.038166,45.480915,-80.38931,2019-09-07 14:15:03,0.0
1181.0,-0.16906738,0.013549805,0.014892578,27.366413,44.549618,-75.87786,2019-09-07 14:15:03,0.0
1182.0,-0.17156982,0.016052246000000003,0.013671875,26.190839999999998,48.496179999999995,-74.83206,2019-09-07 14:15:03,0.0
1183.0,-0.16967773,0.01159668,0.009094238000000001,22.213741,62.9771,-69.39695,2019-09-07 14:15:03,0.0
1184.0,-0.16619873,0.01361084,0.012878418,11.167939,56.67175699999999,-63.045803,2019-09-07 14:15:03,0.0
1185.0,-0.15710449,0.016113281,0.015930176,1.5114504,48.74046,-50.992367,2019-09-07 14:15:03,0.0
1186.0,-0.13012695,0.01928711,0.020446777,-12.267176,30.351145000000002,-32.656490000000005,2019-09-07 14:15:03,0.0
1187.0,-0.14935303,0.003540039,0.018981934,-18.61832,29.80916,-12.0,2019-09-07 14:15:03,0.0
1188.0,-0.14636229999999997,0.008300781,0.028320312,-29.114503999999997,17.244274,5.366412,2019-09-07 14:15:03,0.0
1189.0,-0.12414551,0.015563965,0.020629883,-35.25954,-8.175572,28.465649,2019-09-07 14:15:03,0.0
1190.0,-0.13964844,0.022766112999999998,0.013122558999999999,-46.702290000000005,-0.03816794,40.618320000000004,2019-09-07 14:15:03,0.0
1191.0,-0.15466309,0.01361084,0.006958008000000001,-69.79389,-38.328243,52.71755600000001,2019-09-07 14:15:03,0.0
1192.0,-0.14923096,0.022460938,0.0053710938,-94.19847,-77.0687,69.33588,2019-09-07 14:15:03,0.0
1193.0,-0.14904785,0.011962891000000002,-0.003540039,-106.83968999999999,-94.80915999999999,81.92367,2019-09-07 14:15:03,0.0
1194.0,-0.15740967,0.008361816,-0.007507324,-115.381676,-105.73283,92.44275,2019-09-07 14:15:03,0.0
1195.0,-0.14459229,0.003967285,-0.010253906,-105.27481,-112.71756,105.39695,2019-09-07 14:15:03,0.0
1196.0,-0.15148926,-0.0034179688000000002,-0.004699707,-80.862595,-115.59541999999999,119.36641000000002,2019-09-07 14:15:03,0.0
1197.0,-0.13952637,0.0008544922000000001,-0.0020141601999999997,-53.053436,-109.221375,132.60306,2019-09-07 14:15:03,0.0
1198.0,-0.15631104,0.0154418945,-0.0014648438,-17.290077,-97.46565,139.19083999999998,2019-09-07 14:15:03,0.0
1199.0,-0.13739014,0.017700195,0.00030517577999999995,-2.8244274,-83.0687,133.23665,2019-09-07 14:15:03,0.0
1200.0,-0.15051270000000003,0.009094238000000001,-0.0008544922000000001,-13.297709,-67.145035,123.19847,2019-09-07 14:15:03,0.0
1201.0,-0.15545654,-6.1035155999999994e-05,-0.004638672,-33.23664,-54.0,104.41221999999999,2019-09-07 14:15:03,0.0
1202.0,-0.15344238,0.0016479492000000002,-0.004760742,-57.244274,-50.687022999999996,88.8855,2019-09-07 14:15:03,0.0
1203.0,-0.14776611,0.0017700195,-0.010498047,-60.37404599999999,-36.679390000000005,67.89313,2019-09-07 14:15:03,0.0
1204.0,-0.15612793,-0.00042724610000000003,-0.023803711,-36.06107,-31.832062,43.541985,2019-09-07 14:15:03,0.0
1205.0,-0.15771484,-0.00024414062000000002,-0.012207031,8.671756,-25.122137,22.42748,2019-09-07 14:15:03,0.0
1206.0,-0.15588379,0.00030517577999999995,0.007385254,33.526720000000005,-8.755725,-1.5496184,2019-09-07 14:15:03,0.0
1207.0,-0.13360596,0.006042480500000001,0.009521484,49.89313,6.603053599999999,-25.137404999999998,2019-09-07 14:15:03,0.0
1208.0,-0.15063477,0.009460449000000001,0.008422852,52.12214,28.274809,-50.725190000000005,2019-09-07 14:15:04,0.0
1209.0,-0.14105225,0.0052490233999999995,0.016540527,26.725191,40.633587,-69.83206,2019-09-07 14:15:04,0.0
1210.0,-0.13555908,0.016723633,0.026184082,8.068703,57.702290000000005,-87.458015,2019-09-07 14:15:04,0.0
1211.0,-0.1352539,0.006652831999999999,0.018249512,-1.2824427,68.62595,-92.824425,2019-09-07 14:15:04,0.0
1212.0,-0.1317749,0.0072021483999999995,0.01373291,1.9541985,77.221375,-98.53435,2019-09-07 14:15:04,0.0
1213.0,-0.1459961,0.0061035156000000005,0.005554199,17.053434,79.0458,-98.618324,2019-09-07 14:15:04,0.0
1214.0,-0.15435791,0.015014648,0.0048217773,40.351147,71.43511,-96.58778000000001,2019-09-07 14:15:04,0.0
1215.0,-0.1593628,0.002319336,0.008239746,52.541985,64.816795,-95.66412,2019-09-07 14:15:04,0.0
1216.0,-0.16082764,0.0044555664,0.0126953125,64.503815,61.297709999999995,-97.33588,2019-09-07 14:15:04,0.0
1217.0,-0.12683105,0.016418457,0.015991211,72.854965,61.71755600000001,-100.41221999999999,2019-09-07 14:15:04,0.0
1218.0,-0.1651001,0.006652831999999999,0.02130127,66.19847,61.938930000000006,-105.21373999999999,2019-09-07 14:15:04,0.0
1219.0,-0.16088867,0.006164551,0.018249512,55.610687,69.94655999999999,-111.061066,2019-09-07 14:15:04,0.0
1220.0,-0.16021729,0.026367188,0.016906738,37.702290000000005,72.28244000000001,-112.83206000000001,2019-09-07 14:15:04,0.0
1221.0,-0.15429688,0.008605957,0.02758789,27.503816999999998,68.38931,-109.03817,2019-09-07 14:15:04,0.0
1222.0,-0.14611816,0.010192871,0.01953125,18.030535,61.38168,-98.30534,2019-09-07 14:15:04,0.0
1223.0,-0.15942383,0.022338867000000002,0.015563965,21.954199,63.53435,-83.0687,2019-09-07 14:15:04,0.0
1224.0,-0.13873291,0.007751465,0.012512207,18.320610000000002,67.75572,-69.10687,2019-09-07 14:15:04,0.0
1225.0,-0.14770508,0.007385254,0.011962891000000002,11.923664,44.732826,-45.954197,2019-09-07 14:15:04,0.0
1226.0,-0.1529541,0.007385254,0.016662598,16.549618,26.23664,-19.167938,2019-09-07 14:15:04,0.0
1227.0,-0.14611816,0.0063476562,0.017333984,14.137404,7.0839696,6.0305343,2019-09-07 14:15:04,0.0
1228.0,-0.14544678,0.005676269499999999,0.019226074,7.6412214999999994,8.122137,30.213741,2019-09-07 14:15:04,0.0
1229.0,-0.14660645,0.023803711,0.02709961,1.8320610000000002,-11.076336,45.450382,2019-09-07 14:15:04,0.0
1230.0,-0.14294434,0.013977051,0.023071289,-8.770992,-34.412212,60.85496,2019-09-07 14:15:04,0.0
1231.0,-0.1484375,0.008666992,0.009887695,-22.312977,-23.519083,66.28244000000001,2019-09-07 14:15:04,0.0
1232.0,-0.14147949,0.026977539,0.0087890625,-58.725190000000005,-41.068703,74.72519,2019-09-07 14:15:04,0.0
1233.0,-0.14868164,0.025695799999999998,-0.0028076171999999997,-94.21374,-68.770996,82.38931,2019-09-07 14:15:04,0.0
1234.0,-0.15020752,0.011108398,-0.003112793,-112.24428,-79.40458000000001,91.29771,2019-09-07 14:15:04,0.0
1235.0,-0.14520264,0.005065918,-0.005737304699999999,-108.381676,-91.8855,99.1145,2019-09-07 14:15:04,0.0
1236.0,-0.15252686,0.013122558999999999,-0.0045776367,-99.30534,-95.25954399999999,112.36641000000002,2019-09-07 14:15:04,0.0
1237.0,-0.15716553,0.00012207031000000001,-0.0029907227,-81.89313,-93.07633,123.099236,2019-09-07 14:15:04,0.0
1238.0,-0.15527344,0.00012207031000000001,-0.0013427734,-51.473279999999995,-90.55725,135.17557,2019-09-07 14:15:04,0.0
1239.0,-0.13275146,-0.0065307617,0.0016479492000000002,-32.290077000000004,-84.458015,139.26718,2019-09-07 14:15:04,0.0
1240.0,-0.15405273,0.0067749023,-6.1035155999999994e-05,-20.89313,-75.57252,136.77100000000002,2019-09-07 14:15:04,0.0
1241.0,-0.1449585,0.0036010741999999997,-0.0064697266000000005,-25.259542,-69.21374,129.1145,2019-09-07 14:15:04,0.0
1242.0,-0.1359253,0.007385254,-0.00030517577999999995,-39.641220000000004,-57.954197,113.91603,2019-09-07 14:15:04,0.0
1243.0,-0.14904785,0.006164551,-0.004028320300000001,-57.083969999999994,-47.91603,98.48092,2019-09-07 14:15:04,0.0
1244.0,-0.15167236,-0.0025024414000000004,-0.007873535,-51.17557,-39.53435,75.84733,2019-09-07 14:15:04,0.0
1245.0,-0.15783691,-6.1035155999999994e-05,-0.014831543,-27.587785999999998,-18.687023,49.091602,2019-09-07 14:15:04,0.0
1246.0,-0.15588379,0.0006103515599999999,0.00048828125,7.603053599999999,-3.2366412,15.603053,2019-09-07 14:15:05,0.0
1247.0,-0.15649414,0.005432129,0.0064086914,28.786259,10.503817,-20.068703,2019-09-07 14:15:05,0.0
1248.0,-0.15582275,-0.0005493164,0.010803223,36.961834,33.290077000000004,-53.908398,2019-09-07 14:15:05,0.0
1249.0,-0.14440918,-0.0016479492000000002,0.0134887695,31.923664000000002,46.030533,-83.03053,2019-09-07 14:15:05,0.0
1250.0,-0.14746094,-0.0025024414000000004,0.022644043,18.854961,65.56489,-104.175575,2019-09-07 14:15:05,0.0
1251.0,-0.14727783,-0.0013427734,0.019226074,11.946565,75.71755999999999,-117.45038000000001,2019-09-07 14:15:05,0.0
1252.0,-0.14178467,0.0037231445,0.012878418,17.580153,87.39695,-122.89313,2019-09-07 14:15:05,0.0
1253.0,-0.16339111,0.00579834,0.0053710938,30.312977000000004,87.0229,-123.44275,2019-09-07 14:15:05,0.0
1254.0,-0.159729,0.00390625,-0.0008544922000000001,43.015266,74.69466,-118.48855,2019-09-07 14:15:05,0.0
1255.0,-0.13543701,-0.019165039,0.0031738281,61.69465600000001,61.21374,-106.70992,2019-09-07 14:15:05,0.0
1256.0,-0.16247559,0.00579834,0.00793457,85.51145,48.320609999999995,-96.19084000000001,2019-09-07 14:15:05,0.0
1257.0,-0.16253662,0.005859375,0.0033569335999999996,102.938934,40.503820000000005,-83.56489,2019-09-07 14:15:05,0.0
1258.0,-0.16418457,0.008178711,0.009399414,110.67938999999998,42.587788,-79.75572,2019-09-07 14:15:05,0.0
1259.0,-0.15820312,0.010131836,0.012390136999999999,97.1145,39.946564,-78.87023,2019-09-07 14:15:05,0.0
1260.0,-0.15148926,0.0126953125,0.0115356445,78.56489,43.900764,-84.87786,2019-09-07 14:15:05,0.0
1261.0,-0.13909912,0.015625,0.017944336,53.44275,47.679390000000005,-88.08397,2019-09-07 14:15:05,0.0
1262.0,-0.14984131,0.020996094,0.016052246000000003,32.343509999999995,45.923664,-89.900764,2019-09-07 14:15:05,0.0
1263.0,-0.13696289,0.014831543,0.018859863,18.206106,43.068703,-86.900764,2019-09-07 14:15:05,0.0
1264.0,-0.12457275400000001,0.0017700195,0.010131836,15.458015,49.282444,-82.40458000000001,2019-09-07 14:15:05,0.0
1265.0,-0.14990234,0.010498047,0.018432617,17.595419,62.687022999999996,-78.31298000000001,2019-09-07 14:15:05,0.0
1266.0,-0.15228271,0.014160156,0.006652831999999999,16.862595000000002,39.244274,-63.40458,2019-09-07 14:15:05,0.0
1267.0,-0.16082764,0.01940918,0.01763916,23.122137,38.458015,-47.297709999999995,2019-09-07 14:15:05,0.0
1268.0,-0.13787842,0.024719237999999998,0.012634277,11.854961,27.206106,-23.022902,2019-09-07 14:15:05,0.0
1269.0,-0.14874268,0.0068359375,0.018432617,-5.6488547,16.152672,0.9541985000000001,2019-09-07 14:15:05,0.0
1270.0,-0.11999512,0.015014648,0.015991211,-21.42748,-11.160305000000001,27.80916,2019-09-07 14:15:05,0.0
1271.0,-0.14746094,0.008972168,0.010314941,-35.076336,10.648855000000001,42.91603,2019-09-07 14:15:05,0.0
1272.0,-0.15344238,0.013793945,0.009155273,-54.85496,-12.488549,60.18320500000001,2019-09-07 14:15:05,0.0
1273.0,-0.14636229999999997,0.00592041,-0.0017700195,-76.96947,-47.954197,73.00764000000001,2019-09-07 14:15:05,0.0
1274.0,-0.13262939999999998,0.026550293,-0.008300781,-102.23664000000001,-63.335876,80.16794,2019-09-07 14:15:05,0.0
1275.0,-0.1529541,0.012390136999999999,-0.0030517578000000003,-120.36641000000002,-81.92367,93.32061,2019-09-07 14:15:06,0.0
1276.0,-0.16070557,0.0071411133,0.002319336,-132.50381000000002,-88.74045600000001,119.91603,2019-09-07 14:15:06,0.0
1277.0,-0.15106201,-0.0010986328,-0.002746582,-102.79389,-92.66412,131.99237,2019-09-07 14:15:06,0.0
1278.0,-0.15454102,0.013122558999999999,-0.0015258789000000001,-45.450382,-74.47328,128.03053,2019-09-07 14:15:06,0.0
1279.0,-0.15460205,0.0005493164,-0.011474608999999998,-47.351147,-76.29771,113.53435,2019-09-07 14:15:06,0.0
1280.0,-0.15258789,-0.0036010741999999997,-0.018920898000000002,-18.816793,-74.20611,91.778625,2019-09-07 14:15:06,0.0
1281.0,-0.1328125,-0.0071411133,-0.022949219,18.908398000000002,-49.305344,59.25954,2019-09-07 14:15:06,0.0
1282.0,-0.16168213,0.0064086914,-0.010314941,54.12214,-28.48855,22.160304999999997,2019-09-07 14:15:06,0.0
1283.0,-0.14660645,0.026000977,-0.001953125,61.23664,-14.610686999999999,-12.572519,2019-09-07 14:15:06,0.0
1284.0,-0.16387939999999998,0.0053710938,-0.001953125,53.916030000000006,13.511451000000001,-50.885498,2019-09-07 14:15:06,0.0
1285.0,-0.13897705,0.014709473,0.009643555,32.862595,37.984734,-81.76335999999999,2019-09-07 14:15:06,0.0
1286.0,-0.14556885,0.007507324,0.021118164,-13.335876999999998,64.01527,-103.26717,2019-09-07 14:15:06,0.0
1287.0,-0.15167236,0.017822266,0.02178955,-49.366413,81.48092,-111.84733,2019-09-07 14:15:06,0.0
1288.0,-0.14050293,0.032470703,0.01550293,-67.62595,96.89313,-110.29008,2019-09-07 14:15:06,0.0
1289.0,-0.14593506,0.023376465,0.006225586,-61.25954,99.908394,-103.74045600000001,2019-09-07 14:15:06,0.0
1290.0,-0.15527344,0.01550293,-0.0010375977,-27.862595000000002,81.33588,-89.183205,2019-09-07 14:15:06,0.0
1291.0,-0.14550781,0.0068969727,-0.0063476562,17.91603,57.687022999999996,-75.60305,2019-09-07 14:15:06,0.0
1292.0,-0.14178467,-0.015380858999999998,-0.007446289,68.229004,47.305344,-64.770996,2019-09-07 14:15:06,0.0
1293.0,-0.14208984,0.00042724610000000003,-0.0006713867,104.59541999999999,33.160305,-54.541985,2019-09-07 14:15:06,0.0
1294.0,-0.14581299,0.00793457,0.011657715,129.22137,29.862595000000002,-52.633587,2019-09-07 14:15:06,0.0
1295.0,-0.13153076,0.016967773000000002,0.011413574,125.57252,27.007633000000002,-56.106869999999994,2019-09-07 14:15:06,0.0
1296.0,-0.15258789,0.011108398,0.013793945,102.30534,33.564884,-64.29771,2019-09-07 14:15:06,0.0
1297.0,-0.14624023,0.023376465,0.018737793,68.64121999999999,36.946564,-74.80915999999999,2019-09-07 14:15:06,0.0
1298.0,-0.15466309,-0.0015869141,0.019470215,36.381679999999996,41.412212,-84.64121999999999,2019-09-07 14:15:06,0.0
1299.0,-0.13806152,0.03125,0.024353027000000003,14.625955,51.190838,-91.80153,2019-09-07 14:15:06,0.0
1300.0,-0.14721679999999998,0.0045776367,0.019226074,4.4503818,63.099236,-93.59541999999999,2019-09-07 14:15:06,0.0
1301.0,-0.15185547,0.0067749023,0.013366699,5.396946400000001,76.29771,-94.84733,2019-09-07 14:15:06,0.0
1302.0,-0.16583252,0.022277832,0.011169433999999999,9.015267,57.648853,-82.33588,2019-09-07 14:15:06,0.0
1303.0,-0.16052246,0.008666992,0.010131836,19.87023,54.62595400000001,-66.72519,2019-09-07 14:15:06,0.0
1304.0,-0.14959717,0.018615723,0.014770508,15.603053,27.534351,-43.480915,2019-09-07 14:15:06,0.0
1305.0,-0.15386963,0.014404297,0.019714355,-1.2442749,33.320609999999995,-20.229008,2019-09-07 14:15:06,0.0
1306.0,-0.14868164,0.008117675999999999,0.024597168,-20.160304999999997,-6.908396700000001,8.992367,2019-09-07 14:15:06,0.0
1307.0,-0.13201904,0.008666992,0.010559082,-29.465649,-11.068703,33.85496,2019-09-07 14:15:06,0.0
1308.0,-0.14355469,0.023803711,0.007629394499999999,-42.85496,-1.648855,49.08397,2019-09-07 14:15:06,0.0
1309.0,-0.1539917,0.00024414062000000002,0.00036621094,-66.76335999999999,-48.648853,68.41984599999999,2019-09-07 14:15:06,0.0
1310.0,-0.12042236,0.034606934,-0.003540039,-81.40458000000001,-72.25191,83.89313,2019-09-07 14:15:06,0.0
1311.0,-0.15502929999999998,0.005432129,-0.0040893555,-93.9542,-85.99235999999999,93.8855,2019-09-07 14:15:06,0.0
1312.0,-0.15020752,0.0071411133,-0.008911133,-104.618324,-94.48092,105.65648999999999,2019-09-07 14:15:06,0.0
1313.0,-0.15698242,0.0030517578000000003,-0.0018310547,-102.9313,-92.26717,115.48092,2019-09-07 14:15:06,0.0
1314.0,-0.15411377,-0.0025024414000000004,-0.001159668,-86.9542,-96.541985,125.44275,2019-09-07 14:15:07,0.0
1315.0,-0.14666748,0.008056641,0.008666992,-52.099236,-88.229004,134.54199,2019-09-07 14:15:07,0.0
1316.0,-0.16149902,0.008972168,0.0043945312,-37.099236,-72.74045600000001,135.58778,2019-09-07 14:15:07,0.0
1317.0,-0.14672852,0.022277832,0.0032348633000000003,-32.564884,-63.519085,127.49618500000001,2019-09-07 14:15:07,0.0
1318.0,-0.15722656,0.008605957,0.0007324219,-57.25954,-49.931297,109.94656,2019-09-07 14:15:07,0.0
1319.0,-0.15716553,0.00091552734,-0.017456055,-83.46565,-58.49618,88.61069,2019-09-07 14:15:07,0.0
1320.0,-0.14154053,0.0012207030999999999,-0.023803711,-68.68701999999999,-63.274809999999995,71.62595,2019-09-07 14:15:07,0.0
1321.0,-0.14355469,0.003967285,-0.02166748,-7.114503999999999,-30.91603,41.427483,2019-09-07 14:15:07,0.0
1322.0,-0.16027832,0.00018310547,-0.018920898000000002,48.099236,-18.42748,14.664123000000002,2019-09-07 14:15:07,0.0
1323.0,-0.15344238,0.013977051,-0.010803223,89.32825,-14.061069,-10.335877,2019-09-07 14:15:07,0.0
1324.0,-0.15789795,0.007751465,-0.006958008000000001,86.1145,9.244275,-39.412212,2019-09-07 14:15:07,0.0
1325.0,-0.14270020000000003,0.005126953,0.0008544922000000001,63.62595400000001,30.442749,-65.00764000000001,2019-09-07 14:15:07,0.0
1326.0,-0.1449585,0.004699707,0.010070800999999999,21.57252,58.099236,-93.70992,2019-09-07 14:15:07,0.0
1327.0,-0.14593506,0.023803711,0.030639648,-27.770992,71.58015400000001,-111.73283,2019-09-07 14:15:07,0.0
1328.0,-0.15734863,0.011779785,0.02355957,-64.87786,91.41984599999999,-117.87023,2019-09-07 14:15:07,0.0
1329.0,-0.14935303,-0.008056641,0.01184082,-66.9313,99.47328,-110.58015400000001,2019-09-07 14:15:07,0.0
1330.0,-0.13983154,-0.018066406,0.001953125,-45.55725,96.70992,-102.221375,2019-09-07 14:15:07,0.0
1331.0,-0.13299560000000002,-0.006225586,-0.005126953,-5.091603299999999,77.83206,-89.29008,2019-09-07 14:15:07,0.0
1332.0,-0.15222168,-0.005493164,-0.0016479492000000002,45.702290000000005,67.32825,-80.24428,2019-09-07 14:15:07,0.0
1333.0,-0.14556885,-0.00982666,0.0031738281,86.938934,51.839695,-72.54961999999999,2019-09-07 14:15:07,0.0
1334.0,-0.14636229999999997,-0.007080078,0.011291503999999999,117.71756,40.038166,-69.41984599999999,2019-09-07 14:15:07,0.0
1335.0,-0.12200928,0.011291503999999999,0.012756348,120.24428,34.83206,-68.19847,2019-09-07 14:15:07,0.0
1336.0,-0.13488770000000003,0.012573242,0.019836426,107.65648999999999,35.038166,-72.00764000000001,2019-09-07 14:15:07,0.0
1337.0,-0.14099121,0.0146484375,0.025268555,80.63359,43.954197,-77.46565,2019-09-07 14:15:07,0.0
1338.0,-0.15057373,0.012268066000000001,0.022155762000000002,42.801525,45.702290000000005,-80.83969,2019-09-07 14:15:07,0.0
1339.0,-0.14068604,0.00042724610000000003,0.030395507999999998,7.8320612999999994,44.190838,-75.0,2019-09-07 14:15:07,0.0
1340.0,-0.11877441400000001,0.01159668,0.018310547,-8.030535,46.549618,-65.69466,2019-09-07 14:15:07,0.0
1341.0,-0.14361572,0.010803223,0.013427733999999998,-12.961832000000001,51.045803,-53.274809999999995,2019-09-07 14:15:07,0.0
1342.0,-0.14721679999999998,0.008117675999999999,0.0126953125,-12.557252,63.297709999999995,-41.183205,2019-09-07 14:15:07,0.0
1343.0,-0.15496826,-0.002380371,0.0068359375,-14.305344,40.625954,-20.06107,2019-09-07 14:15:07,0.0
1344.0,-0.1529541,-0.00592041,0.008972168,-11.496183,25.099237,-0.27480915,2019-09-07 14:15:07,0.0
1345.0,-0.15411377,0.0126953125,0.009460449000000001,-16.282442,14.580152499999999,20.671754999999997,2019-09-07 14:15:07,0.0
1346.0,-0.13824463,-0.0033569335999999996,0.020202637,-25.229008,-0.41221374,39.389313,2019-09-07 14:15:07,0.0
1347.0,-0.12988281,0.0064086914,0.02960205,-39.435116,-48.656490000000005,62.412212,2019-09-07 14:15:07,0.0
1348.0,-0.12609863,-0.01159668,0.015991211,-39.374046,-29.862595000000002,73.1145,2019-09-07 14:15:07,0.0
1349.0,-0.15411377,0.01373291,0.009155273,-54.083969999999994,-38.480915,79.16031,2019-09-07 14:15:07,0.0
1350.0,-0.14801025,0.00793457,0.0029296875,-91.10687,-75.8855,89.1145,2019-09-07 14:15:08,0.0
1351.0,-0.16033936,0.0024414061999999998,-0.011047363000000001,-107.31298000000001,-90.03817,93.770996,2019-09-07 14:15:08,0.0
1352.0,-0.15698242,0.0007324219,-0.0095825195,-111.99236,-99.26717,97.908394,2019-09-07 14:15:08,0.0
1353.0,-0.15466309,0.005859375,-0.010681152,-96.67175,-109.900764,104.51145,2019-09-07 14:15:08,0.0
1354.0,-0.1517334,-0.0026245116999999997,-0.008117675999999999,-86.61069,-106.63358999999998,111.03817,2019-09-07 14:15:08,0.0
1355.0,-0.15100098,0.011230469,-0.012329102,-64.29771,-102.03817,118.34351000000001,2019-09-07 14:15:08,0.0
1356.0,-0.16271973,0.0061035156000000005,-0.008666992,-56.587788,-97.58778000000001,124.59541999999999,2019-09-07 14:15:08,0.0
1357.0,-0.15582275,0.007385254,-0.005737304699999999,-63.82443000000001,-89.618324,122.091606,2019-09-07 14:15:08,0.0
1358.0,-0.15618896,0.0036010741999999997,-0.018981934,-66.59541999999999,-85.0229,115.175575,2019-09-07 14:15:08,0.0
1359.0,-0.12512207,0.011779785,-0.019042969,-61.862595,-75.58778000000001,104.39695,2019-09-07 14:15:08,0.0
1360.0,-0.12017822,-0.015319824,-0.015319824,-46.595420000000004,-65.89313,94.816795,2019-09-07 14:15:08,0.0
1361.0,-0.11663818,-0.009277344,-0.007446289,-22.93893,-48.473279999999995,79.48855,2019-09-07 14:15:08,0.0
1362.0,-0.107543945,0.006713866999999999,-0.0024414061999999998,-1.5648855,-16.732824,57.55725,2019-09-07 14:15:08,0.0
1363.0,-0.12475586,0.0063476562,0.001953125,2.6717557999999997,1.091603,31.114503999999997,2019-09-07 14:15:08,0.0
1364.0,-0.13165283,0.0071411133,0.006042480500000001,-1.519084,21.816793,2.9770992,2019-09-07 14:15:08,0.0
1365.0,-0.1538086,-0.0018920898,-0.004272461,4.053435299999999,58.992367,-39.396946,2019-09-07 14:15:08,0.0
1366.0,-0.15228271,0.0053710938,0.005004883,5.5725193,68.31298000000001,-74.65649,2019-09-07 14:15:08,0.0
1367.0,-0.14135742,0.006042480500000001,0.03552246,-2.6259542000000002,88.79389,-106.46565,2019-09-07 14:15:08,0.0
1368.0,-0.15460205,-0.010681152,0.015197753999999999,52.412212,58.64122,-91.70229,2019-09-07 14:15:08,0.0
1369.0,-0.13568115,-0.0025024414000000004,0.023986816,61.450382,45.351147,-78.54961999999999,2019-09-07 14:15:08,0.0
1370.0,-0.1484375,-0.0040893555,0.03778076,61.22900799999999,34.74046,-70.25954399999999,2019-09-07 14:15:08,0.0
1371.0,-0.14129639,-0.0018920898,0.037902832000000004,55.53435,33.305344,-62.572517000000005,2019-09-07 14:15:08,0.0
1372.0,-0.14556885,0.0041503906,0.036499023,39.396946,37.687022999999996,-60.38168,2019-09-07 14:15:08,0.0
1373.0,-0.14959717,0.0053710938,0.030334472999999997,29.29771,45.793890000000005,-67.35114,2019-09-07 14:15:08,0.0
1374.0,-0.14965820000000002,0.009399414,0.033996582000000004,13.206107000000001,41.038166,-72.137405,2019-09-07 14:15:08,0.0
1375.0,-0.13598633,0.006958008000000001,0.038635254,-5.4961834000000005,39.85496,-78.59541999999999,2019-09-07 14:15:08,0.0
1376.0,-0.14819336,0.0015258789000000001,0.037353516,-14.114504,43.23664,-78.60305,2019-09-07 14:15:08,0.0
1377.0,-0.14080810000000002,0.0067749023,0.036254882999999995,-20.587785999999998,46.137405,-72.1145,2019-09-07 14:15:08,0.0
1378.0,-0.14807129,-0.006713866999999999,0.031311035,-28.877863,42.603054,-61.427482999999995,2019-09-07 14:15:08,0.0
1379.0,-0.14965820000000002,0.017089844,0.024902344,-34.12214,33.328243,-41.053436,2019-09-07 14:15:08,0.0
1380.0,-0.15576172,0.008666992,0.032714844,-32.885498,18.503817,-16.595419,2019-09-07 14:15:08,0.0
1381.0,-0.14074707,0.00042724610000000003,0.020629883,-36.625954,7.4961834000000005,7.206106699999999,2019-09-07 14:15:08,0.0
1382.0,-0.12219238,0.013122558999999999,0.018920898000000002,-41.458015,-3.29771,28.908398,2019-09-07 14:15:09,0.0
1383.0,-0.15484619,0.011352538999999998,0.016174316,-54.702290000000005,-5.2900763,44.702290000000005,2019-09-07 14:15:09,0.0
1384.0,-0.14733887,0.0078125,0.015136719,-66.41984599999999,-3.8778627,52.954197,2019-09-07 14:15:09,0.0
1385.0,-0.15704346,0.008300781,0.016174316,-67.31298000000001,-15.183207000000001,59.519085,2019-09-07 14:15:09,0.0
1386.0,-0.14935303,0.007019043000000001,0.012451172,-78.12977,-19.541985,64.74045600000001,2019-09-07 14:15:09,0.0
1387.0,-0.15216064,0.008300781,0.017028809,-91.66412,-26.152672,68.87023,2019-09-07 14:15:09,0.0
1388.0,-0.13189697,0.0061035156000000005,0.007751465,-92.65649,-30.57252,71.061066,2019-09-07 14:15:09,0.0
1389.0,-0.13366699,0.008117675999999999,-0.0025634766,-85.854965,-26.404581,65.44275,2019-09-07 14:15:09,0.0
1390.0,-0.14178467,0.02532959,-0.0020751953,-85.496185,-34.389313,58.946564,2019-09-07 14:15:09,0.0
1391.0,-0.15966797,0.008911133,0.0007324219,-83.72519,-35.053436,50.15267,2019-09-07 14:15:09,0.0
1392.0,-0.15930176,0.004760742,0.0014648438,-76.53435,-34.282444,39.496179999999995,2019-09-07 14:15:09,0.0
1393.0,-0.1595459,0.009216309,0.007446289,-66.10687,-28.167938,28.48855,2019-09-07 14:15:09,0.0
1394.0,-0.1515503,-0.0036621094,0.007080078,-57.648853,-29.847328000000005,20.213741,2019-09-07 14:15:09,0.0
1395.0,-0.15307617,0.0014038085999999999,0.0075683593999999995,-42.984734,-27.76336,16.839695000000003,2019-09-07 14:15:09,0.0
1396.0,-0.1361084,0.0008544922000000001,0.014160156,-31.541984999999997,-19.961832,10.351144999999999,2019-09-07 14:15:09,0.0
1397.0,-0.13171387,0.0,0.015625,-25.854961,-20.717558,8.687023,2019-09-07 14:15:09,0.0
1398.0,-0.11010742,-0.020935059,0.007385254,-21.786259,-23.160304999999997,3.8854961,2019-09-07 14:15:09,0.0
1399.0,-0.113220215,-0.011962891000000002,0.0095825195,-15.854961,-31.91603,0.32824427,2019-09-07 14:15:09,0.0
1400.0,-0.12524414,-0.016174316,0.0051879883,39.06107,-4.480916000000001,-16.770992,2019-09-07 14:15:09,0.0
1401.0,-0.13146973,-0.008666992,0.036132812,46.961834,3.8091602,-27.06107,2019-09-07 14:15:09,0.0
1402.0,-0.1171875,-0.01965332,0.012145996000000001,98.98473,-7.2137402999999996,-43.480915,2019-09-07 14:15:09,0.0
1403.0,-0.14794922,-0.007629394499999999,0.01751709,134.15266,17.358778,-53.038166000000004,2019-09-07 14:15:09,0.0
1404.0,-0.12054443,0.008544922,0.016540527,109.87786000000001,-14.251907999999998,-49.206109999999995,2019-09-07 14:15:09,0.0
1405.0,-0.10247803,0.008117675999999999,0.024902344,88.44275,5.7022900000000005,-43.305344,2019-09-07 14:15:09,0.0
1406.0,-0.1359253,0.021362305,0.024169922000000003,42.618320000000004,16.190839999999998,-29.25191,2019-09-07 14:15:09,0.0
1407.0,-0.13891602,0.016296387,0.012817383,-2.8625952999999997,20.824427,-17.93893,2019-09-07 14:15:09,0.0
1408.0,-0.14575195,0.0051879883,0.005004883,-32.206109999999995,25.175573,-2.1450381000000003,2019-09-07 14:15:09,0.0
1409.0,-0.14556885,-0.008666992,-0.003540039,-42.76336,25.519083,5.5419846,2019-09-07 14:15:09,0.0
1410.0,-0.13189697,-0.003967285,-0.0068969727,-35.732826,19.0,8.412213000000001,2019-09-07 14:15:09,0.0
1411.0,-0.15026855,-0.004211426,-0.006225586,-21.259542,18.648854999999998,8.549619,2019-09-07 14:15:09,0.0
1412.0,-0.13854979999999997,-0.0010375977,-0.010437011999999999,2.9847328999999996,21.259542,5.625954,2019-09-07 14:15:09,0.0
1413.0,-0.1616211,-0.009155273,-0.011474608999999998,44.21374,36.946564,-1.8244275,2019-09-07 14:15:09,0.0
1414.0,-0.17169189999999998,0.00030517577999999995,-0.011962891000000002,88.67175,35.664124,-17.068703,2019-09-07 14:15:09,0.0
1415.0,-0.16870117,0.001159668,-0.0029907227,129.76335,49.870228000000004,-45.809162,2019-09-07 14:15:09,0.0
1416.0,-0.14672852,0.02166748,0.007507324,132.76335,41.129771999999996,-70.061066,2019-09-07 14:15:09,0.0
1417.0,-0.12792969,0.00982666,0.00018310547,133.23665,51.587788,-92.35114,2019-09-07 14:15:10,0.0
1418.0,-0.15179443,0.0028686523,-0.004699707,126.43511000000001,72.35114,-112.26717,2019-09-07 14:15:10,0.0
1419.0,-0.15246582,0.00579834,0.00390625,100.74809,64.27481,-118.66412,2019-09-07 14:15:10,0.0
1420.0,-0.15484619,0.009094238000000001,0.0045166016,90.39695,54.389313,-116.60305,2019-09-07 14:15:10,0.0
1421.0,-0.15606689999999998,0.014221191000000001,-0.0015258789000000001,80.938934,56.893130000000006,-111.74045600000001,2019-09-07 14:15:10,0.0
1422.0,-0.15917969,0.009765625,0.0041503906,70.03817,49.526720000000005,-102.61069,2019-09-07 14:15:10,0.0
1423.0,-0.1459961,0.017456055,0.009643555,62.30534399999999,45.21374,-90.66412,2019-09-07 14:15:10,0.0
1424.0,-0.13146973,-0.00793457,0.020446777,53.274809999999995,35.82443,-76.70229,2019-09-07 14:15:10,0.0
1425.0,-0.12634277,0.010986328,0.019348145,58.793890000000005,33.396946,-62.23664,2019-09-07 14:15:10,0.0
1426.0,-0.15002441,0.007080078,0.019592285,52.343509999999995,30.534351,-48.427483,2019-09-07 14:15:10,0.0
1427.0,-0.1428833,0.00982666,0.020080566,33.335876,18.603054,-32.435116,2019-09-07 14:15:10,0.0
1428.0,-0.11669922,0.006225586,0.016723633,21.007633,7.9770994,-17.328245000000003,2019-09-07 14:15:10,0.0
1429.0,-0.12835693,0.006042480500000001,0.01940918,11.389313000000001,2.8015267999999995,-6.763358599999999,2019-09-07 14:15:10,0.0
1430.0,-0.11285400400000001,0.0053710938,0.016479492,6.0839696,-6.4656487,5.396946400000001,2019-09-07 14:15:10,0.0
1431.0,-0.11968994,-0.011108398,0.01159668,-0.8244275,-6.2442746,15.885496,2019-09-07 14:15:10,0.0
1432.0,-0.15997314,0.008666992,0.010986328,-11.21374,-5.40458,23.465649,2019-09-07 14:15:10,0.0
1433.0,-0.15435791,-0.0006713867,0.010498047,-21.770992,-3.3282442000000003,31.259542,2019-09-07 14:15:10,0.0
1434.0,-0.16314697,0.0079956055,0.0029907227,-24.61832,-18.954199,49.48855,2019-09-07 14:15:10,0.0
1435.0,-0.16357422,0.007690429699999999,0.0078125,-35.320609999999995,-15.687023000000002,57.061069999999994,2019-09-07 14:15:10,0.0
1436.0,-0.15045166,0.011047363000000001,0.0026245116999999997,-41.46565,-1.1068702,67.61069,2019-09-07 14:15:10,0.0
1437.0,-0.16143799,0.012756348,0.024108887000000002,-56.0,-18.977098,73.71755999999999,2019-09-07 14:15:10,0.0
1438.0,-0.13946533,0.009460449000000001,0.010498047,-66.75572,-53.0229,93.07633,2019-09-07 14:15:10,0.0
1439.0,-0.14379883,0.009887695,-0.0021972656,-71.64886,-4.1297708,88.79389,2019-09-07 14:15:10,0.0
1440.0,-0.15661621,0.015930176,-0.0009765625,-107.83206000000001,-34.76336,91.29771,2019-09-07 14:15:10,0.0
1441.0,-0.15716553,0.0028076171999999997,-0.013061523,-142.12978,-60.458015,94.25191,2019-09-07 14:15:10,0.0
1442.0,-0.14733887,0.0030517578000000003,-0.017700195,-154.58778,-74.29008,93.01527,2019-09-07 14:15:10,0.0
1443.0,-0.14080810000000002,0.014221191000000001,-0.016113281,-152.17557,-88.08397,96.0458,2019-09-07 14:15:10,0.0
1444.0,-0.14422607,0.0036621094,-0.015808105,-133.56488000000002,-89.83969,103.19847,2019-09-07 14:15:10,0.0
1445.0,-0.1529541,-0.0026245116999999997,-0.013244628999999999,-111.64886000000001,-89.0458,110.38931000000001,2019-09-07 14:15:10,0.0
1446.0,-0.14672852,0.006713866999999999,-0.0107421875,-77.8855,-89.145035,117.46565,2019-09-07 14:15:10,0.0
1447.0,-0.14953613,0.002380371,-0.010864258,-45.793890000000005,-82.35878000000001,121.28244,2019-09-07 14:15:10,0.0
1448.0,-0.14105225,-0.0007934570299999999,-0.010070800999999999,-35.358779999999996,-72.770996,120.65648999999999,2019-09-07 14:15:10,0.0
1449.0,-0.13159179999999998,0.002746582,-0.012451172,-25.038168,-66.41221999999999,110.23664,2019-09-07 14:15:10,0.0
1450.0,-0.12854004,0.007080078,-0.012145996000000001,-28.671754999999997,-54.083969999999994,95.938934,2019-09-07 14:15:10,0.0
1451.0,-0.13159179999999998,0.0067749023,-0.0087890625,-33.183205,-42.0229,78.70992,2019-09-07 14:15:10,0.0
1452.0,-0.12579346,0.007690429699999999,-0.00793457,-38.91603,-23.748089999999998,55.480915,2019-09-07 14:15:10,0.0
1453.0,-0.11773682,-0.0010375977,-0.0079956055,-29.213741,5.7022900000000005,27.67939,2019-09-07 14:15:11,0.0
1454.0,-0.13964844,0.005065918,0.0017700195,-14.61832,31.473282,-4.908396700000001,2019-09-07 14:15:11,0.0
1455.0,-0.15240479,0.005554199,0.010375977,1.3816794,49.305344,-35.21374,2019-09-07 14:15:11,0.0
1456.0,-0.1260376,0.013061523,0.0056152343999999995,15.824428,69.15267,-60.251906999999996,2019-09-07 14:15:11,0.0
1457.0,-0.15356445,0.012023926,-0.0025634766,22.007633,87.94655999999999,-87.618324,2019-09-07 14:15:11,0.0
1458.0,-0.15118408,0.0028686523,0.008117675999999999,16.290077,97.12977,-110.41984599999999,2019-09-07 14:15:11,0.0
1459.0,-0.13659668,0.009033203,0.0056152343999999995,14.709923999999999,105.27481,-117.908394,2019-09-07 14:15:11,0.0
1460.0,-0.16107178,0.001953125,0.015014648,18.236639999999998,137.05344,-138.44275,2019-09-07 14:15:11,0.0
1461.0,-0.16119385,0.0028686523,0.020568848,23.625954,130.36641,-142.72519,2019-09-07 14:15:11,0.0
1462.0,-0.16027832,0.002319336,0.014404297,16.358778,116.19084,-133.01527,2019-09-07 14:15:11,0.0
1463.0,-0.15722656,0.008483886999999999,0.013000488000000001,42.14504,94.145035,-114.96183,2019-09-07 14:15:11,0.0
1464.0,-0.16131592,0.004638672,0.013549805,74.541985,67.71755999999999,-88.01527,2019-09-07 14:15:11,0.0
1465.0,-0.16033936,0.0036010741999999997,0.0064086914,86.71755999999999,58.48855,-62.78626,2019-09-07 14:15:11,0.0
1466.0,-0.15594482,0.0024414061999999998,0.011779785,98.72519,55.51145,-46.396946,2019-09-07 14:15:11,0.0
1467.0,-0.15948486,0.008117675999999999,0.020080566,96.41221999999999,39.748093,-38.14504,2019-09-07 14:15:11,0.0
1468.0,-0.13464355,0.0041503906,0.012756348,87.47328,27.793894,-39.89313,2019-09-07 14:15:11,0.0
1469.0,-0.15301514,0.017028809,0.015625,73.32825,22.778625,-46.618320000000004,2019-09-07 14:15:11,0.0
1470.0,-0.1538086,-0.00042724610000000003,0.01965332,54.091602,19.435114000000002,-53.251906999999996,2019-09-07 14:15:11,0.0
1471.0,-0.13195801,0.005554199,0.017944336,39.23664,17.610687,-57.335876,2019-09-07 14:15:11,0.0
1472.0,-0.14849854,-0.0068969727,0.02130127,29.610687,20.778625,-56.40458,2019-09-07 14:15:11,0.0
1473.0,-0.16101074,0.006713866999999999,0.013183594,27.946565999999997,28.954199,-51.93893,2019-09-07 14:15:11,0.0
1474.0,-0.13403320000000002,0.005859375,0.009643555,19.625954,49.229008,-52.633587,2019-09-07 14:15:11,0.0
1475.0,-0.12799072,0.02130127,0.0072021483999999995,6.1755724,27.450382,-42.671757,2019-09-07 14:15:11,0.0
1476.0,-0.1451416,0.018371582,0.015808105,0.19083970000000003,35.404579999999996,-31.824427000000004,2019-09-07 14:15:11,0.0
1477.0,-0.14794922,0.008483886999999999,0.016052246000000003,-20.725191,28.396946000000003,-14.908397,2019-09-07 14:15:11,0.0
1478.0,-0.14819336,0.010559082,0.020996094,-41.625954,22.809160000000002,1.2061069,2019-09-07 14:15:11,0.0
1479.0,-0.12994385,0.0015869141,0.03100586,-56.908398,-32.458015,30.076335999999998,2019-09-07 14:15:11,0.0
1480.0,-0.1171875,0.004028320300000001,0.01727295,-49.595420000000004,-38.137405,58.076336,2019-09-07 14:15:11,0.0
1481.0,-0.11651611,0.008728027,0.0068969727,-55.297709999999995,-18.954199,70.854965,2019-09-07 14:15:11,0.0
1482.0,-0.15045166,0.002746582,-0.0021972656,-79.63359,-72.65649,93.94655999999999,2019-09-07 14:15:11,0.0
1483.0,-0.14483643,-0.0025634766,-0.0072021483999999995,-93.60305,-93.96947,109.45801499999999,2019-09-07 14:15:11,0.0
1484.0,-0.14605713,-0.010192871,-0.008850098,-95.31298000000001,-110.69466000000001,120.27481,2019-09-07 14:15:11,0.0
1485.0,-0.14752197,-0.008911133,-0.006713866999999999,-85.32825,-114.45801499999999,126.50381499999999,2019-09-07 14:15:11,0.0
1486.0,-0.14251709,-0.017944336,-0.0031738281,-67.64121999999999,-125.59541999999999,136.32825,2019-09-07 14:15:11,0.0
1487.0,-0.14654541,-0.0064086914,-0.0043945312,-42.358779999999996,-118.28244,140.33588,2019-09-07 14:15:11,0.0
1488.0,-0.14282227,0.00091552734,0.0034790040000000004,-13.21374,-104.68701999999999,142.92366,2019-09-07 14:15:12,0.0
1489.0,-0.15252686,0.0073242188,6.1035155999999994e-05,-3.3740457999999998,-82.87023,136.00763,2019-09-07 14:15:12,0.0
1490.0,-0.14794922,-0.0056152343999999995,0.00018310547,-6.70229,-66.12214,122.45801499999999,2019-09-07 14:15:12,0.0
1491.0,-0.14898682,0.0068359375,-0.0036010741999999997,-17.580153,-52.954197,103.12977,2019-09-07 14:15:12,0.0
1492.0,-0.13378906,-0.0006713867,-0.0044555664,-36.984734,-37.076336,81.05344000000001,2019-09-07 14:15:12,0.0
1493.0,-0.11328125,-0.00018310547,-0.005554199,-46.381679999999996,-29.87023,57.59542,2019-09-07 14:15:12,0.0
1494.0,-0.11853027,-0.010009766,-0.008544922,-34.9771,-13.770992000000001,37.961834,2019-09-07 14:15:12,0.0
1495.0,-0.14221191,0.0020751953,-0.0012817383,-7.862595599999999,11.206107000000001,11.251908,2019-09-07 14:15:12,0.0
1496.0,-0.1593628,0.0048828125,0.008483886999999999,5.6106873,29.038168,-22.305344,2019-09-07 14:15:12,0.0
1497.0,-0.12652588,0.0010375977,0.006958008000000001,11.450381,44.015266,-56.320609999999995,2019-09-07 14:15:12,0.0
1498.0,-0.14813232,0.008972168,0.0007324219,18.519083,66.19084000000001,-92.74045600000001,2019-09-07 14:15:12,0.0
1499.0,-0.13317871,0.0071411133,0.012268066000000001,14.312976999999998,79.0229,-117.32825,2019-09-07 14:15:12,0.0
1500.0,-0.15625,0.007385254,0.031677246,2.8625952999999997,93.87023,-135.35878,2019-09-07 14:15:12,0.0
1501.0,-0.14154053,0.0021362305,0.03491211,5.7328243,95.51145,-133.67938,2019-09-07 14:15:12,0.0
1502.0,-0.15179443,0.011108398,0.01184082,27.961832,105.71756,-128.41222,2019-09-07 14:15:12,0.0
1503.0,-0.15338135,-0.004028320300000001,0.010498047,43.931297,96.76335999999999,-117.770996,2019-09-07 14:15:12,0.0
1504.0,-0.16174316,0.006286621,-0.00048828125,58.687022999999996,69.824425,-98.07633,2019-09-07 14:15:12,0.0
1505.0,-0.16156006,0.0064086914,-0.0029907227,70.39695,50.503820000000005,-83.52672,2019-09-07 14:15:12,0.0
1506.0,-0.1274414,0.0029296875,0.0029907227,86.60305,36.732826,-67.96947,2019-09-07 14:15:12,0.0
1507.0,-0.16320801,0.0063476562,0.0031738281,100.27481,30.694656,-56.137405,2019-09-07 14:15:12,0.0
1508.0,-0.12200928,0.005737304699999999,0.0040893555,111.12977,24.595419,-48.297709999999995,2019-09-07 14:15:12,0.0
1509.0,-0.16052246,0.0048828125,0.0067749023,112.10687,22.534351,-51.160305,2019-09-07 14:15:12,0.0
1510.0,-0.11590576,0.021057128999999997,0.011108398,93.99235999999999,26.541984999999997,-54.893130000000006,2019-09-07 14:15:12,0.0
1511.0,-0.15618896,0.011474608999999998,0.0154418945,60.335876,33.51145,-61.412212,2019-09-07 14:15:12,0.0
1512.0,-0.11999512,-0.0021972656,0.02178955,31.08397,35.961834,-64.74045600000001,2019-09-07 14:15:12,0.0
1513.0,-0.14068604,0.012329102,0.018249512,19.08397,41.496179999999995,-68.00764000000001,2019-09-07 14:15:12,0.0
1514.0,-0.13146973,0.012145996000000001,0.016967773000000002,14.946565,47.900764,-68.35114,2019-09-07 14:15:12,0.0
1515.0,-0.13598633,0.0018310547,0.014587402,15.862596,62.32824300000001,-69.503815,2019-09-07 14:15:12,0.0
1516.0,-0.14404297,0.011779785,0.012145996000000001,13.0,52.229008,-59.83969499999999,2019-09-07 14:15:12,0.0
1517.0,-0.13891602,0.010375977,0.009094238000000001,10.343511999999999,40.419846,-47.816795,2019-09-07 14:15:12,0.0
1518.0,-0.15515137,0.013793945,0.025146484,3.0152671000000004,38.427483,-31.74809,2019-09-07 14:15:12,0.0
1519.0,-0.14154053,0.012817383,0.0345459,-22.633587,19.801527,-12.488549,2019-09-07 14:15:12,0.0
1520.0,-0.14465332,0.017456055,0.035095215,-38.85496,-4.9007635,8.465649,2019-09-07 14:15:12,0.0
1521.0,-0.13659668,0.020935059,0.0178833,-48.93893,7.541984599999999,26.274809,2019-09-07 14:15:12,0.0
1522.0,-0.14459229,0.019897461,0.009216309,-75.74045600000001,-33.954197,51.76336,2019-09-07 14:15:12,0.0
1523.0,-0.15301514,0.01159668,-0.0010986328,-92.73283,-68.541985,74.31298000000001,2019-09-07 14:15:12,0.0
1524.0,-0.13458252,-0.0028076171999999997,-0.006713866999999999,-100.66412,-92.08397,94.9313,2019-09-07 14:15:13,0.0
1525.0,-0.1428833,-0.01171875,-0.0072021483999999995,-105.0687,-106.47328,115.0458,2019-09-07 14:15:13,0.0
1526.0,-0.15014648,-0.0053710938,-0.010803223,-90.8855,-104.62595,128.29007,2019-09-07 14:15:13,0.0
1527.0,-0.14337158,-0.012023926,-0.009094238000000001,-77.12977,-117.84733,143.40458999999998,2019-09-07 14:15:13,0.0
1528.0,-0.15423584,-0.0015258789000000001,-0.00030517577999999995,-48.862595,-121.55725,159.03816,2019-09-07 14:15:13,0.0
1529.0,-0.1531372,-0.0017089844000000001,0.0037841796999999997,-19.221375,-115.57252,166.7939,2019-09-07 14:15:13,0.0
1530.0,-0.1539917,0.0021972656,0.00036621094,-10.022901,-96.83206,161.84734,2019-09-07 14:15:13,0.0
1531.0,-0.11499023400000001,0.010498047,6.1035155999999994e-05,-22.91603,-78.71755999999999,149.2061,2019-09-07 14:15:13,0.0
1532.0,-0.15240479,0.004333496,-0.0007324219,-41.587788,-62.61832,128.16031,2019-09-07 14:15:13,0.0
1533.0,-0.12506104,0.0087890625,-0.0068359375,-51.015266,-52.10687,106.12977,2019-09-07 14:15:13,0.0
1534.0,-0.11657715,0.0068969727,-0.00592041,-52.923664,-30.145039,78.45038000000001,2019-09-07 14:15:13,0.0
1535.0,-0.1194458,0.0038452148,-0.0017700195,-43.984734,-4.5648856,46.129771999999996,2019-09-07 14:15:13,0.0
1536.0,-0.15673828,0.003967285,0.00390625,-39.068703,10.389313000000001,10.916031,2019-09-07 14:15:13,0.0
1537.0,-0.15393066,0.0072631836,0.005004883,-28.343512,22.045801,-17.419847,2019-09-07 14:15:13,0.0
1538.0,-0.14959717,-0.006042480500000001,0.003967285,-8.854961,38.992367,-44.656490000000005,2019-09-07 14:15:13,0.0
1539.0,-0.1593628,0.005493164,-0.0034179688000000002,7.9770994,59.23664,-69.32061,2019-09-07 14:15:13,0.0
1540.0,-0.15148926,-0.0061035156000000005,0.007019043000000001,16.931297,61.198475,-86.19084000000001,2019-09-07 14:15:13,0.0
1541.0,-0.16046143,0.0024414061999999998,0.02355957,24.236639999999998,69.9542,-100.45038000000001,2019-09-07 14:15:13,0.0
1542.0,-0.16186523,0.005981445300000001,0.024414062,34.778625,80.99235999999999,-107.20611000000001,2019-09-07 14:15:13,0.0
1543.0,-0.15258789,0.0043945312,0.016845703,41.129771999999996,85.73283,-109.183205,2019-09-07 14:15:13,0.0
1544.0,-0.1595459,0.004638672,0.0052490233999999995,38.427483,83.099236,-105.35878000000001,2019-09-07 14:15:13,0.0
1545.0,-0.16259766,0.0064086914,0.008239746,44.366413,65.68701999999999,-94.35878000000001,2019-09-07 14:15:13,0.0
1546.0,-0.13476562,0.00036621094,0.009277344,49.290077000000004,56.0229,-85.74809,2019-09-07 14:15:13,0.0
1547.0,-0.15185547,-0.0032958984000000004,0.0178833,52.541985,54.458015,-81.05344000000001,2019-09-07 14:15:13,0.0
1548.0,-0.16265869,0.008117675999999999,0.01373291,67.51145,49.572517,-80.8855,2019-09-07 14:15:13,0.0
1549.0,-0.13934326,0.003112793,0.010559082,69.145035,46.992367,-82.33588,2019-09-07 14:15:13,0.0
1550.0,-0.12701416,0.012512207,0.014343261999999999,73.57252,47.358779999999996,-85.51908,2019-09-07 14:15:13,0.0
1551.0,-0.12866211,0.026428222999999997,0.014282227,72.48855,51.9771,-90.503815,2019-09-07 14:15:13,0.0
1552.0,-0.14776611,0.0068969727,0.018981934,54.25954,51.992367,-88.96947,2019-09-07 14:15:13,0.0
1553.0,-0.14715576,0.013793945,0.018005371000000003,43.366413,47.374046,-87.64121999999999,2019-09-07 14:15:13,0.0
1554.0,-0.14569092,0.008422852,0.017028809,38.732826,44.25954,-79.57252,2019-09-07 14:15:13,0.0
1555.0,-0.14685059,0.010192871,0.014770508,38.396946,58.648853,-72.824425,2019-09-07 14:15:13,0.0
1556.0,-0.1461792,-0.00018310547,0.008117675999999999,32.068703,63.0229,-60.809162,2019-09-07 14:15:13,0.0
1557.0,-0.16149902,0.0071411133,0.0015258789000000001,23.022902,37.229008,-40.099236,2019-09-07 14:15:13,0.0
1558.0,-0.15991211,0.018432617,0.014465332,17.167938,21.91603,-19.236639999999998,2019-09-07 14:15:13,0.0
1559.0,-0.14331055,0.0068359375,0.01159668,2.8091602000000004,21.076335999999998,2.3053436,2019-09-07 14:15:13,0.0
1560.0,-0.14434814,0.0087890625,0.012939453,-14.106871,20.580153,17.564885999999998,2019-09-07 14:15:14,0.0
1561.0,-0.14672852,0.0095825195,0.036376953,-35.900764,-18.114504,39.23664,2019-09-07 14:15:14,0.0
1562.0,-0.1083374,0.010131836,0.020202637,-47.587788,-16.641222,50.274809999999995,2019-09-07 14:15:14,0.0
1563.0,-0.14678955,0.0071411133,0.016357422,-59.62595400000001,2.6335877999999995,51.931297,2019-09-07 14:15:14,0.0
1564.0,-0.15588379,0.011230469,0.0068359375,-94.03817,-49.099236,64.908394,2019-09-07 14:15:14,0.0
1565.0,-0.14880371,0.007385254,-0.0033569335999999996,-111.71756,-67.221375,78.10687,2019-09-07 14:15:14,0.0
1566.0,-0.13421631,0.008056641,-0.006652831999999999,-122.76336,-77.28244000000001,86.67939,2019-09-07 14:15:14,0.0
1567.0,-0.152771,0.0048217773,-0.007019043000000001,-125.14503500000001,-86.10687,95.08397,2019-09-07 14:15:14,0.0
1568.0,-0.15350342,0.0049438477,-0.010253906,-117.99236,-98.40458000000001,106.07633,2019-09-07 14:15:14,0.0
1569.0,-0.14355469,0.0087890625,-0.0071411133,-100.9542,-98.938934,114.56488999999999,2019-09-07 14:15:14,0.0
1570.0,-0.16143799,0.015197753999999999,-0.0043945312,-72.56489,-97.56489,123.137405,2019-09-07 14:15:14,0.0
1571.0,-0.15325928,0.006164551,-0.0051879883,-45.44275,-86.78626,127.92367,2019-09-07 14:15:14,0.0
1572.0,-0.13574219,-0.005554199,-0.0024414061999999998,-33.755726,-74.61069,127.91603,2019-09-07 14:15:14,0.0
1573.0,-0.15734863,0.013916016000000002,-0.007507324,-38.648853,-67.00764000000001,119.53435,2019-09-07 14:15:14,0.0
1574.0,-0.14953613,0.005493164,-0.017700195,-40.496179999999995,-61.725190000000005,102.20611,2019-09-07 14:15:14,0.0
1575.0,-0.13824463,-0.0009765625,-0.017028809,-38.328243,-61.244274,86.83206,2019-09-07 14:15:14,0.0
1576.0,-0.13012695,0.0029296875,-0.022399902000000003,-6.4351144,-43.694656,59.351147,2019-09-07 14:15:14,0.0
1577.0,-0.15582275,-0.0014648438,-0.011474608999999998,41.076336,-13.503817000000002,27.91603,2019-09-07 14:15:14,0.0
1578.0,-0.15771484,0.010131836,-0.0025024414000000004,58.274809999999995,-2.8778627,-5.5343513,2019-09-07 14:15:14,0.0
1579.0,-0.1605835,0.003112793,0.0068969727,58.725190000000005,18.091601999999998,-41.358779999999996,2019-09-07 14:15:14,0.0
1580.0,-0.15332031,0.014465332,0.0045776367,42.633587,40.51145,-73.55725,2019-09-07 14:15:14,0.0
1581.0,-0.13446045,0.009399414,0.011657715,19.458015,68.061066,-98.854965,2019-09-07 14:15:14,0.0
1582.0,-0.15496826,0.0017089844000000001,0.013122558999999999,-20.931297,77.824425,-110.229004,2019-09-07 14:15:14,0.0
1583.0,-0.15344238,0.017456055,0.015197753999999999,-39.480915,97.73283,-120.0229,2019-09-07 14:15:14,0.0
1584.0,-0.14984131,-0.0045166016,0.0107421875,-38.0229,112.33588,-121.83968999999999,2019-09-07 14:15:14,0.0
1585.0,-0.16412354,0.0087890625,0.004638672,-22.068703,107.50381499999999,-120.00764,2019-09-07 14:15:14,0.0
1586.0,-0.15594482,-0.0020141601999999997,0.0028076171999999997,15.816792999999999,92.9771,-107.01527,2019-09-07 14:15:14,0.0
1587.0,-0.1515503,-0.0037231445,0.0034179688000000002,62.85496,69.80915999999999,-91.19847,2019-09-07 14:15:14,0.0
1588.0,-0.14898682,-0.008483886999999999,-0.00036621094,95.183205,46.412212,-74.75572,2019-09-07 14:15:14,0.0
1589.0,-0.14837646,-0.005493164,0.007507324,114.30533999999999,41.297709999999995,-63.076336,2019-09-07 14:15:14,0.0
1590.0,-0.14770508,0.0107421875,0.011169433999999999,125.51145,37.83206,-56.679390000000005,2019-09-07 14:15:14,0.0
1591.0,-0.14141846,0.012634277,0.011047363000000001,116.27481,32.450382,-53.015266000000004,2019-09-07 14:15:14,0.0
1592.0,-0.13519287,0.016906738,0.018920898000000002,87.44275,34.992367,-56.419846,2019-09-07 14:15:14,0.0
1593.0,-0.1428833,0.022399902000000003,0.026000977,47.900764,44.458015,-67.39695,2019-09-07 14:15:14,0.0
1594.0,-0.13293457,0.018371582,0.02520752,10.923664,42.17557,-74.80915999999999,2019-09-07 14:15:14,0.0
1595.0,-0.15447998,-0.002380371,0.029724121000000003,-9.106871,47.320609999999995,-82.72519,2019-09-07 14:15:14,0.0
1596.0,-0.1395874,0.008178711,0.027282715,-12.167939,47.045803,-79.76335999999999,2019-09-07 14:15:15,0.0
1597.0,-0.15716553,0.007507324,0.01953125,-5.6412214999999994,64.96183,-77.01527,2019-09-07 14:15:15,0.0
1598.0,-0.15368652,0.0032348633000000003,0.01940918,-6.1221375,39.450382,-58.12214,2019-09-07 14:15:15,0.0
1599.0,-0.15679932,0.01184082,0.014404297,6.2977099999999995,34.366413,-35.946564,2019-09-07 14:15:15,0.0
1600.0,-0.16253662,0.01953125,0.014221191000000001,-10.564885,10.854961,-8.396947,2019-09-07 14:15:15,0.0
1601.0,-0.16021729,0.007446289,0.011047363000000001,-29.389313,2.6793892,15.503817000000002,2019-09-07 14:15:15,0.0
1602.0,-0.15374756,0.0007934570299999999,0.03387451,-34.328243,-54.32824300000001,49.190838,2019-09-07 14:15:15,0.0
1603.0,-0.12835693,0.009887695,-0.0008544922000000001,-34.793890000000005,-44.931297,68.91603,2019-09-07 14:15:15,0.0
1604.0,-0.15667725,0.023803711,0.0051879883,-34.274809999999995,-40.458015,85.79389,2019-09-07 14:15:15,0.0
1605.0,-0.16210938,0.012817383,-0.001159668,-56.78626,-91.10687,106.618324,2019-09-07 14:15:15,0.0
1606.0,-0.15875244,0.0025024414000000004,-0.017211914,-72.03053,-111.87023,122.381676,2019-09-07 14:15:15,0.0
1607.0,-0.15673828,0.00982666,-0.009887695,-83.25191,-111.62595,131.22137,2019-09-07 14:15:15,0.0
1608.0,-0.15325928,-0.0020751953,-0.004333496,-78.29008,-120.45038000000001,143.10687,2019-09-07 14:15:15,0.0
1609.0,-0.15808105,0.01928711,-0.0064086914,-61.49618,-124.221375,156.58015,2019-09-07 14:15:15,0.0
1610.0,-0.1572876,0.001953125,-0.0029907227,-42.618320000000004,-112.0458,163.6565,2019-09-07 14:15:15,0.0
1611.0,-0.15161133,0.0138549805,0.0048828125,-15.450381,-97.38931,165.27481,2019-09-07 14:15:15,0.0
1612.0,-0.14465332,0.020690918,0.0007324219,-10.694656,-77.64121999999999,154.57253,2019-09-07 14:15:15,0.0
1613.0,-0.14483643,0.0072631836,-0.006042480500000001,-25.366413,-61.389313,140.69466,2019-09-07 14:15:15,0.0
1614.0,-0.1453247,0.023742676,-0.0036010741999999997,-38.358779999999996,-50.89313,119.900764,2019-09-07 14:15:15,0.0
1615.0,-0.12835693,0.001159668,-0.004333496,-55.458015,-35.923664,98.229004,2019-09-07 14:15:15,0.0
1616.0,-0.11975098,0.0119018555,0.0025024414000000004,-59.335876,-25.305344,76.16794,2019-09-07 14:15:15,0.0
1617.0,-0.11676025400000001,0.004638672,-0.011962891000000002,-37.816795,-21.610687,53.297709999999995,2019-09-07 14:15:15,0.0
1618.0,-0.12915039,0.00793457,-0.007751465,8.862596,17.610687,17.213741,2019-09-07 14:15:15,0.0
1619.0,-0.16351318,0.007080078,0.016296387,30.480916999999998,36.480915,-22.290077,2019-09-07 14:15:15,0.0
1620.0,-0.14593506,0.00579834,0.017150878999999997,37.85496,45.809162,-64.25954399999999,2019-09-07 14:15:15,0.0
1621.0,-0.15447998,0.014160156,0.008483886999999999,40.961834,70.9771,-108.94656,2019-09-07 14:15:15,0.0
1622.0,-0.152771,-0.0012817383,0.010925293,20.0,94.9313,-145.64122,2019-09-07 14:15:15,0.0
1623.0,-0.15362549,-0.002746582,0.012451172,-3.832061,99.80915999999999,-167.3435,2019-09-07 14:15:15,0.0
1624.0,-0.15570068,0.018615723,0.014282227,2.6335877999999995,108.29008,-176.38931000000002,2019-09-07 14:15:15,0.0
1625.0,-0.16424560000000002,0.0061035156000000005,0.014160156,22.809160000000002,122.41221999999999,-170.83969,2019-09-07 14:15:15,0.0
1626.0,-0.1494751,-0.0053100586,0.005126953,42.015266,119.824425,-159.3435,2019-09-07 14:15:15,0.0
1627.0,-0.1651001,0.008117675999999999,0.0037231445,71.541985,103.19084000000001,-140.47328000000002,2019-09-07 14:15:15,0.0
1628.0,-0.16278076,0.00592041,-0.0020751953,92.36641,72.091606,-118.183205,2019-09-07 14:15:15,0.0
1629.0,-0.15472412,-6.1035155999999994e-05,0.0006713867,106.29771000000001,46.549618,-97.48092,2019-09-07 14:15:16,0.0
1630.0,-0.14440918,0.0072631836,-0.0017089844000000001,102.28244000000001,41.335876,-78.71755999999999,2019-09-07 14:15:16,0.0
1631.0,-0.13659668,0.0006713867,0.008239746,97.87023,38.343509999999995,-66.26717,2019-09-07 14:15:16,0.0
1632.0,-0.14575195,0.009094238000000001,0.013366699,85.496185,34.358779999999996,-59.14504,2019-09-07 14:15:16,0.0
1633.0,-0.14331055,0.021911621000000003,0.015563965,68.41984599999999,34.183205,-55.450382,2019-09-07 14:15:16,0.0
1634.0,-0.14868164,0.009643555,0.02508545,30.045801,32.732826,-57.53435,2019-09-07 14:15:16,0.0
1635.0,-0.14703369,0.006652831999999999,0.015014648,20.137404999999998,26.030535,-52.412212,2019-09-07 14:15:16,0.0
1636.0,-0.13238525,0.007019043000000001,0.0138549805,24.022902,28.862595000000002,-49.702290000000005,2019-09-07 14:15:16,0.0
1637.0,-0.14520264,0.014587402,0.01171875,27.740458,41.900764,-39.21374,2019-09-07 14:15:16,0.0
1638.0,-0.14465332,0.013122558999999999,0.013183594,16.465649,30.801527,-25.603054,2019-09-07 14:15:16,0.0
1639.0,-0.14099121,0.012207031,0.0075683593999999995,2.4732822999999997,20.801527,-1.9389313000000001,2019-09-07 14:15:16,0.0
1640.0,-0.15655518,0.013366699,0.014770508,-10.229008,14.076335999999998,18.603054,2019-09-07 14:15:16,0.0
1641.0,-0.159729,0.0051879883,0.01184082,-23.603054,17.900763,37.587788,2019-09-07 14:15:16,0.0
1642.0,-0.15527344,0.018920898000000002,0.028076172000000003,-37.0,-13.305344,59.961833999999996,2019-09-07 14:15:16,0.0
1643.0,-0.1531372,0.0049438477,0.008178711,-51.496179999999995,-15.488548999999999,75.23664000000001,2019-09-07 14:15:16,0.0
1644.0,-0.15563965,0.010925293,0.008911133,-62.435116,-4.7480917,80.26717,2019-09-07 14:15:16,0.0
1645.0,-0.16436768,0.007507324,0.0012207030999999999,-90.862595,-52.47328,92.71755999999999,2019-09-07 14:15:16,0.0
1646.0,-0.15704346,0.0018920898,-0.009521484,-111.381676,-70.19084000000001,105.41984599999999,2019-09-07 14:15:16,0.0
1647.0,-0.15606689999999998,-0.00018310547,-0.005859375,-118.74045600000001,-78.60305,116.45038000000001,2019-09-07 14:15:16,0.0
1648.0,-0.1461792,0.017211914,-0.0095825195,-135.56488000000002,-91.03817,129.69466,2019-09-07 14:15:16,0.0
1649.0,-0.159729,0.010253906,-0.012573242,-126.48092,-100.35878000000001,136.87787,2019-09-07 14:15:16,0.0
1650.0,-0.15942383,0.0026245116999999997,-0.011169433999999999,-103.72519,-98.19084000000001,145.46565,2019-09-07 14:15:16,0.0
1651.0,-0.15960693,0.0016479492000000002,-0.0037841796999999997,-68.32825,-97.58015400000001,151.92366,2019-09-07 14:15:16,0.0
1652.0,-0.15344238,-0.00036621094,-0.003540039,-35.595420000000004,-92.19847,149.90076000000002,2019-09-07 14:15:16,0.0
1653.0,-0.15063477,-0.004272461,0.00018310547,-19.519083,-76.51145,139.83969,2019-09-07 14:15:16,0.0
1654.0,-0.13580322,-0.004760742,-0.0026245116999999997,-15.007632999999998,-63.77099200000001,123.63358999999998,2019-09-07 14:15:16,0.0
1655.0,-0.13543701,-0.00030517577999999995,0.00024414062000000002,-19.030535,-49.549618,101.87023,2019-09-07 14:15:16,0.0
1656.0,-0.11840819999999999,-0.00030517577999999995,-0.0012817383,-18.809160000000002,-38.290077000000004,78.229004,2019-09-07 14:15:16,0.0
1657.0,-0.123535156,-0.018249512,-0.007751465,-12.801527,-17.152672,48.618320000000004,2019-09-07 14:15:16,0.0
1658.0,-0.14135742,-0.0020751953,6.1035155999999994e-05,0.8702290000000001,9.725191,8.931297,2019-09-07 14:15:16,0.0
1659.0,-0.12011719,0.013244628999999999,0.0007324219,3.9923663,18.984734,-31.366413,2019-09-07 14:15:16,0.0
1660.0,-0.13317871,-0.0031738281,0.008056641,-1.3129771000000001,31.458015000000003,-71.503815,2019-09-07 14:15:16,0.0
1661.0,-0.15460205,-0.0014648438,-0.00018310547,-7.7709923,50.496179999999995,-107.84733,2019-09-07 14:15:16,0.0
1662.0,-0.15246582,0.013000488000000001,0.016174316,-11.389313000000001,61.206109999999995,-127.816795,2019-09-07 14:15:16,0.0
1663.0,-0.14294434,0.0026245116999999997,0.007690429699999999,-9.167939,68.53435,-136.0229,2019-09-07 14:15:16,0.0
1664.0,-0.1494751,-0.0061035156000000005,0.0015258789000000001,12.732824,86.39695,-138.59541000000002,2019-09-07 14:15:16,0.0
1665.0,-0.14184570000000002,-0.010375977,0.0018920898,35.274809999999995,97.51145,-132.61831999999998,2019-09-07 14:15:16,0.0
1666.0,-0.15924072,0.004211426,0.0030517578000000003,46.267174,81.78626,-124.778625,2019-09-07 14:15:17,0.0
1667.0,-0.15240479,0.0134887695,0.0018920898,61.969467,60.14504,-110.84733,2019-09-07 14:15:17,0.0
1668.0,-0.16131592,0.006652831999999999,0.00012207031000000001,82.40458000000001,41.46565,-93.21374,2019-09-07 14:15:17,0.0
1669.0,-0.15405273,-0.0015258789000000001,-0.0015869141,95.137405,28.51145,-73.778625,2019-09-07 14:15:17,0.0
1670.0,-0.13940429999999998,-0.0012817383,0.0024414061999999998,103.16794,26.74809,-56.870228000000004,2019-09-07 14:15:17,0.0
1671.0,-0.14709473,0.0020751953,0.003967285,103.35878000000001,30.282442,-48.381679999999996,2019-09-07 14:15:17,0.0
1672.0,-0.14440918,0.0036010741999999997,0.008178711,88.80915999999999,27.114503999999997,-48.687022999999996,2019-09-07 14:15:17,0.0
1673.0,-0.152771,0.012573242,0.005126953,65.60305,32.007633,-55.580154,2019-09-07 14:15:17,0.0
1674.0,-0.15423584,0.012634277,0.011413574,49.129771999999996,31.641221999999996,-69.1145,2019-09-07 14:15:17,0.0
1675.0,-0.1508789,0.010070800999999999,0.022460938,26.61832,33.954197,-79.30534,2019-09-07 14:15:17,0.0
1676.0,-0.15252686,-0.00091552734,0.019592285,5.5114503,43.519085,-90.08397,2019-09-07 14:15:17,0.0
1677.0,-0.15551758,0.00042724610000000003,0.018188476999999998,-5.816794,57.687022999999996,-95.458015,2019-09-07 14:15:17,0.0
1678.0,-0.15808105,0.0015869141,0.020141601999999998,-10.366412,80.23664000000001,-99.16794,2019-09-07 14:15:17,0.0
1679.0,-0.16149902,0.008117675999999999,0.018554688,-7.099236500000001,62.755726,-89.99235999999999,2019-09-07 14:15:17,0.0
1680.0,-0.14660645,0.013000488000000001,0.016845703,-2.2442749,46.931297,-69.65649,2019-09-07 14:15:17,0.0
1681.0,-0.16186523,0.0072021483999999995,0.024841309,-17.442749,29.908398,-40.366413,2019-09-07 14:15:17,0.0
1682.0,-0.15637207,0.004699707,0.016113281,-33.458015,20.251910000000002,-8.083969,2019-09-07 14:15:17,0.0
1683.0,-0.15716553,0.0007324219,0.023132324,-41.412212,-17.48855,33.030533,2019-09-07 14:15:17,0.0
1684.0,-0.13494873,0.0010986328,0.014282227,-28.885496000000003,-38.679390000000005,67.05344000000001,2019-09-07 14:15:17,0.0
1685.0,-0.14752197,0.005554199,0.006958008000000001,-12.908397,-27.862595000000002,86.67939,2019-09-07 14:15:17,0.0
1686.0,-0.16125488,0.0072021483999999995,0.0022583008,-31.030534999999997,-68.53435,108.091606,2019-09-07 14:15:17,0.0
1687.0,-0.15551758,0.0154418945,-0.0016479492000000002,-61.389313,-94.91603,123.12977,2019-09-07 14:15:17,0.0
1688.0,-0.15075684,0.011779785,-0.00793457,-78.503815,-99.862595,128.16031,2019-09-07 14:15:17,0.0
1689.0,-0.14526367,0.003967285,0.001953125,-96.9771,-98.36641,130.41222,2019-09-07 14:15:17,0.0
1690.0,-0.1517334,0.024963378999999997,0.004638672,-96.96947,-106.76336,136.44275,2019-09-07 14:15:17,0.0
1691.0,-0.15594482,0.015930176,0.003540039,-82.61069,-94.58015400000001,137.73282,2019-09-07 14:15:17,0.0
1692.0,-0.15325928,0.015563965,0.004699707,-49.85496,-75.37405,139.2061,2019-09-07 14:15:17,0.0
1693.0,-0.15142822,0.002380371,0.0037841796999999997,-30.519083000000002,-59.419846,136.83206,2019-09-07 14:15:17,0.0
1694.0,-0.13537598,0.011352538999999998,0.0007934570299999999,-32.885498,-43.748093,125.83206000000001,2019-09-07 14:15:17,0.0
1695.0,-0.1473999,0.0068359375,-0.004272461,-45.328243,-38.526720000000005,110.96947,2019-09-07 14:15:17,0.0
1696.0,-0.13690186,0.013244628999999999,-0.009765625,-57.190838,-37.381679999999996,98.778625,2019-09-07 14:15:17,0.0
1697.0,-0.13940429999999998,-0.0006713867,-0.010070800999999999,-53.435116,-33.89313,79.41221999999999,2019-09-07 14:15:17,0.0
1698.0,-0.13409424,-0.0045166016,-0.0079956055,-28.732824,-17.564885999999998,59.099236,2019-09-07 14:15:17,0.0
1699.0,-0.14324951,-0.0051879883,-0.001159668,-8.450381,4.145038,31.42748,2019-09-07 14:15:17,0.0
1700.0,-0.15142822,0.0018920898,0.0051879883,4.091603299999999,11.450381,-3.5190839999999994,2019-09-07 14:15:17,0.0
1701.0,-0.16259766,0.024902344,0.0063476562,8.083969,26.656488,-37.17557,2019-09-07 14:15:17,0.0
1702.0,-0.14807129,0.008544922,0.0020751953,6.5725193,49.923664,-73.091606,2019-09-07 14:15:18,0.0
1703.0,-0.14276123,0.011657715,0.024963378999999997,-11.435115,69.061066,-95.67175,2019-09-07 14:15:18,0.0
1704.0,-0.13848877,0.0154418945,0.025756836,-47.687022999999996,89.221375,-112.69466000000001,2019-09-07 14:15:18,0.0
1705.0,-0.13861084,0.0016479492000000002,0.019897461,-50.053436,95.26717,-112.83968999999999,2019-09-07 14:15:18,0.0
1706.0,-0.15466309,-0.0021972656,0.004211426,-28.450382,104.34351,-112.07633,2019-09-07 14:15:18,0.0
1707.0,-0.13775635,-0.018188476999999998,-6.1035155999999994e-05,-1.8549619,89.43511,-101.541985,2019-09-07 14:15:18,0.0
1708.0,-0.14965820000000002,0.008239746,-0.0064697266000000005,32.748093,68.68701999999999,-88.1145,2019-09-07 14:15:18,0.0
1709.0,-0.15216064,-0.010009766,-0.005004883,74.51908,44.610687,-72.221375,2019-09-07 14:15:18,0.0
1710.0,-0.14837646,0.009277344,-0.0021972656,99.76335999999999,26.931296999999997,-55.015266000000004,2019-09-07 14:15:18,0.0
1711.0,-0.14831543,0.007751465,0.0006103515599999999,128.51144,23.320610000000002,-42.381679999999996,2019-09-07 14:15:18,0.0
1712.0,-0.14575195,0.009155273,0.014282227,126.26717,21.801527,-37.519085,2019-09-07 14:15:18,0.0
1713.0,-0.14764404,0.016174316,0.025695799999999998,103.35114,27.19084,-43.198475,2019-09-07 14:15:18,0.0
1714.0,-0.14837646,0.018981934,0.026916503999999997,68.05344000000001,32.83206,-53.419846,2019-09-07 14:15:18,0.0
1715.0,-0.14935303,0.02154541,0.027954102,35.198475,38.748093,-64.89313,2019-09-07 14:15:18,0.0
1716.0,-0.13677979,0.0028076171999999997,0.022644043,5.519083999999999,44.83206,-75.778625,2019-09-07 14:15:18,0.0
1717.0,-0.15698242,0.0032348633000000003,0.030273438,-12.916031,49.732826,-80.03817,2019-09-07 14:15:18,0.0
1718.0,-0.15100098,0.00036621094,0.01977539,-4.3053436,52.81679499999999,-79.854965,2019-09-07 14:15:18,0.0
1719.0,-0.14007568,0.02923584,0.013183594,20.580153,63.16794,-73.96947,2019-09-07 14:15:18,0.0
1720.0,-0.16345215,0.0072021483999999995,0.020874023000000002,29.67939,47.82443,-61.610687,2019-09-07 14:15:18,0.0
1721.0,-0.15283203,0.015136719,0.01763916,35.778625,41.587788,-44.328243,2019-09-07 14:15:18,0.0
1722.0,-0.16156006,0.0061035156000000005,0.022155762000000002,24.267176,18.473282,-17.274809,2019-09-07 14:15:18,0.0
1723.0,-0.15924072,0.020629883,0.019958496000000003,11.824428,25.977098,4.8702292,2019-09-07 14:15:18,0.0
