measurement,Acc_X,Acc_Y,Acc_Z,Gyr_X,Gyr_Y,Gyr_Z,Time(hh:mm:ss),Label
157.0,-0.049621582000000004,0.009155273,0.12231445,17.282442,-0.122137405,-1.9694656000000004,2019-08-27 19:12:50,5.0
158.0,-0.049621582000000004,0.019836426,0.12445068,24.213741,-3.3587787000000002,-1.7404580000000003,2019-08-27 19:12:50,5.0
159.0,-0.036193848,0.019592285,0.10906982400000001,30.442749,-3.5038167999999996,-1.8931297999999999,2019-08-27 19:12:50,5.0
160.0,-0.04541015599999999,0.037231445,0.12408447,-13.412213000000001,-1.038168,-4.9694657,2019-08-27 19:12:50,5.0
161.0,-0.026733398,0.015808105,0.12652588,-69.21374,21.51145,-0.053435113,2019-08-27 19:12:50,5.0
162.0,-0.052734375,0.008056641,0.13031006,-79.862595,25.068703,-1.2442749,2019-08-27 19:12:50,5.0
163.0,-0.047180176,0.025024414,0.12200928,-72.44275,27.603053999999997,-16.244274,2019-08-27 19:12:50,5.0
164.0,-0.05206299,0.004699707,0.12487793,-100.8855,43.458015,-18.664122,2019-08-27 19:12:50,5.0
165.0,-0.05303955,-0.007690429699999999,0.12084961,-87.70229,35.580154,-18.549618,2019-08-27 19:12:50,5.0
166.0,-0.06524658,-0.0053710938,0.11590576,-85.96947,26.931296999999997,-18.435114000000002,2019-08-27 19:12:50,5.0
167.0,-0.057800292999999996,-0.016967773000000002,0.10668945,-74.908394,19.946566,-16.496183,2019-08-27 19:12:50,5.0
168.0,-0.06604004,-0.023742676,0.11291504,-46.816795,19.91603,-17.076335999999998,2019-08-27 19:12:50,5.0
169.0,-0.06872558599999999,-0.020202637,0.11853027,-55.55725,8.893129,-8.618319999999999,2019-08-27 19:12:50,5.0
170.0,-0.056396484000000004,0.0049438477,0.11907959,-87.91603,5.152672,-10.137404,2019-08-27 19:12:50,5.0
171.0,-0.056030273,-0.029785156,0.09466553,-123.71756,15.625955,-0.610687,2019-08-27 19:12:50,5.0
172.0,-0.057983400000000004,-0.079589844,0.10333252,-71.496185,21.053434,5.114504,2019-08-27 19:12:50,5.0
173.0,-0.051757812,-0.044555664,0.10504150400000001,-14.114504,8.129771,6.0,2019-08-27 19:12:50,5.0
174.0,-0.05291748,-0.017456055,0.109375,-36.969467,6.709923700000001,11.183207000000001,2019-08-27 19:12:50,5.0
175.0,-0.05419922,-0.041137695,0.10479736,-66.51145,14.152672,11.206107000000001,2019-08-27 19:12:50,5.0
176.0,-0.0423584,-0.042297363,0.105285645,-51.84733,21.564885999999998,-1.1374046,2019-08-27 19:12:50,5.0
177.0,-0.04949951,-0.028442382999999998,0.10772705,-65.99235999999999,21.450382,-0.16793893,2019-08-27 19:12:50,5.0
178.0,-0.054138184000000006,-0.046081542999999996,0.09790039,-84.87023,24.839695000000003,-3.1145039,2019-08-27 19:12:50,5.0
179.0,-0.055603027,-0.048583984000000004,0.09338379,-63.62595400000001,17.190839999999998,-12.496183,2019-08-27 19:12:50,5.0
180.0,-0.04876709,-0.06958008,0.09362793,-38.801525,13.480916,-11.954199000000001,2019-08-27 19:12:50,5.0
181.0,-0.053955078,-0.08135986,0.099731445,-6.2290077,10.2213745,-13.847328,2019-08-27 19:12:50,5.0
182.0,-0.055114746,-0.057922363,0.09741211,18.053434,-1.0839695,-12.847328,2019-08-27 19:12:50,5.0
183.0,-0.049987792999999996,-0.06506348,0.0914917,33.587788,5.8625956,-14.465648999999999,2019-08-27 19:12:50,5.0
184.0,-0.049987792999999996,-0.0637207,0.09820557,67.59541999999999,-1.1755725000000001,-14.053435,2019-08-27 19:12:50,5.0
185.0,-0.058776855,-0.046447754,0.106933594,56.18320500000001,2.3053436,-11.160305000000001,2019-08-27 19:12:50,5.0
186.0,-0.06976318,-0.05230713,0.10925293,30.549618,11.160305000000001,-6.2977099999999995,2019-08-27 19:12:50,5.0
187.0,-0.07189941400000001,-0.04699707,0.109191895,33.85496,8.320611,-5.068702,2019-08-27 19:12:50,5.0
188.0,-0.06793213,-0.04333496,0.103393555,29.0,10.358779,-0.89312977,2019-08-27 19:12:50,5.0
189.0,-0.07189941400000001,-0.0435791,0.10449219,34.16794,5.374046,3.1221373,2019-08-27 19:12:50,5.0
190.0,-0.064575195,-0.03643799,0.10656738,23.267176,5.1984735,6.068702,2019-08-27 19:12:50,5.0
191.0,-0.053527832000000004,-0.025695799999999998,0.09564209,12.549619,-3.2671757,7.465648700000001,2019-08-27 19:12:50,5.0
192.0,-0.053894042999999996,-0.032043457000000004,0.107421875,-17.786259,3.5190839999999994,6.2061067,2019-08-27 19:12:50,5.0
193.0,-0.054382324,-0.028137207,0.11108398400000001,-29.091602,5.9389315,1.6793894,2019-08-27 19:12:50,5.0
194.0,-0.04937744,-0.03314209,0.09857178,-37.618320000000004,8.374044999999999,-1.8549619,2019-08-27 19:12:50,5.0
195.0,-0.053771973,-0.036621094,0.10626221,-29.465649,7.29771,-5.9541984,2019-08-27 19:12:50,5.0
196.0,-0.051330565999999994,-0.050231934000000006,0.10406494,-23.48855,11.335877,-9.80916,2019-08-27 19:12:51,5.0
197.0,-0.048217773,-0.046325684000000006,0.10748291,-6.6106872999999995,6.3129773,-13.931297,2019-08-27 19:12:51,5.0
198.0,-0.050476074,-0.0435791,0.10461426,-11.137404,5.4198474999999995,-10.511451,2019-08-27 19:12:51,5.0
199.0,-0.048461914,-0.034729004,0.10577392599999999,-36.15267,8.290076,-6.5801525,2019-08-27 19:12:51,5.0
200.0,-0.059753417999999996,-0.059692382999999995,0.10180664,-14.290076000000001,8.839694999999999,-8.694656,2019-08-27 19:12:51,5.0
201.0,-0.064453125,-0.043151855,0.10858154,-6.442748,4.9923663000000005,-11.824428,2019-08-27 19:12:51,5.0
202.0,-0.057983400000000004,-0.029296875,0.10809326,-17.183207,4.2824425999999995,-11.618319999999999,2019-08-27 19:12:51,5.0
203.0,-0.06512451,-0.04437256,0.1015625,-30.305344,5.442748,-13.358779,2019-08-27 19:12:51,5.0
204.0,-0.06085205,-0.051818848,0.10601807,-25.450382,7.10687,-12.938931,2019-08-27 19:12:51,5.0
205.0,-0.05267334,-0.03643799,0.09667969,-25.12977,7.0152674,-14.38168,2019-08-27 19:12:51,5.0
206.0,-0.059326172,-0.05322265599999999,0.10278319999999999,-29.625953999999997,8.198473,-13.259541500000001,2019-08-27 19:12:51,5.0
207.0,-0.06500244,-0.059387207000000004,0.10778808599999999,-24.862595000000002,10.595419999999999,-12.603053,2019-08-27 19:12:51,5.0
208.0,-0.053833007999999995,-0.04876709,0.09625244,-28.32061,7.969465700000001,-8.603053,2019-08-27 19:12:51,5.0
209.0,-0.070495605,-0.06262207,0.09777832,-19.06107,10.045800999999999,-9.748092,2019-08-27 19:12:51,5.0
210.0,-0.056762695,-0.046325684000000006,0.10412598,-22.885496,7.3816795,-7.3893127000000005,2019-08-27 19:12:51,5.0
211.0,-0.055541992000000005,-0.045776367000000005,0.10284424,-39.885498,10.427481,-5.633588,2019-08-27 19:12:51,5.0
212.0,-0.06518555,-0.07043457,0.08654785,-48.076336,16.450382,-4.9389315,2019-08-27 19:12:51,5.0
213.0,-0.0637207,-0.06359863,0.09906006,-27.404581,8.625955000000001,-5.633588,2019-08-27 19:12:51,5.0
214.0,-0.058532715,-0.070373535,0.10021973,-28.48855,10.458015,-4.3587785000000006,2019-08-27 19:12:51,5.0
215.0,-0.05615234400000001,-0.052368164,0.09765625,-25.839695000000003,11.076336,-4.809159999999999,2019-08-27 19:12:51,5.0
216.0,-0.05065918,-0.06439209,0.09735107400000001,-19.045801,10.687023,-5.625954,2019-08-27 19:12:51,5.0
217.0,-0.057556152,-0.084472656,0.09741211,-12.038167999999999,8.19084,-4.2137402999999996,2019-08-27 19:12:51,5.0
218.0,-0.054626465,-0.06103515599999999,0.099487305,-0.14503817,1.6335878000000001,-2.3740457999999998,2019-08-27 19:12:51,5.0
219.0,-0.06005859400000001,-0.064453125,0.09698486,0.45038167,2.7175572,-1.5648855,2019-08-27 19:12:51,5.0
220.0,-0.05682373,-0.05834961,0.10357666,-7.656488400000001,3.1526718,-1.7099236,2019-08-27 19:12:51,5.0
221.0,-0.050476074,-0.06549072,0.09796142599999999,-24.824427,9.358779,1.038168,2019-08-27 19:12:51,5.0
222.0,-0.06628418,-0.076049805,0.08764648400000001,-21.022902,5.114504,1.1984733,2019-08-27 19:12:51,5.0
223.0,-0.047607422,-0.07324219,0.08734131,-8.923664,-3.1221373,0.610687,2019-08-27 19:12:51,5.0
224.0,-0.055725098,-0.064575195,0.09625244,1.7862595000000001,-3.70229,-1.4198473999999999,2019-08-27 19:12:51,5.0
225.0,-0.05053711,-0.061279297,0.10253906,3.4885497,-3.0152671000000004,-4.908396700000001,2019-08-27 19:12:51,5.0
226.0,-0.05682373,-0.06713867,0.09722900400000001,1.5267175,-1.0458015,-4.778626,2019-08-27 19:12:51,5.0
227.0,-0.05596924,-0.047729492000000005,0.09686279,-7.221374000000001,2.3969467,-5.2977099999999995,2019-08-27 19:12:51,5.0
228.0,-0.043884277,-0.05340576,0.09991455,-7.709923700000001,5.366412,-1.6259542,2019-08-27 19:12:51,5.0
229.0,-0.052001953,-0.07086182,0.10882568,0.35877863,8.916031,-0.06870229,2019-08-27 19:12:51,5.0
230.0,-0.04864502,-0.06036377,0.09716797,-19.595419,12.954199000000001,-0.4427481,2019-08-27 19:12:52,5.0
231.0,-0.054260254,-0.07373047,0.10095215,-12.732824,8.030535,4.190840000000001,2019-08-27 19:12:52,5.0
232.0,-0.06109619,-0.07720947,0.10235596,11.832061,5.1374044,7.091603299999999,2019-08-27 19:12:52,5.0
233.0,-0.062683105,-0.046142578,0.10198974599999999,23.854961,4.2748094000000005,5.442748,2019-08-27 19:12:52,5.0
234.0,-0.064331055,-0.050354004,0.09820557,-4.366412,-3.4580152,11.236641,2019-08-27 19:12:52,5.0
235.0,-0.037902832000000004,-0.039489746,0.10394287,-29.358778000000004,2.2366412,6.0992365,2019-08-27 19:12:52,5.0
236.0,-0.048828125,-0.046875,0.10650635,-19.290077,0.41221374,1.0839695,2019-08-27 19:12:52,5.0
237.0,-0.04168701,-0.041503906,0.11810303,-14.625955,1.5648855,-7.2519083,2019-08-27 19:12:52,5.0
238.0,-0.054382324,-0.041748047,0.12237549,-35.450382,8.946565,-7.3206105,2019-08-27 19:12:52,5.0
239.0,-0.0637207,-0.06719971,0.11022949,-57.938930000000006,17.709923,-4.221374,2019-08-27 19:12:52,5.0
240.0,-0.058288574,-0.056884765999999996,0.0847168,-57.458015,14.923664000000002,-7.068702,2019-08-27 19:12:52,5.0
241.0,-0.05407715,-0.09216308599999999,0.08868408,-22.343512,17.206106,-9.007633,2019-08-27 19:12:52,5.0
242.0,-0.031188965,-0.10314941400000001,0.10876465,57.984733999999996,19.91603,-13.793892999999999,2019-08-27 19:12:52,5.0
243.0,-0.036376953,-0.08117676,0.10467529,97.496185,25.366413,-10.633588,2019-08-27 19:12:52,5.0
244.0,-0.04498291,-0.06469726599999999,0.10516357400000001,76.458015,36.381679999999996,-10.2595415,2019-08-27 19:12:52,5.0
245.0,-0.03894043,-0.054748535,0.10241699,60.78626,36.17557,-12.839694999999999,2019-08-27 19:12:52,5.0
246.0,-0.04321289,-0.04699707,0.103393555,39.427483,44.267174,-16.89313,2019-08-27 19:12:52,5.0
247.0,-0.038757323999999996,-0.04534912,0.09820557,49.045803,46.496179999999995,-24.221375,2019-08-27 19:12:52,5.0
248.0,-0.049987792999999996,-0.049560547,0.09722900400000001,65.25954399999999,45.312977000000004,-31.343512,2019-08-27 19:12:52,5.0
249.0,-0.055541992000000005,-0.055480957000000004,0.09124756,95.0,41.015266,-41.015266,2019-08-27 19:12:52,5.0
250.0,-0.06500244,-0.042785645,0.088378906,106.32825,34.923664,-51.08397,2019-08-27 19:12:52,5.0
251.0,-0.05895996,-0.028137207,0.08892822,89.67939,29.435114000000002,-56.679390000000005,2019-08-27 19:12:52,5.0
252.0,-0.047729492000000005,-0.027160645,0.09924316400000001,63.64122,33.496179999999995,-61.312977000000004,2019-08-27 19:12:52,5.0
253.0,-0.058776855,-0.037353516,0.10534668,43.160305,43.076336,-67.0,2019-08-27 19:12:52,5.0
254.0,-0.04650879,-0.043884277,0.09857178,57.267174,39.53435,-72.70229,2019-08-27 19:12:52,5.0
255.0,-0.059326172,-0.05242919999999999,0.10003662,79.778625,37.427483,-76.41984599999999,2019-08-27 19:12:52,5.0
256.0,-0.06427002,-0.049804688,0.08953857400000001,109.137405,31.122137,-86.19084000000001,2019-08-27 19:12:52,5.0
257.0,-0.060424805,-0.022277832,0.10083008,123.9542,23.06107,-89.83206,2019-08-27 19:12:52,5.0
258.0,-0.07147217,-0.009033203,0.086120605,85.68701999999999,19.236639999999998,-90.36641,2019-08-27 19:12:52,5.0
259.0,-0.06744385,-0.014343261999999999,0.10424805,52.77099200000001,22.625954,-88.39695,2019-08-27 19:12:52,5.0
260.0,-0.07965088,-0.038635254,0.0960083,36.687022999999996,26.694656,-81.19084000000001,2019-08-27 19:12:52,5.0
261.0,-0.07281494,-0.03881836,0.10168457,51.82443,18.244274,-72.34351,2019-08-27 19:12:52,5.0
262.0,-0.07983398400000001,-0.01574707,0.08813476599999999,24.305344,13.992367000000002,-62.81679499999999,2019-08-27 19:12:52,5.0
263.0,-0.08642578,-0.038513184,0.09100342,-9.969465,17.229008,-55.893130000000006,2019-08-27 19:12:52,5.0
264.0,-0.08013916,-0.04711914,0.08581543,-18.702289999999998,18.839695000000003,-43.137405,2019-08-27 19:12:53,5.0
265.0,-0.074157715,-0.041625977,0.0949707,-20.053434,14.076335999999998,-33.198475,2019-08-27 19:12:53,5.0
266.0,-0.079589844,-0.035461426000000004,0.09014892599999999,-27.778625,11.78626,-26.08397,2019-08-27 19:12:53,5.0
267.0,-0.08001709,-0.03741455,0.09649658,-36.351147,8.564885,-18.473282,2019-08-27 19:12:53,5.0
268.0,-0.09967041,-0.042419434000000006,0.11071777,-32.618320000000004,8.473283,-6.3206105,2019-08-27 19:12:53,5.0
269.0,-0.078308105,-0.040649414,0.11407471,-6.931298,-22.809160000000002,-0.40458015,2019-08-27 19:12:53,5.0
270.0,-0.056518555,-0.027770996000000003,0.09887695,2.7633588,-7.5038165999999995,-3.534351,2019-08-27 19:12:53,5.0
271.0,-0.080566406,-0.037902832000000004,0.10284424,-22.839695000000003,8.274809,-2.8625952999999997,2019-08-27 19:12:53,5.0
272.0,-0.074401855,-0.050048828,0.11419678,-15.473282999999999,3.2519082999999998,-8.702291,2019-08-27 19:12:53,5.0
273.0,-0.066223145,-0.029846191,0.122924805,-6.5114503,7.2824425999999995,-7.7557254,2019-08-27 19:12:53,5.0
274.0,-0.064331055,-0.022949219,0.11376953,-17.801527,9.267176,-7.862595599999999,2019-08-27 19:12:53,5.0
275.0,-0.056762695,-0.036743164,0.10125732400000001,-32.587788,10.610686999999999,-8.480916,2019-08-27 19:12:53,5.0
276.0,-0.059448242000000005,-0.0390625,0.10095215,-31.549618,11.519084,-8.343511999999999,2019-08-27 19:12:53,5.0
277.0,-0.06390381,-0.03375244,0.10327148400000001,-33.21374,11.893129,-8.053435,2019-08-27 19:12:53,5.0
278.0,-0.0725708,-0.039245605,0.11047363,-30.473282,10.954199000000001,-7.1984735,2019-08-27 19:12:53,5.0
279.0,-0.06988525400000001,-0.046936035,0.10144043,-25.389313,11.473283,-8.465649,2019-08-27 19:12:53,5.0
280.0,-0.061401367000000005,-0.052124023,0.10626221,-14.694656,8.137404,-7.603053599999999,2019-08-27 19:12:53,5.0
281.0,-0.06085205,-0.047851562,0.10906982400000001,-7.6412214999999994,7.152672,-6.0992365,2019-08-27 19:12:53,5.0
282.0,-0.07489014,-0.05517578,0.10644531,8.557252,6.70229,-5.3206105,2019-08-27 19:12:53,5.0
283.0,-0.07220459,-0.049682617000000005,0.10357666,14.946565,11.045800999999999,-7.7557254,2019-08-27 19:12:53,5.0
284.0,-0.06713867,-0.043945312,0.10369873,24.51145,11.450381,-6.1297708,2019-08-27 19:12:53,5.0
285.0,-0.08099365,-0.05230713,0.08972168,48.870228000000004,12.702291,-12.129771,2019-08-27 19:12:53,5.0
286.0,-0.080200195,-0.030395507999999998,0.09527588,81.8855,3.6106870000000004,-16.732824,2019-08-27 19:12:53,5.0
287.0,-0.07141113,-0.014953613000000001,0.095581055,77.05344000000001,11.160305000000001,-27.717558,2019-08-27 19:12:53,5.0
288.0,-0.06774902,-0.022583007999999998,0.091918945,55.37404599999999,10.946565,-34.946564,2019-08-27 19:12:53,5.0
289.0,-0.07000732400000001,-0.012451172,0.07318115,53.64122,7.4503818,-35.74046,2019-08-27 19:12:53,5.0
290.0,-0.06451416,-0.0044555664,0.09942627,27.274809,-21.068703,-18.93893,2019-08-27 19:12:53,5.0
291.0,-0.05078125,-0.0020141601999999997,0.11755371,0.14503817,-20.946566,-13.480916,2019-08-27 19:12:53,5.0
292.0,-0.04876709,-0.011962891000000002,0.10748291,-18.908398000000002,-18.007633,-14.549619,2019-08-27 19:12:53,5.0
293.0,-0.055725098,-0.03173828,0.10925293,-23.480917,-21.732824,-31.053434000000003,2019-08-27 19:12:53,5.0
294.0,-0.02935791,-0.05291748,0.15777588,9.229008,-20.091601999999998,-29.145039,2019-08-27 19:12:53,5.0
295.0,-0.04034424,-0.035461426000000004,0.1149292,49.526720000000005,-15.740458499999999,-25.10687,2019-08-27 19:12:53,5.0
296.0,-0.024719237999999998,0.0063476562,0.10070801,47.671757,-12.748092,-34.160305,2019-08-27 19:12:53,5.0
297.0,-0.033203125,-0.016357422,0.124816895,-5.2900763,15.78626,-26.206106,2019-08-27 19:12:53,5.0
298.0,-0.056640625,-0.02557373,0.10455322,-12.549619,9.587786999999999,-32.526720000000005,2019-08-27 19:12:53,5.0
299.0,-0.04852295,-0.017700195,0.10235596,5.1679387000000006,13.343511999999999,-25.190839999999998,2019-08-27 19:12:53,5.0
300.0,-0.07623291,-0.033081055,0.12084961,33.076336,-4.557252,-18.610687,2019-08-27 19:12:53,5.0
301.0,-0.07281494,-0.022888184,0.11773682,16.229008,-0.610687,-17.87023,2019-08-27 19:12:53,5.0
302.0,-0.06701660000000001,-0.02130127,0.11743164,-3.7099237,2.2442749,-17.412214000000002,2019-08-27 19:12:54,5.0
303.0,-0.06329346,-0.03894043,0.11230469,13.961832000000001,-1.4732825,-22.992367,2019-08-27 19:12:54,5.0
304.0,-0.049987792999999996,-0.016967773000000002,0.11413574,15.526717000000001,-2.6335877999999995,-23.206106,2019-08-27 19:12:54,5.0
305.0,-0.047546387,-0.0119018555,0.12329101599999999,9.9007635,0.3053435,-16.770992,2019-08-27 19:12:54,5.0
306.0,-0.042541504,-0.019836426,0.12243652,4.4656487,-1.2290076,-11.343511999999999,2019-08-27 19:12:54,5.0
307.0,-0.05712890599999999,-0.011474608999999998,0.11065674,-5.0229006,3.0,-8.641221,2019-08-27 19:12:54,5.0
308.0,-0.05267334,0.006042480500000001,0.11999512,-14.732823999999999,5.984732599999999,-6.1297708,2019-08-27 19:12:54,5.0
309.0,-0.04473877,-0.009460449000000001,0.12066650400000001,-12.702291,11.022901,-7.0152674,2019-08-27 19:12:54,5.0
310.0,-0.05065918,-0.016845703,0.10797119,-18.664122,11.633588,-12.870229,2019-08-27 19:12:54,5.0
311.0,-0.053588867000000005,-0.026245117000000002,0.12225342,-28.030534999999997,13.770992000000001,-14.969465,2019-08-27 19:12:54,5.0
312.0,-0.037902832000000004,-0.02911377,0.11462402,-11.030535,11.106871,-13.450381,2019-08-27 19:12:54,5.0
313.0,-0.049072265999999996,-0.022399902000000003,0.10852051,-5.7328243,7.862595599999999,-12.419847500000001,2019-08-27 19:12:54,5.0
314.0,-0.046691895,-0.025939941,0.11328125,2.946565,5.3129773,-10.145039,2019-08-27 19:12:54,5.0
315.0,-0.053833007999999995,-0.014831543,0.11621094,5.038168,2.9541984,-12.694656,2019-08-27 19:12:54,5.0
316.0,-0.037963867000000005,-0.013793945,0.12048339999999998,-9.175572,4.5343513,-11.488549,2019-08-27 19:12:54,5.0
317.0,-0.046875,-0.015014648,0.12054443,-5.068702,3.6412212999999998,-9.244275,2019-08-27 19:12:54,5.0
318.0,-0.05126953,-0.018066406,0.11938476599999999,-19.152672,6.816794,-6.152672,2019-08-27 19:12:54,5.0
319.0,-0.051208496,-0.015136719,0.11376953,-26.206106,13.862596,-3.2824428,2019-08-27 19:12:54,5.0
320.0,-0.048095703,-0.010192871,0.11462402,-36.381679999999996,18.969465,-1.7480916000000002,2019-08-27 19:12:54,5.0
321.0,-0.057495117000000005,-0.027770996000000003,0.12591553,-37.17557,12.145039,-2.870229,2019-08-27 19:12:54,5.0
322.0,-0.055419922,-0.041320800000000005,0.11212158,-14.480916,1.8473282,-4.1984735,2019-08-27 19:12:54,5.0
323.0,-0.04840088,-0.026611327999999997,0.114746094,-7.1221375,2.816794,-3.5572519999999996,2019-08-27 19:12:54,5.0
324.0,-0.057373047,-0.03186035,0.11437988,-2.9312978,3.7480917000000002,-1.610687,2019-08-27 19:12:54,5.0
325.0,-0.051086426,-0.021362305,0.11468506,4.0305343,2.8625952999999997,-2.6259542000000002,2019-08-27 19:12:54,5.0
326.0,-0.050354004,-0.003967285,0.124938965,1.1984733,2.3969467,-2.923664,2019-08-27 19:12:54,5.0
327.0,-0.038635254,-0.016540527,0.11541748,-11.694656,6.9541984,-1.5038168,2019-08-27 19:12:54,5.0
328.0,-0.040039062,-0.022888184,0.11883545,-11.229008,7.0839696,-2.6412212999999998,2019-08-27 19:12:54,5.0
329.0,-0.048034667999999996,-0.024597168,0.11999512,-14.0,4.809159999999999,-0.40458015,2019-08-27 19:12:54,5.0
330.0,-0.049926757999999995,-0.024414062,0.11920166,-2.6259542000000002,2.183206,0.29007635,2019-08-27 19:12:54,5.0
331.0,-0.044006348,-0.021057128999999997,0.123168945,-11.366412,4.473282299999999,3.2137403,2019-08-27 19:12:54,5.0
332.0,-0.053833007999999995,-0.025146484,0.11834717,-13.519084,3.183206,3.1908397999999996,2019-08-27 19:12:54,5.0
333.0,-0.05218506,-0.028930664,0.12042236,-13.374045,5.7557254,1.8931297999999999,2019-08-27 19:12:54,5.0
334.0,-0.051635742000000005,-0.014953613000000001,0.10980224599999999,3.1908397999999996,3.4809160000000006,0.9694656999999999,2019-08-27 19:12:54,5.0
335.0,-0.045532227,-0.022521972999999997,0.10980224599999999,-11.748092,4.343511599999999,-0.66412216,2019-08-27 19:12:54,5.0
336.0,-0.053833007999999995,-0.03778076,0.120910645,-14.511451000000001,5.740458,-0.22900763,2019-08-27 19:12:54,5.0
337.0,-0.03869629,-0.011047363000000001,0.11798096,-5.2977099999999995,2.3587787000000002,-5.7022900000000005,2019-08-27 19:12:54,5.0
338.0,-0.051757812,-0.022644043,0.11279297,-25.641222,9.656488000000001,-7.5267177,2019-08-27 19:12:54,5.0
339.0,-0.05102539,-0.032958984,0.11395264,-28.770992,8.977099,-3.3435113,2019-08-27 19:12:55,5.0
340.0,-0.049133300000000005,-0.03289795,0.11553955,-3.923664,3.1374047000000003,-4.9694657,2019-08-27 19:12:55,5.0
341.0,-0.05596924,-0.018798828,0.117370605,-5.854962,7.374046000000001,-3.8473281999999998,2019-08-27 19:12:55,5.0
342.0,-0.05279541,-0.030456543,0.11987305,-16.122137,4.923664,-2.0152671000000004,2019-08-27 19:12:55,5.0
343.0,-0.04724121,-0.024108887000000002,0.11779785,-9.755725,4.664122,-2.1526718,2019-08-27 19:12:55,5.0
344.0,-0.04815674,-0.032226562,0.10961914,-20.335878,6.0076336999999995,-1.7404580000000003,2019-08-27 19:12:55,5.0
345.0,-0.0435791,-0.03289795,0.11602783,-10.496183,8.824428,-2.5038167999999996,2019-08-27 19:12:55,5.0
346.0,-0.04449463,-0.029296875,0.11608887,-20.137404999999998,9.801527,-2.6335877999999995,2019-08-27 19:12:55,5.0
347.0,-0.04449463,-0.032226562,0.117248535,-21.259542,7.961832000000001,-1.1374046,2019-08-27 19:12:55,5.0
348.0,-0.052734375,-0.027282715,0.11810303,-24.328245000000003,7.0458016,-0.7480916,2019-08-27 19:12:55,5.0
349.0,-0.041992188,-0.03387451,0.10668945,-18.328245000000003,7.7480917,-3.4961832000000004,2019-08-27 19:12:55,5.0
350.0,-0.04083252,-0.02722168,0.11706543,-8.610686999999999,7.0152674,-1.9160305,2019-08-27 19:12:55,5.0
351.0,-0.05328369,-0.036315917999999996,0.11541748,-22.610687,7.076336,-2.0687022,2019-08-27 19:12:55,5.0
352.0,-0.04724121,-0.03338623,0.11029053,-28.687022999999996,12.022901,-3.1526718,2019-08-27 19:12:55,5.0
353.0,-0.05682373,-0.030822753999999997,0.11029053,-25.06107,15.007632999999998,-3.9389312000000007,2019-08-27 19:12:55,5.0
354.0,-0.061462402,-0.035095215,0.11828613,-15.045801,4.053435299999999,-3.5572519999999996,2019-08-27 19:12:55,5.0
355.0,-0.055114746,-0.028442382999999998,0.12121582,-14.496182999999998,5.038168,-0.53435117,2019-08-27 19:12:55,5.0
356.0,-0.044799805,-0.030700684,0.10443115,-20.0,7.0458016,1.2137405,2019-08-27 19:12:55,5.0
357.0,-0.049194336,-0.030212402000000003,0.109558105,-17.167938,8.015267,2.9160306,2019-08-27 19:12:55,5.0
358.0,-0.04833984400000001,-0.03845215,0.11010742,-16.709923,9.946565,-0.41221374,2019-08-27 19:12:55,5.0
359.0,-0.05206299,-0.03173828,0.11169433599999999,-5.221374,7.0610685,1.2824427,2019-08-27 19:12:55,5.0
360.0,-0.039916992000000005,-0.039001465,0.11450195,-7.0534353,12.145039,1.1908396,2019-08-27 19:12:55,5.0
361.0,-0.034057617000000005,-0.043884277,0.119018555,0.97709924,16.480917,2.9389312000000003,2019-08-27 19:12:55,5.0
362.0,-0.055358887,-0.039794922,0.11663818,24.664122,12.458015,5.5419846,2019-08-27 19:12:55,5.0
363.0,-0.05407715,-0.01373291,0.12249756,39.816795,14.61832,2.5877862,2019-08-27 19:12:55,5.0
364.0,-0.046875,-0.02947998,0.12390137,14.374045,9.297709,10.847328,2019-08-27 19:12:55,5.0
365.0,-0.04937744,-0.03375244,0.10876465,7.0229006,17.557251,17.335878,2019-08-27 19:12:55,5.0
366.0,-0.059753417999999996,-0.024963378999999997,0.10980224599999999,13.343511999999999,18.87023,13.053435,2019-08-27 19:12:55,5.0
367.0,-0.05065918,-0.029968262000000002,0.11175537,10.916031,19.809160000000002,18.259542,2019-08-27 19:12:55,5.0
368.0,-0.059020996,-0.021118164,0.1003418,-43.0,21.610687,25.160304999999997,2019-08-27 19:12:55,5.0
369.0,-0.06420898400000001,-0.024902344,0.09490967,-72.35878000000001,18.931297,19.435114000000002,2019-08-27 19:12:55,5.0
370.0,-0.0647583,-0.03656006,0.11193848,-38.78626,5.923664,0.19847329,2019-08-27 19:12:55,5.0
371.0,-0.05859375,-0.036376953,0.13018799,-1.8167938999999997,18.42748,-3.6793892,2019-08-27 19:12:55,5.0
372.0,-0.06518555,-0.02331543,0.13311768,5.847328,7.5038165999999995,-9.648855000000001,2019-08-27 19:12:56,5.0
373.0,-0.064453125,-0.01159668,0.09808349599999999,-35.725190000000005,14.450381,-11.244275,2019-08-27 19:12:56,5.0
374.0,-0.057922363,-0.024658202999999997,0.09625244,-69.54961999999999,24.687023,-5.8702292,2019-08-27 19:12:56,5.0
375.0,-0.059936523,-0.06549072,0.09686279,-48.473279999999995,16.786259,-3.1984732000000005,2019-08-27 19:12:56,5.0
376.0,-0.067871094,-0.042541504,0.1026001,1.1679389999999998,-0.9236641,-0.9847328000000002,2019-08-27 19:12:56,5.0
377.0,-0.05810547,-0.014770508,0.09222412,-16.244274,-3.206107,-1.5419847,2019-08-27 19:12:56,5.0
378.0,-0.057800292999999996,-0.033691406,0.11657715,-49.839695,15.480916,-1.2290076,2019-08-27 19:12:56,5.0
379.0,-0.07330322,-0.03692627,0.11236572,-38.969467,16.801527,1.0839695,2019-08-27 19:12:56,5.0
380.0,-0.053710938,-0.042175292999999996,0.09954834,-25.679389999999998,8.702291,-3.6030532999999996,2019-08-27 19:12:56,5.0
381.0,-0.055603027,-0.03668213,0.103393555,-22.366413,10.969465,-5.328244000000001,2019-08-27 19:12:56,5.0
382.0,-0.06359863,-0.03564453,0.11608887,-10.297709,4.145038,-4.1221375,2019-08-27 19:12:56,5.0
383.0,-0.05065918,-0.045166015999999996,0.10504150400000001,0.8854962,5.763358599999999,-4.587786,2019-08-27 19:12:56,5.0
384.0,-0.059570312,-0.032409667999999996,0.10461426,4.396946400000001,-0.65648854,-3.1221373,2019-08-27 19:12:56,5.0
385.0,-0.05206299,-0.034851073999999996,0.10308838,-16.160304999999997,8.0992365,1.351145,2019-08-27 19:12:56,5.0
386.0,-0.055358887,-0.041870117000000005,0.117126465,-2.7557251,-3.3893129999999996,-0.06870229,2019-08-27 19:12:56,5.0
387.0,-0.05718994,-0.046936035,0.101623535,19.068703,-6.259542,-6.6335880000000005,2019-08-27 19:12:56,5.0
388.0,-0.064331055,-0.016662598,0.10595703,27.786259,-3.6793892,-9.290076,2019-08-27 19:12:56,5.0
389.0,-0.05694580000000001,-0.019165039,0.10839844,-19.450382,13.755725,-6.2519083,2019-08-27 19:12:56,5.0
390.0,-0.052978515999999996,-0.02960205,0.10357666,-16.847328,13.633588,-3.9312977999999994,2019-08-27 19:12:56,5.0
391.0,-0.055603027,-0.04321289,0.10949707,-19.694656,9.801527,-3.5419848,2019-08-27 19:12:56,5.0
392.0,-0.05029297,-0.029174805,0.10827637,-30.625953999999997,10.122137,-3.1908397999999996,2019-08-27 19:12:56,5.0
393.0,-0.058044434000000006,-0.038635254,0.10638428,-46.007633,18.679389999999998,0.6183206,2019-08-27 19:12:56,5.0
394.0,-0.07592773400000001,-0.04663086,0.101623535,-31.725191,16.274809,-1.9847328999999998,2019-08-27 19:12:56,5.0
395.0,-0.0680542,-0.044006348,0.10089111,-29.267176,11.908397,2.6488549999999997,2019-08-27 19:12:56,5.0
396.0,-0.06628418,-0.04736328,0.09234619,-25.145039,13.297709,1.3358778999999998,2019-08-27 19:12:56,5.0
397.0,-0.063964844,-0.05090332,0.10504150400000001,-6.526717700000001,3.0839694,-2.091603,2019-08-27 19:12:56,5.0
398.0,-0.06567383,-0.037109375,0.10424805,-6.145038,8.984733,-0.97709924,2019-08-27 19:12:56,5.0
399.0,-0.06225586,-0.045166015999999996,0.10626221,-11.19084,5.9694657,-0.519084,2019-08-27 19:12:56,5.0
400.0,-0.059448242000000005,-0.04833984400000001,0.09924316400000001,-11.022901,-0.061068702,-0.35877863,2019-08-27 19:12:56,5.0
401.0,-0.06549072,-0.060791015999999996,0.10736084,-4.442748,-0.29007635,-5.2900763,2019-08-27 19:12:56,5.0
402.0,-0.057861328,-0.039001465,0.103637695,20.961832,-11.618319999999999,-7.0534353,2019-08-27 19:12:56,5.0
403.0,-0.052368164,-0.028747559,0.10473633,-0.14503817,3.3969467000000004,1.389313,2019-08-27 19:12:56,5.0
404.0,-0.060668945,-0.03564453,0.10546875,-24.076335999999998,10.519084,-1.4961832,2019-08-27 19:12:56,5.0
405.0,-0.0637207,-0.03491211,0.10723877,-16.946566,7.328244000000001,-3.091603,2019-08-27 19:12:56,5.0
406.0,-0.05316162,-0.03869629,0.105285645,-26.80916,8.419847500000001,-4.2748094000000005,2019-08-27 19:12:56,5.0
407.0,-0.05621338,-0.042663574,0.10595703,-42.618320000000004,14.862596,-5.778626,2019-08-27 19:12:56,5.0
408.0,-0.05328369,-0.04888916,0.09637451,-35.160305,13.870229,-5.2137402999999996,2019-08-27 19:12:56,5.0
409.0,-0.056884765999999996,-0.04534912,0.09838867,-36.679390000000005,15.885496,-6.9160304,2019-08-27 19:12:57,5.0
410.0,-0.061706542999999996,-0.057800292999999996,0.103637695,-34.053436,13.40458,-4.236641400000001,2019-08-27 19:12:57,5.0
411.0,-0.061645507999999995,-0.060546875,0.09161377,-13.664123000000002,7.7328243,-1.4503816,2019-08-27 19:12:57,5.0
412.0,-0.07086182,-0.055358887,0.09649658,3.1068702,5.6946564,0.16793893,2019-08-27 19:12:57,5.0
413.0,-0.05419922,-0.042785645,0.105651855,7.2671757,4.1984735,-3.5572519999999996,2019-08-27 19:12:57,5.0
414.0,-0.059265137,-0.041503906,0.10461426,-16.61832,5.809159999999999,-5.6106873,2019-08-27 19:12:57,5.0
415.0,-0.07702637,-0.05078125,0.10534668,-13.961832000000001,6.778625999999999,-4.259542,2019-08-27 19:12:57,5.0
416.0,-0.06719971,-0.06500244,0.09631348,25.305344,1.0992366000000002,-5.328244000000001,2019-08-27 19:12:57,5.0
417.0,-0.059265137,-0.054626465,0.10675049,43.595420000000004,-8.175572,-12.038167999999999,2019-08-27 19:12:57,5.0
418.0,-0.053100586,-0.03173828,0.1026001,9.816792999999999,8.595419999999999,-4.0152674,2019-08-27 19:12:57,5.0
419.0,-0.057556152,-0.03930664,0.10675049,-7.0458016,10.641221,-1.6717557,2019-08-27 19:12:57,5.0
420.0,-0.05102539,-0.035095215,0.10345459,3.8854961,6.076336,-1.8167938999999997,2019-08-27 19:12:57,5.0
421.0,-0.054992676,-0.030456543,0.104003906,-25.122137,11.244275,-3.129771,2019-08-27 19:12:57,5.0
422.0,-0.05987549,-0.034851073999999996,0.10357666,-40.87786,13.366412,-2.0305343000000002,2019-08-27 19:12:57,5.0
423.0,-0.061584473,-0.042663574,0.104003906,-28.580153000000003,5.9770994,-4.854962,2019-08-27 19:12:57,5.0
424.0,-0.06677246,-0.048095703,0.10327148400000001,-18.221375,9.969465,-4.4961834000000005,2019-08-27 19:12:57,5.0
425.0,-0.06274414,-0.056396484000000004,0.10021973,-20.557251,9.931297,-3.4427480000000004,2019-08-27 19:12:57,5.0
426.0,-0.06756592,-0.045288086,0.10070801,-18.824427,8.679389,-1.2748091000000001,2019-08-27 19:12:57,5.0
427.0,-0.059814453,-0.051696777,0.09753418,-13.916031,7.2824425999999995,-1.9694656000000004,2019-08-27 19:12:57,5.0
428.0,-0.052612305,-0.054382324,0.10388183599999999,-8.015267,4.1755724,0.89312977,2019-08-27 19:12:57,5.0
429.0,-0.063964844,-0.04949951,0.10839844,1.5496184,3.9389312000000007,-1.1526718,2019-08-27 19:12:57,5.0
430.0,-0.06262207,-0.057739257999999995,0.10449219,-6.152672,-6.519083999999999,-8.374044999999999,2019-08-27 19:12:57,5.0
431.0,-0.055114746,-0.061462402,0.10546875,-8.633588,6.931298,-4.8702292,2019-08-27 19:12:57,5.0
432.0,-0.06536865,-0.057556152,0.09899902,-9.534351,7.4351144,-0.77099234,2019-08-27 19:12:57,5.0
433.0,-0.06341553,-0.04272461,0.09881592,-6.7480917,4.183206,-3.1221373,2019-08-27 19:12:57,5.0
434.0,-0.059326172,-0.037902832000000004,0.1015625,-4.2519083,5.8702292,-2.2137403,2019-08-27 19:12:57,5.0
435.0,-0.057861328,-0.053710938,0.101623535,5.8396945,3.1221373,-2.1068702,2019-08-27 19:12:57,5.0
436.0,-0.05987549,-0.039611816,0.09802246,-3.2366412,6.2290077,-2.9541984,2019-08-27 19:12:57,5.0
437.0,-0.060546875,-0.05303955,0.10119629,-12.015267,9.381680000000001,-2.3816792999999996,2019-08-27 19:12:57,5.0
438.0,-0.054748535,-0.047790527,0.10040283,3.5877862,6.076336,-3.0458016,2019-08-27 19:12:57,5.0
439.0,-0.06542969,-0.04699707,0.09698486,-2.427481,8.969465,-1.5954198999999998,2019-08-27 19:12:57,5.0
440.0,-0.06427002,-0.045043945,0.09832764,-5.2748094000000005,7.3816795,-0.9389313,2019-08-27 19:12:57,5.0
441.0,-0.061523438,-0.04864502,0.095703125,-8.282442999999999,8.297709,-2.6488549999999997,2019-08-27 19:12:57,5.0
442.0,-0.06237793,-0.041870117000000005,0.10223389,-9.458015,7.6183205,-2.9389312000000003,2019-08-27 19:12:58,5.0
443.0,-0.06542969,-0.051330565999999994,0.09741211,-15.564885,11.076336,-0.86259544,2019-08-27 19:12:58,5.0
444.0,-0.062438965,-0.045288086,0.10656738,-10.984733,7.465648700000001,-2.7099237,2019-08-27 19:12:58,5.0
445.0,-0.060302734000000004,-0.044067382999999995,0.10314941400000001,-20.190839999999998,7.8320612999999994,0.16793893,2019-08-27 19:12:58,5.0
446.0,-0.060546875,-0.050476074,0.09210205,-13.526717000000001,5.9923663000000005,0.27480915,2019-08-27 19:12:58,5.0
447.0,-0.06878662,-0.049865723,0.09362793,1.0458015,-3.5419848,-6.4274807,2019-08-27 19:12:58,5.0
448.0,-0.06109619,-0.04046631,0.09472656,-8.305344,3.4122138,-4.335878,2019-08-27 19:12:58,5.0
449.0,-0.0546875,-0.047058105,0.10327148400000001,-14.435115,9.954199000000001,-2.7328243,2019-08-27 19:12:58,5.0
450.0,-0.06036377,-0.04815674,0.10296631,-10.908397,7.236641400000001,-2.923664,2019-08-27 19:12:58,5.0
451.0,-0.05694580000000001,-0.05731201,0.10614014,-9.687023,6.4351144,-3.8244274,2019-08-27 19:12:58,5.0
452.0,-0.05505371,-0.05883789,0.10095215,3.8931297999999996,2.2366412,-1.1526718,2019-08-27 19:12:58,5.0
453.0,-0.06280517599999999,-0.039245605,0.105407715,-12.312977,11.328244,-2.7404580000000003,2019-08-27 19:12:58,5.0
454.0,-0.06292724599999999,-0.052368164,0.096191406,-3.7175572,-3.167939,-7.7328243,2019-08-27 19:12:58,5.0
455.0,-0.052856445,-0.047424315999999994,0.09796142599999999,-1.4427481000000002,2.8091602000000004,-5.473282299999999,2019-08-27 19:12:58,5.0
456.0,-0.06762695,-0.045166015999999996,0.09967041,-9.343511999999999,10.511451,-1.2061069,2019-08-27 19:12:58,5.0
457.0,-0.055480957000000004,-0.038635254,0.09838867,-6.8778625,3.9541983999999997,-3.5038167999999996,2019-08-27 19:12:58,5.0
458.0,-0.06707764,-0.053710938,0.09820557,-15.015267000000001,8.78626,-2.4122138,2019-08-27 19:12:58,5.0
459.0,-0.06304932,-0.049194336,0.09918213,1.6259542,3.70229,1.0763359,2019-08-27 19:12:58,5.0
460.0,-0.07055664,-0.04724121,0.10357666,-6.89313,5.442748,0.610687,2019-08-27 19:12:58,5.0
461.0,-0.057006836,-0.0423584,0.09106445,-12.839694999999999,10.595419999999999,-0.41984734,2019-08-27 19:12:58,5.0
462.0,-0.06994629,-0.05328369,0.09472656,-10.564885,7.862595599999999,-0.8091603,2019-08-27 19:12:58,5.0
463.0,-0.05847168,-0.052612305,0.10650635,-9.526717,7.3129773,-0.03816794,2019-08-27 19:12:58,5.0
464.0,-0.059143065999999994,-0.036743164,0.09716797,-6.6412214999999994,6.9541984,-0.8015267,2019-08-27 19:12:58,5.0
465.0,-0.06890869,-0.050354004,0.09692383,-15.0992365,7.6870227,-1.5343511,2019-08-27 19:12:58,5.0
466.0,-0.072387695,-0.05670166,0.10040283,-13.267176000000001,7.40458,-3.3206108,2019-08-27 19:12:58,5.0
467.0,-0.05999756,-0.06103515599999999,0.09991455,-7.9847326,7.8015265,-2.3740457999999998,2019-08-27 19:12:58,5.0
468.0,-0.062316895,-0.03967285,0.101623535,1.7557251,3.908397,-4.5343513,2019-08-27 19:12:58,5.0
469.0,-0.06280517599999999,-0.059631348,0.09735107400000001,-12.450381,9.648855000000001,-7.763358599999999,2019-08-27 19:12:58,5.0
470.0,-0.05657959,-0.053344727,0.09649658,6.366412,7.412214,-9.488549,2019-08-27 19:12:58,5.0
471.0,-0.05444336,-0.04711914,0.0949707,4.183206,8.748092,-3.8625953,2019-08-27 19:12:58,5.0
472.0,-0.06378174,-0.041320800000000005,0.09454346,-2.572519,3.908397,-2.534351,2019-08-27 19:12:58,5.0
473.0,-0.059020996,-0.051635742000000005,0.10577392599999999,-2.4503817999999997,0.22137405,-3.534351,2019-08-27 19:12:58,5.0
474.0,-0.05908203,-0.03778076,0.103393555,-8.893129,4.7099237,-3.7099237,2019-08-27 19:12:58,5.0
475.0,-0.06542969,-0.050720215,0.09906006,-19.755726,7.2824425999999995,0.90839696,2019-08-27 19:12:58,5.0
476.0,-0.06341553,-0.053710938,0.09503174,-17.160304999999997,3.908397,2.4961832000000004,2019-08-27 19:12:58,5.0
477.0,-0.05480957,-0.059753417999999996,0.100097656,-7.6106872999999995,4.335878,0.007633588,2019-08-27 19:12:58,5.0
478.0,-0.06365967,-0.051391599999999996,0.10015869,5.2290077,0.03816794,-6.2519083,2019-08-27 19:12:58,5.0
479.0,-0.06683349599999999,-0.04901123,0.103393555,3.3740457999999998,1.8854961,-7.7862597000000004,2019-08-27 19:12:58,5.0
480.0,-0.061401367000000005,-0.04949951,0.09735107400000001,22.541985,4.374046,-7.40458,2019-08-27 19:12:59,5.0
481.0,-0.050476074,-0.030639648,0.10467529,28.29771,1.1221374,-10.236641,2019-08-27 19:12:59,5.0
482.0,-0.055419922,-0.031921387,0.10485839999999998,3.923664,9.0992365,-5.4351144,2019-08-27 19:12:59,5.0
483.0,-0.06768799,-0.043151855,0.10913086,-13.832060999999998,9.595419999999999,-6.091603299999999,2019-08-27 19:12:59,5.0
484.0,-0.06213379,-0.04260254,0.10418701,-15.816792999999999,6.2977099999999995,0.18320611,2019-08-27 19:12:59,5.0
485.0,-0.06048584,-0.04736328,0.097717285,-27.435114000000002,9.106871,2.7328243,2019-08-27 19:12:59,5.0
486.0,-0.062072754,-0.055236815999999994,0.09869385,-17.099237,6.664122,2.4885497,2019-08-27 19:12:59,5.0
487.0,-0.060424805,-0.053833007999999995,0.10314941400000001,-13.549619,5.0229006,2.3969467,2019-08-27 19:12:59,5.0
488.0,-0.06591797,-0.047973632999999995,0.104003906,0.10687023,1.1297709999999999,-0.99236643,2019-08-27 19:12:59,5.0
489.0,-0.06384277,-0.041809082000000004,0.100097656,-3.9694656999999998,5.816794,-5.526717700000001,2019-08-27 19:12:59,5.0
490.0,-0.05444336,-0.034118652,0.11260986,-9.503817,6.412214,-3.0458016,2019-08-27 19:12:59,5.0
491.0,-0.059814453,-0.055908203,0.09863281,-24.396946,12.610686999999999,2.1984732000000005,2019-08-27 19:12:59,5.0
492.0,-0.06542969,-0.046203613,0.09429932,-16.969465,7.671755999999999,1.3053435,2019-08-27 19:12:59,5.0
493.0,-0.053771973,-0.04272461,0.09722900400000001,-5.816794,5.152672,-1.0534351,2019-08-27 19:12:59,5.0
494.0,-0.06976318,-0.044067382999999995,0.09674072,-13.862596,8.236641,-0.79389316,2019-08-27 19:12:59,5.0
495.0,-0.062194824,-0.04699707,0.10583496,-18.702289999999998,10.511451,-1.5572518999999998,2019-08-27 19:12:59,5.0
496.0,-0.062072754,-0.04534912,0.09924316400000001,-17.564885999999998,7.778625999999999,-1.5648855,2019-08-27 19:12:59,5.0
497.0,-0.057861328,-0.043518065999999994,0.10229492,-15.473282999999999,7.458015400000001,-0.53435117,2019-08-27 19:12:59,5.0
498.0,-0.059936523,-0.047668457000000004,0.09326172,-24.305344,8.595419999999999,2.4503817999999997,2019-08-27 19:12:59,5.0
499.0,-0.070129395,-0.0423584,0.09606933599999999,-18.732824,9.022901,-0.6488550000000001,2019-08-27 19:12:59,5.0
500.0,-0.06225586,-0.054260254,0.09942627,-20.343512,11.854961,-1.0,2019-08-27 19:12:59,5.0
501.0,-0.07147217,-0.043823242000000005,0.09814453,-21.954199,5.1374044,-4.221374,2019-08-27 19:12:59,5.0
502.0,-0.05670166,-0.050964355,0.101745605,-28.366413,5.442748,-7.8778625,2019-08-27 19:12:59,5.0
503.0,-0.0647583,-0.05999756,0.10229492,-39.015266,13.2213745,-12.389313000000001,2019-08-27 19:12:59,5.0
504.0,-0.07141113,-0.07019043,0.09014892599999999,-19.709923,15.534351000000001,-23.236639999999998,2019-08-27 19:12:59,5.0
505.0,-0.062194824,-0.07897949,0.101745605,15.557251999999998,8.656488000000001,-26.687022999999996,2019-08-27 19:12:59,5.0
506.0,-0.061706542999999996,-0.08276367,0.09875488,70.64886,-5.625954,-24.404581,2019-08-27 19:12:59,5.0
507.0,-0.057006836,-0.050964355,0.091674805,108.51145,-18.396946,-28.19084,2019-08-27 19:12:59,5.0
508.0,-0.049804688,-0.018737793,0.08868408,88.71755999999999,-15.007632999999998,-29.534351,2019-08-27 19:12:59,5.0
509.0,-0.04144287,-0.046936035,0.1161499,75.229004,-21.419847,-56.14504,2019-08-27 19:12:59,5.0
510.0,-0.06573486,-0.017333984,0.10900879,85.05344000000001,5.931298,-17.526718,2019-08-27 19:12:59,5.0
511.0,-0.05267334,-0.006591797,0.109375,71.94655999999999,-8.687023,-25.48855,2019-08-27 19:12:59,5.0
512.0,-0.06274414,0.00390625,0.09637451,20.496183,-10.137404,-22.08397,2019-08-27 19:12:59,5.0
513.0,-0.044006348,-0.032409667999999996,0.12188721,-58.969467,10.534351,-13.78626,2019-08-27 19:12:59,5.0
514.0,-0.052001953,-0.07861328,0.12512207,-44.78626,16.099237,7.328244000000001,2019-08-27 19:13:00,5.0
515.0,-0.05847168,-0.045959473,0.11010742,8.633588,-3.7633588,-4.3893127,2019-08-27 19:13:00,5.0
516.0,-0.0435791,-0.024658202999999997,0.11065674,-5.526717700000001,6.6870227,0.64122134,2019-08-27 19:13:00,5.0
517.0,-0.05328369,-0.038391113,0.11431885,-8.244275,6.6488547,-0.84732825,2019-08-27 19:13:00,5.0
518.0,-0.04541015599999999,-0.028625487999999998,0.10913086,8.9007635,3.2442749,-0.6335878,2019-08-27 19:13:00,5.0
519.0,-0.05041504,-0.027282715,0.11578369,9.526717,-5.816794,-3.206107,2019-08-27 19:13:00,5.0
520.0,-0.04736328,-0.023010253999999997,0.11932373,-0.5114504,-2.0,-1.7480916000000002,2019-08-27 19:13:00,5.0
521.0,-0.049621582000000004,-0.03100586,0.119018555,-11.305344,3.3664122000000005,-0.129771,2019-08-27 19:13:00,5.0
522.0,-0.05444336,-0.0357666,0.12182617,17.503817,1.7862595000000001,-2.221374,2019-08-27 19:13:00,5.0
523.0,-0.055664062,-0.016052246000000003,0.11425781,10.885496,2.6793892,0.3740458,2019-08-27 19:13:00,5.0
524.0,-0.05419922,-0.01776123,0.11773682,-5.8320612999999994,6.80916,0.38931298,2019-08-27 19:13:00,5.0
525.0,-0.054626465,-0.0178833,0.12078857400000001,-15.045801,5.221374,-2.2748091,2019-08-27 19:13:00,5.0
526.0,-0.050048828,-0.024963378999999997,0.11383057,-10.167939,13.725191,-0.21374045,2019-08-27 19:13:00,5.0
527.0,-0.04711914,-0.030334472999999997,0.113464355,-9.648855000000001,8.694656,-3.5114503,2019-08-27 19:13:00,5.0
528.0,-0.055358887,-0.034362792999999996,0.107910156,-14.427481,4.1221375,-4.4580154,2019-08-27 19:13:00,5.0
529.0,-0.05029297,-0.03265381,0.113464355,-9.610686999999999,3.5648854,-4.1374044,2019-08-27 19:13:00,5.0
530.0,-0.04510498,-0.022094727,0.1239624,-0.71755725,4.335878,-5.053435299999999,2019-08-27 19:13:00,5.0
531.0,-0.046691895,-0.018005371000000003,0.12060547,-8.328244,6.2900763,-3.3282442000000003,2019-08-27 19:13:00,5.0
532.0,-0.053588867000000005,-0.020690918,0.11602783,-7.70229,9.076336,-3.3206108,2019-08-27 19:13:00,5.0
533.0,-0.051879882999999995,-0.02935791,0.11010742,-8.687023,6.2290077,-2.2290077,2019-08-27 19:13:00,5.0
534.0,-0.05267334,-0.030029297000000003,0.11267089999999998,-14.40458,6.6870227,-2.557252,2019-08-27 19:13:00,5.0
535.0,-0.04937744,-0.032165527,0.11468506,-10.358779,6.2900763,-4.664122,2019-08-27 19:13:00,5.0
536.0,-0.046813965,-0.026916503999999997,0.11602783,-6.7709923,8.885496,-5.152672,2019-08-27 19:13:00,5.0
537.0,-0.04638672,-0.024291992000000002,0.12078857400000001,-1.1526718,6.923664,-3.1450381000000003,2019-08-27 19:13:00,5.0
538.0,-0.047607422,-0.02355957,0.12231445,-4.4961834000000005,3.0687022,-2.832061,2019-08-27 19:13:00,5.0
539.0,-0.050598145,-0.039733887,0.11291504,-4.328244000000001,6.0229006,0.21374045,2019-08-27 19:13:00,5.0
540.0,-0.04711914,-0.015625,0.11596680000000001,-0.015267176,4.2977099999999995,-0.99236643,2019-08-27 19:13:00,5.0
541.0,-0.05432129,-0.029418945,0.10461426,-5.068702,4.412214,-0.519084,2019-08-27 19:13:00,5.0
542.0,-0.057006836,-0.027954102,0.11651611,6.0610685,9.374044999999999,0.47328246,2019-08-27 19:13:00,5.0
543.0,-0.048217773,-0.024902344,0.11853027,5.6106873,2.7251909,-0.6946565,2019-08-27 19:13:00,5.0
544.0,-0.04522705,-0.020202637,0.11273193,-0.86259544,2.4122138,-2.4045799999999997,2019-08-27 19:13:00,5.0
545.0,-0.05029297,-0.022094727,0.11883545,1.1755725000000001,4.6183205,-3.7480917000000002,2019-08-27 19:13:00,5.0
546.0,-0.047668457000000004,-0.01940918,0.11877441400000001,-5.961832,5.480916000000001,-3.9389312000000007,2019-08-27 19:13:00,5.0
547.0,-0.054992676,-0.030029297000000003,0.1182251,-5.190840000000001,3.4198472,-5.9007635,2019-08-27 19:13:00,5.0
548.0,-0.059814453,-0.02746582,0.115356445,-0.47328246,4.6106873,-1.259542,2019-08-27 19:13:00,5.0
549.0,-0.050842285,-0.018981934,0.11529541,-2.7251909,4.2748094000000005,-2.221374,2019-08-27 19:13:00,5.0
550.0,-0.046813965,-0.024780273,0.117004395,-12.320611,6.2900763,-2.908397,2019-08-27 19:13:00,5.0
551.0,-0.05444336,-0.024902344,0.11566162,-11.183207000000001,8.2595415,-2.572519,2019-08-27 19:13:00,5.0
552.0,-0.058898926,-0.01776123,0.11810303,-12.770992,7.816794,-2.870229,2019-08-27 19:13:00,5.0
553.0,-0.055236815999999994,-0.028076172000000003,0.11810303,-6.2748094000000005,5.946564700000001,-1.2977100000000001,2019-08-27 19:13:01,5.0
554.0,-0.047973632999999995,-0.023498535,0.11456299,-2.6335877999999995,4.366412,-2.0839694,2019-08-27 19:13:01,5.0
555.0,-0.06298828,-0.018859863,0.121276855,-6.6793895,7.19084,-2.4885497,2019-08-27 19:13:01,5.0
556.0,-0.049743652,-0.040283203,0.11694336,-6.9770994,5.9923663000000005,-2.9541984,2019-08-27 19:13:01,5.0
557.0,-0.054504395,-0.024169922000000003,0.1171875,-8.923664,4.8015265,-4.1297708,2019-08-27 19:13:01,5.0
558.0,-0.05407715,-0.014892578,0.11627197,-11.076336,4.816794,-4.0,2019-08-27 19:13:01,5.0
559.0,-0.057861328,-0.026123047000000003,0.11859131,-7.183206,8.519084,-4.9923663000000005,2019-08-27 19:13:01,5.0
560.0,-0.055480957000000004,-0.018920898000000002,0.11657715,-3.4198472,5.5648856,-3.3893129999999996,2019-08-27 19:13:01,5.0
561.0,-0.05621338,-0.023010253999999997,0.11315918,-7.5801525,8.274809,-3.6106870000000004,2019-08-27 19:13:01,5.0
562.0,-0.039978027,-0.031921387,0.11230469,-8.343511999999999,8.198473,-1.8778626,2019-08-27 19:13:01,5.0
563.0,-0.053833007999999995,-0.01977539,0.11907959,-1.3664121999999999,4.4580154,-1.1603054,2019-08-27 19:13:01,5.0
564.0,-0.04937744,-0.024719237999999998,0.11138916,2.9770992,2.8549618999999997,-1.5877863,2019-08-27 19:13:01,5.0
565.0,-0.047302246,-0.02709961,0.12121582,0.8854962,-4.8702292,1.8549619,2019-08-27 19:13:01,5.0
566.0,-0.05078125,-0.03338623,0.11029053,9.633588,5.5725193,3.5267177000000003,2019-08-27 19:13:01,5.0
567.0,-0.052368164,-0.029174805,0.11895752,23.183207,8.053435,7.160305499999999,2019-08-27 19:13:01,5.0
568.0,-0.054870605,-0.018127441,0.12097168,37.030533,9.404580000000001,7.793893300000001,2019-08-27 19:13:01,5.0
569.0,-0.040527344,0.0064697266000000005,0.117370605,0.84732825,12.816792999999999,20.679389999999998,2019-08-27 19:13:01,5.0
570.0,-0.054016113,-0.010070800999999999,0.11627197,-53.18320500000001,38.76336,26.480916999999998,2019-08-27 19:13:01,5.0
571.0,-0.044616699999999995,-0.030151367000000002,0.11065674,-52.068703,20.465649,23.007633,2019-08-27 19:13:01,5.0
572.0,-0.04937744,-0.024902344,0.11340332,-43.671757,18.167938,27.496183000000002,2019-08-27 19:13:01,5.0
573.0,-0.054748535,-0.028442382999999998,0.10205078,-11.984733,3.3129769999999996,22.862595000000002,2019-08-27 19:13:01,5.0
574.0,-0.04852295,-0.010070800999999999,0.11035156,15.145039,-5.1221375,13.671756,2019-08-27 19:13:01,5.0
575.0,-0.05480957,-0.00042724610000000003,0.12365723,20.343512,-7.7251906,7.587786,2019-08-27 19:13:01,5.0
576.0,-0.057556152,0.006286621,0.1274414,10.587786999999999,0.48091602,2.4122138,2019-08-27 19:13:01,5.0
577.0,-0.05230713,0.0012207030999999999,0.11791992,-0.39694658,4.9007635,-0.47328246,2019-08-27 19:13:01,5.0
578.0,-0.041503906,-0.00970459,0.11157226599999999,-25.396946,12.526717,-4.6106873,2019-08-27 19:13:01,5.0
579.0,-0.04949951,-0.01550293,0.11212158,-54.129771999999996,21.320610000000002,-5.4961834000000005,2019-08-27 19:13:01,5.0
580.0,-0.043151855,-0.013916016000000002,0.11016846,-58.251906999999996,13.435115,-15.732823999999999,2019-08-27 19:13:01,5.0
581.0,-0.05078125,-0.035888672,0.10510254,-72.34351,35.625954,-1.0,2019-08-27 19:13:01,5.0
582.0,-0.07373047,-0.059204099999999996,0.113220215,-63.587788,31.10687,-0.7251908,2019-08-27 19:13:01,5.0
583.0,-0.053710938,-0.047302246,0.10784912,-2.2824428,5.9694657,-4.671755999999999,2019-08-27 19:13:01,5.0
584.0,-0.06463623,-0.036071777,0.11364746,-20.450382,-1.7480916000000002,-1.3358778999999998,2019-08-27 19:13:01,5.0
585.0,-0.04888916,-0.03173828,0.10858154,-20.57252,3.1450381000000003,-3.923664,2019-08-27 19:13:01,5.0
586.0,-0.05712890599999999,-0.03149414,0.11657715,-21.969465,13.175572,3.4198472,2019-08-27 19:13:01,5.0
587.0,-0.052612305,-0.023742676,0.119628906,-27.076335999999998,13.702291,1.7557251,2019-08-27 19:13:01,5.0
588.0,-0.0635376,-0.027770996000000003,0.111206055,-29.183207,16.122137,3.351145,2019-08-27 19:13:02,5.0
589.0,-0.06036377,-0.04309082,0.11212158,-27.625953999999997,14.083969,3.076336,2019-08-27 19:13:02,5.0
590.0,-0.05871582,-0.041870117000000005,0.10058594,-18.42748,11.022901,-0.2519084,2019-08-27 19:13:02,5.0
591.0,-0.058288574,-0.04272461,0.10485839999999998,-16.374046,6.778625999999999,-4.961832,2019-08-27 19:13:02,5.0
592.0,-0.056030273,-0.04309082,0.10559082,-16.862595000000002,5.7480917,-7.114503999999999,2019-08-27 19:13:02,5.0
593.0,-0.06262207,-0.047729492000000005,0.10888672,-19.854961,5.4580154,-5.366412,2019-08-27 19:13:02,5.0
594.0,-0.06872558599999999,-0.044006348,0.09942627,-15.114504,3.5725190000000002,-9.473283,2019-08-27 19:13:02,5.0
595.0,-0.060424805,-0.034301757999999995,0.10723877,-5.10687,0.9847328000000002,-8.916031,2019-08-27 19:13:02,5.0
596.0,-0.05847168,-0.040100098,0.11743164,-2.0305343000000002,3.4274809999999998,-5.328244000000001,2019-08-27 19:13:02,5.0
597.0,-0.05731201,-0.03375244,0.11480713,-16.358778,7.541984599999999,-0.47328246,2019-08-27 19:13:02,5.0
598.0,-0.06329346,-0.03753662,0.10998535,-9.412213000000001,7.7709923,0.86259544,2019-08-27 19:13:02,5.0
599.0,-0.055541992000000005,-0.01928711,0.11450195,-15.526717000000001,11.282442999999999,-4.10687,2019-08-27 19:13:02,5.0
600.0,-0.05706787,-0.03186035,0.105407715,-24.862595000000002,15.893129,-5.4656487,2019-08-27 19:13:02,5.0
601.0,-0.0625,-0.034606934,0.11499023400000001,-20.030535,15.145039,-0.38931298,2019-08-27 19:13:02,5.0
602.0,-0.06121826,-0.041320800000000005,0.10418701,-38.160305,18.748089999999998,0.8778626,2019-08-27 19:13:02,5.0
603.0,-0.06451416,-0.0435791,0.09857178,-30.656488,15.572519,0.08396947,2019-08-27 19:13:02,5.0
604.0,-0.06201172,-0.05657959,0.105407715,-10.770992,9.229008,2.091603,2019-08-27 19:13:02,5.0
605.0,-0.06933594,-0.04449463,0.09655762,-2.129771,4.4274807,0.030534351,2019-08-27 19:13:02,5.0
606.0,-0.059753417999999996,-0.042053223,0.10894775400000001,-8.488549,6.6335880000000005,-1.4656489,2019-08-27 19:13:02,5.0
607.0,-0.06121826,-0.035827637,0.10040283,-20.076335999999998,5.1679387000000006,-5.5648856,2019-08-27 19:13:02,5.0
608.0,-0.059204099999999996,-0.04449463,0.10577392599999999,-14.832060999999998,2.9007633,-3.5725190000000002,2019-08-27 19:13:02,5.0
609.0,-0.051879882999999995,-0.044311523,0.10308838,0.022900764,0.9847328000000002,-5.557252,2019-08-27 19:13:02,5.0
610.0,-0.06585693,-0.02947998,0.11315918,9.656488000000001,1.3816794,-7.908396700000001,2019-08-27 19:13:02,5.0
611.0,-0.051208496,-0.02331543,0.11596680000000001,-16.305344,10.335877,-2.4351146,2019-08-27 19:13:02,5.0
612.0,-0.056274414,-0.036743164,0.10766601599999999,-28.412214000000002,14.267176000000001,0.31297709999999995,2019-08-27 19:13:02,5.0
613.0,-0.06097412,-0.042297363,0.10418701,-21.404581,9.770992,-3.1908397999999996,2019-08-27 19:13:02,5.0
614.0,-0.061462402,-0.038146973,0.10620117,-20.42748,6.793893300000001,-4.625954,2019-08-27 19:13:02,5.0
615.0,-0.04888916,-0.04833984400000001,0.10095215,-21.389313,11.083969,-3.4503817999999997,2019-08-27 19:13:02,5.0
616.0,-0.05615234400000001,-0.049194336,0.106933594,-22.396946,9.717557000000001,-3.3282442000000003,2019-08-27 19:13:02,5.0
617.0,-0.06048584,-0.040222167999999996,0.09875488,-22.343512,8.717557000000001,-1.2061069,2019-08-27 19:13:02,5.0
618.0,-0.06048584,-0.047180176,0.10290527,-11.427481,6.396946400000001,-2.1374047000000003,2019-08-27 19:13:02,5.0
619.0,-0.06506348,-0.049072265999999996,0.10076904,0.9389313,1.091603,-2.206107,2019-08-27 19:13:02,5.0
620.0,-0.06390381,-0.047851562,0.10369873,4.2900763,4.076336,-2.038168,2019-08-27 19:13:02,5.0
621.0,-0.05316162,-0.04333496,0.10760498,1.2061069,5.374046,-1.7633588,2019-08-27 19:13:02,5.0
622.0,-0.06591797,-0.04547119,0.11029053,-7.6793895,8.793892999999999,-1.0534351,2019-08-27 19:13:02,5.0
623.0,-0.059509277,-0.03552246,0.114746094,-4.7099237,7.6335880000000005,-5.9389315,2019-08-27 19:13:03,5.0
624.0,-0.056518555,-0.037841797,0.11053467,-16.625954,11.931297,-5.145038,2019-08-27 19:13:03,5.0
625.0,-0.05718994,-0.045715332000000004,0.10699463,-17.343512,11.458015,-6.8015265,2019-08-27 19:13:03,5.0
626.0,-0.068237305,-0.04168701,0.101745605,-18.076335999999998,11.396947,-5.480916000000001,2019-08-27 19:13:03,5.0
627.0,-0.06286621,-0.04815674,0.10266113,-19.0,4.1603055,-6.152672,2019-08-27 19:13:03,5.0
628.0,-0.05529785,-0.05041504,0.10308838,-20.145039,9.595419999999999,-5.763358599999999,2019-08-27 19:13:03,5.0
629.0,-0.058410645,-0.05102539,0.09814453,-20.114504,11.832061,-5.946564700000001,2019-08-27 19:13:03,5.0
630.0,-0.059020996,-0.045043945,0.10437012,-9.290076,5.9160304,-3.5114503,2019-08-27 19:13:03,5.0
631.0,-0.05883789,-0.045532227,0.10223389,-8.137404,6.183206,-1.8625953999999998,2019-08-27 19:13:03,5.0
632.0,-0.055664062,-0.052001953,0.10424805,-5.908396700000001,3.2366412,-1.0610687,2019-08-27 19:13:03,5.0
633.0,-0.06097412,-0.044799805,0.10235596,-9.442748,3.0839694,-1.2061069,2019-08-27 19:13:03,5.0
634.0,-0.06927489999999999,-0.044799805,0.103027344,-10.893129,0.73282444,-4.3587785000000006,2019-08-27 19:13:03,5.0
635.0,-0.055236815999999994,-0.050720215,0.10430908,-20.625954,0.73282444,-7.2824425999999995,2019-08-27 19:13:03,5.0
636.0,-0.06304932,-0.061157227,0.10961914,-5.6106873,-0.41984734,-10.21374,2019-08-27 19:13:03,5.0
637.0,-0.05480957,-0.06774902,0.10681152,25.725191,1.7557251,-15.824428,2019-08-27 19:13:03,5.0
638.0,-0.058654785,-0.042419434000000006,0.11138916,48.603054,2.70229,-18.190839999999998,2019-08-27 19:13:03,5.0
639.0,-0.052368164,-0.042541504,0.105285645,48.12214,5.9770994,-22.038168,2019-08-27 19:13:03,5.0
640.0,-0.057922363,-0.03149414,0.10772705,34.992367,12.580152499999999,-24.549618,2019-08-27 19:13:03,5.0
641.0,-0.06036377,-0.041625977,0.10620117,52.793890000000005,-6.1984735,-44.328243,2019-08-27 19:13:03,5.0
642.0,-0.062561035,-0.018493652,0.09613037,60.931297,6.557252,-21.977098,2019-08-27 19:13:03,5.0
643.0,-0.057250977,-0.012573242,0.097717285,24.404581,-0.091603056,-26.496183000000002,2019-08-27 19:13:03,5.0
644.0,-0.061950684000000006,-0.036621094,0.10394287,4.931298,-1.9694656000000004,-25.412214000000002,2019-08-27 19:13:03,5.0
645.0,-0.055664062,-0.036865234,0.11517334,-12.595419999999999,-1.5648855,-22.007633,2019-08-27 19:13:03,5.0
646.0,-0.05615234400000001,-0.06335449,0.11462402,-37.458015,4.053435299999999,-9.78626,2019-08-27 19:13:03,5.0
647.0,-0.05999756,-0.056884765999999996,0.11267089999999998,-12.106871,4.396946400000001,0.129771,2019-08-27 19:13:03,5.0
648.0,-0.053833007999999995,-0.039733887,0.10559082,11.244275,-2.534351,2.0458016,2019-08-27 19:13:03,5.0
649.0,-0.051330565999999994,-0.026184082,0.11029053,9.9007635,0.030534351,1.5267175,2019-08-27 19:13:03,5.0
650.0,-0.05029297,-0.028259277000000003,0.11975098,5.396946400000001,-1.091603,-0.32061067,2019-08-27 19:13:03,5.0
651.0,-0.044311523,-0.01940918,0.12536621,2.923664,0.740458,-2.1068702,2019-08-27 19:13:03,5.0
652.0,-0.051452637,-0.02545166,0.12097168,-17.175573,7.183206,-3.053435,2019-08-27 19:13:03,5.0
653.0,-0.056884765999999996,-0.025817871000000003,0.12030029,-34.374046,11.816792999999999,-4.1679387000000006,2019-08-27 19:13:03,5.0
654.0,-0.053466797,-0.038269042999999996,0.11138916,-44.076336,13.541985,-5.091603299999999,2019-08-27 19:13:03,5.0
655.0,-0.051513672,-0.039367676000000004,0.109191895,-52.335876,13.007633,-6.908396700000001,2019-08-27 19:13:03,5.0
656.0,-0.060180664,-0.051818848,0.10418701,-46.137405,13.427481,-2.3740457999999998,2019-08-27 19:13:03,5.0
657.0,-0.05859375,-0.055603027,0.10491943,-11.541985,6.847328,-0.79389316,2019-08-27 19:13:03,5.0
658.0,-0.044189453,-0.042175292999999996,0.10925293,-1.0839695,6.9770994,-1.5572518999999998,2019-08-27 19:13:04,5.0
659.0,-0.054504395,-0.040649414,0.10949707,-3.3358779999999997,7.5496182,-2.7480917000000002,2019-08-27 19:13:04,5.0
660.0,-0.06744385,-0.04724121,0.10357666,-6.5419846,8.145039,-1.8625953999999998,2019-08-27 19:13:04,5.0
661.0,-0.056030273,-0.038146973,0.11828613,-3.3969467000000004,6.145038,-2.053435,2019-08-27 19:13:04,5.0
662.0,-0.055664062,-0.033996582000000004,0.11419678,-4.5114503,6.4656487,-2.0229008,2019-08-27 19:13:04,5.0
663.0,-0.053955078,-0.043701172,0.107543945,1.8320610000000002,4.671755999999999,-1.5801526000000001,2019-08-27 19:13:04,5.0
664.0,-0.05065918,-0.034301757999999995,0.11212158,-3.1526718,6.4580154,-2.0,2019-08-27 19:13:04,5.0
665.0,-0.044128417999999996,-0.045043945,0.107910156,-3.6412212999999998,8.137404,-2.3358779999999997,2019-08-27 19:13:04,5.0
666.0,-0.04852295,-0.044921875,0.11260986,-6.152672,8.625955000000001,-2.3053436,2019-08-27 19:13:04,5.0
667.0,-0.049743652,-0.033325195,0.10986328,-8.198473,3.7862597,-0.8549618,2019-08-27 19:13:04,5.0
668.0,-0.06097412,-0.034362792999999996,0.111450195,-4.152672,5.4580154,-1.2519083999999998,2019-08-27 19:13:04,5.0
669.0,-0.060180664,-0.050720215,0.115722656,-6.10687,6.9160304,-2.2748091,2019-08-27 19:13:04,5.0
670.0,-0.049682617000000005,-0.03125,0.11279297,-3.183206,5.335878,-0.8091603,2019-08-27 19:13:04,5.0
671.0,-0.05407715,-0.035095215,0.10687256,0.17557251,5.0992365,-1.6183206,2019-08-27 19:13:04,5.0
672.0,-0.04522705,-0.027648926,0.11126709,3.4961832000000004,6.9541984,-1.9160305,2019-08-27 19:13:04,5.0
673.0,-0.04864502,-0.03656006,0.11297607400000001,-4.3129773,7.290076299999999,-3.6030532999999996,2019-08-27 19:13:04,5.0
674.0,-0.05609131,-0.032043457000000004,0.11248779,-4.3206105,4.1984735,-1.4732825,2019-08-27 19:13:04,5.0
675.0,-0.047851562,-0.03717041,0.11077881,0.99236643,4.1297708,-3.1603053,2019-08-27 19:13:04,5.0
676.0,-0.049743652,-0.035217285,0.11431885,7.7862597000000004,-0.86259544,-3.9923663,2019-08-27 19:13:04,5.0
677.0,-0.046691895,-0.027954102,0.10510254,8.129771,1.4045801000000002,-3.8931297999999996,2019-08-27 19:13:04,5.0
678.0,-0.04931640599999999,-0.035095215,0.11456299,1.0458015,4.778626,-4.885496,2019-08-27 19:13:04,5.0
679.0,-0.06072998,-0.028686523,0.11621094,-0.03816794,6.6335880000000005,-0.030534351,2019-08-27 19:13:04,5.0
680.0,-0.049987792999999996,-0.040039062,0.109191895,-12.480916,5.9770994,1.9847328999999998,2019-08-27 19:13:04,5.0
681.0,-0.043762207000000004,-0.0345459,0.11663818,0.78625953,3.129771,-7.625953999999999,2019-08-27 19:13:04,5.0
682.0,-0.054138184000000006,-0.036254882999999995,0.11840819999999999,0.3740458,11.129771,-5.526717700000001,2019-08-27 19:13:04,5.0
683.0,-0.047302246,-0.040527344,0.11047363,-6.709923700000001,7.328244000000001,-1.0839695,2019-08-27 19:13:04,5.0
684.0,-0.05718994,-0.028686523,0.10223389,-6.59542,1.8320610000000002,-3.6564887,2019-08-27 19:13:04,5.0
685.0,-0.05279541,-0.03466797,0.11773682,-1.8931297999999999,4.7480917,-3.6946564,2019-08-27 19:13:04,5.0
686.0,-0.047546387,-0.032409667999999996,0.11657715,-1.3816794,2.9007633,-2.9923662999999996,2019-08-27 19:13:04,5.0
687.0,-0.05407715,-0.022766112999999998,0.11242676,2.3740457999999998,-0.7251908,-5.2748094000000005,2019-08-27 19:13:04,5.0
688.0,-0.0546875,-0.034729004,0.11419678,7.541984599999999,6.076336,0.045801528,2019-08-27 19:13:04,5.0
689.0,-0.05053711,-0.020446777,0.11437988,-3.3053436,6.152672,1.7251908999999999,2019-08-27 19:13:04,5.0
690.0,-0.05847168,-0.026916503999999997,0.11663818,4.587786,11.007633,0.8244275,2019-08-27 19:13:04,5.0
691.0,-0.04534912,-0.036254882999999995,0.12054443,-6.557252,9.564885,-3.3358779999999997,2019-08-27 19:13:04,5.0
692.0,-0.05529785,-0.031311035,0.10668945,-15.244275,8.274809,-5.015267400000001,2019-08-27 19:13:04,5.0
693.0,-0.051940917999999996,-0.023803711,0.11553955,-12.305344,6.442748,-3.7480917000000002,2019-08-27 19:13:04,5.0
694.0,-0.055664062,-0.033508300000000005,0.11651611,-0.08396947,4.2442746,-3.9389312000000007,2019-08-27 19:13:04,5.0
695.0,-0.052490234000000004,-0.022460938,0.12414551,2.5267177000000003,7.328244000000001,-0.099236645,2019-08-27 19:13:04,5.0
696.0,-0.050964355,-0.040039062,0.12011719,-1.1374046,9.404580000000001,1.1068702,2019-08-27 19:13:05,5.0
697.0,-0.05206299,-0.021362305,0.109313965,-3.7862597,7.1984735,0.45801526,2019-08-27 19:13:05,5.0
698.0,-0.047302246,-0.023864746000000003,0.10217285,-18.610687,5.2748094000000005,-1.5725191,2019-08-27 19:13:05,5.0
699.0,-0.04522705,-0.025634766,0.105651855,-19.854961,1.0076336,-4.7099237,2019-08-27 19:13:05,5.0
700.0,-0.05242919999999999,-0.029968262000000002,0.10772705,-13.557251999999998,4.3816795,-2.908397,2019-08-27 19:13:05,5.0
701.0,-0.06280517599999999,-0.039001465,0.10650635,-12.732824,6.4198474999999995,-1.2290076,2019-08-27 19:13:05,5.0
702.0,-0.054138184000000006,-0.022644043,0.12432861,-14.977098999999999,8.931297,-0.5648854999999999,2019-08-27 19:13:05,5.0
703.0,-0.038391113,-0.025756836,0.11688232400000001,-8.816792999999999,11.648855000000001,-0.64122134,2019-08-27 19:13:05,5.0
704.0,-0.04888916,-0.031921387,0.11260986,-8.671756,8.061069,-4.259542,2019-08-27 19:13:05,5.0
705.0,-0.051452637,-0.040161132999999995,0.11206055,-14.946565,6.6335880000000005,-3.5648854,2019-08-27 19:13:05,5.0
706.0,-0.059692382999999995,-0.030639648,0.10870361,-15.244275,6.6106872999999995,-4.931298,2019-08-27 19:13:05,5.0
707.0,-0.053527832000000004,-0.03173828,0.107421875,-5.4351144,3.9770992,-2.6793892,2019-08-27 19:13:05,5.0
708.0,-0.051513672,-0.03186035,0.10815430000000001,-8.946565,4.0610685,-4.4656487,2019-08-27 19:13:05,5.0
709.0,-0.045654297,-0.03881836,0.109375,-7.030534299999999,5.335878,-3.1221373,2019-08-27 19:13:05,5.0
710.0,-0.058776855,-0.034118652,0.11804199,6.526717700000001,5.8244276,-0.8167939000000001,2019-08-27 19:13:05,5.0
711.0,-0.05432129,-0.034851073999999996,0.11169433599999999,6.1984735,8.335877,-2.7633588,2019-08-27 19:13:05,5.0
712.0,-0.05908203,-0.028747559,0.11773682,3.2519082999999998,6.114504,-1.5114504,2019-08-27 19:13:05,5.0
713.0,-0.044067382999999995,-0.024963378999999997,0.1171875,-3.9770992,8.977099,-1.4198473999999999,2019-08-27 19:13:05,5.0
714.0,-0.057495117000000005,-0.030944824,0.11230469,0.33587787,6.6412214999999994,-1.7099236,2019-08-27 19:13:05,5.0
715.0,-0.05328369,-0.023132324,0.11676025400000001,6.6946563999999995,8.396947,0.2519084,2019-08-27 19:13:05,5.0
716.0,-0.04443359400000001,-0.024719237999999998,0.11584473,3.183206,5.4580154,-1.0305344,2019-08-27 19:13:05,5.0
717.0,-0.04949951,-0.037109375,0.10913086,17.236639999999998,6.10687,4.1679387000000006,2019-08-27 19:13:05,5.0
718.0,-0.054138184000000006,-0.020996094,0.118652344,16.664122,10.068703,3.6030532999999996,2019-08-27 19:13:05,5.0
719.0,-0.055908203,-0.021850586,0.11993408,23.519083,7.900763499999999,6.091603299999999,2019-08-27 19:13:05,5.0
720.0,-0.04650879,-0.016601562,0.12243652,12.137404,10.755725,8.938931,2019-08-27 19:13:05,5.0
721.0,-0.058654785,-0.028076172000000003,0.11798096,-19.030535,23.335878,15.473282999999999,2019-08-27 19:13:05,5.0
722.0,-0.047424315999999994,-0.020019531,0.114746094,-21.175573,15.38168,12.007633,2019-08-27 19:13:05,5.0
723.0,-0.05822754,-0.027404785,0.11303711,-73.816795,37.725190000000005,27.32061,2019-08-27 19:13:05,5.0
724.0,-0.060791015999999996,-0.031982422,0.10821533,-78.900764,18.648854999999998,25.770992,2019-08-27 19:13:05,5.0
725.0,-0.05718994,-0.020019531,0.10101318,-90.65649,11.068703,28.648854999999998,2019-08-27 19:13:05,5.0
726.0,-0.05822754,-0.025817871000000003,0.09875488,-96.00764000000001,4.412214,22.702289999999998,2019-08-27 19:13:05,5.0
727.0,-0.04449463,-0.030456543,0.095214844,-91.91603,-0.6870229,19.984734,2019-08-27 19:13:05,5.0
728.0,-0.045837402,-0.04034424,0.11456299,-69.63359,1.3587786,7.458015400000001,2019-08-27 19:13:05,5.0
729.0,-0.048583984000000004,-0.034301757999999995,0.12786865,-12.251908,-7.091603299999999,-2.778626,2019-08-27 19:13:05,5.0
730.0,-0.047973632999999995,-0.023986816,0.12902832,1.2442749,4.183206,-9.053435,2019-08-27 19:13:06,5.0
731.0,-0.05480957,-0.028564452999999997,0.12249756,-33.16794,13.145039,-5.0,2019-08-27 19:13:06,5.0
732.0,-0.060913086,-0.042053223,0.107421875,-64.53435,23.053434,-0.5038168,2019-08-27 19:13:06,5.0
733.0,-0.06671142599999999,-0.049621582000000004,0.09741211,-62.18320500000001,24.274809,-3.7404580000000003,2019-08-27 19:13:06,5.0
734.0,-0.062683105,-0.059265137,0.10461426,-41.618320000000004,17.503817,-5.557252,2019-08-27 19:13:06,5.0
735.0,-0.05609131,-0.05847168,0.09454346,-23.87023,12.282442999999999,-7.4351144,2019-08-27 19:13:06,5.0
736.0,-0.051391599999999996,-0.062072754,0.09515381,-12.603053,7.3816795,-2.6641220000000003,2019-08-27 19:13:06,5.0
737.0,-0.060791015999999996,-0.053833007999999995,0.10205078,-2.832061,4.7709923,0.52671754,2019-08-27 19:13:06,5.0
738.0,-0.060302734000000004,-0.045776367000000005,0.0993042,-0.79389316,2.610687,1.3358778999999998,2019-08-27 19:13:06,5.0
739.0,-0.06921387,-0.043945312,0.09820557,0.28244275,2.1145039,5.412214,2019-08-27 19:13:06,5.0
740.0,-0.06817627,-0.030761719,0.11022949,5.633588,-2.0152671000000004,-2.0229008,2019-08-27 19:13:06,5.0
741.0,-0.06414795,-0.038513184,0.10760498,-13.396947,8.083969,2.816794,2019-08-27 19:13:06,5.0
742.0,-0.059204099999999996,-0.049804688,0.10052489999999999,-23.656488,11.763359,3.1450381000000003,2019-08-27 19:13:06,5.0
743.0,-0.057250977,-0.05078125,0.10614014,-12.862596,15.488548999999999,-1.6793894,2019-08-27 19:13:06,5.0
744.0,-0.057678223,-0.042053223,0.10375976599999999,-20.603054,13.633588,-3.1374047000000003,2019-08-27 19:13:06,5.0
745.0,-0.06359863,-0.057800292999999996,0.095581055,-34.931297,16.923664000000002,-4.328244000000001,2019-08-27 19:13:06,5.0
746.0,-0.061157227,-0.055236815999999994,0.09741211,-40.793890000000005,13.030535,-6.3816795,2019-08-27 19:13:06,5.0
747.0,-0.06237793,-0.06604004,0.091674805,-44.0229,16.114504,-5.946564700000001,2019-08-27 19:13:06,5.0
748.0,-0.07165527,-0.07055664,0.08905029,-21.458015,12.083969,-2.9312978,2019-08-27 19:13:06,5.0
749.0,-0.06854248,-0.06390381,0.08856201,3.4351146,2.0152671000000004,-5.145038,2019-08-27 19:13:06,5.0
750.0,-0.068481445,-0.04736328,0.09692383,8.534351,2.816794,-5.8625956,2019-08-27 19:13:06,5.0
751.0,-0.059326172,-0.06292724599999999,0.10504150400000001,20.679389999999998,-0.71755725,-5.2824425999999995,2019-08-27 19:13:06,5.0
752.0,-0.060791015999999996,-0.049194336,0.11053467,21.48855,1.4427481000000002,-0.21374045,2019-08-27 19:13:06,5.0
753.0,-0.05041504,-0.034118652,0.10284424,14.954199,-4.0839696000000005,4.1679387000000006,2019-08-27 19:13:06,5.0
754.0,-0.0637207,-0.03479004,0.111328125,-3.870229,4.7099237,-0.38167940000000006,2019-08-27 19:13:06,5.0
755.0,-0.059509277,-0.039611816,0.10064697,-25.198473,7.603053599999999,-0.053435113,2019-08-27 19:13:06,5.0
756.0,-0.061157227,-0.05316162,0.09094238,-51.908398,13.748092000000002,5.3511453,2019-08-27 19:13:06,5.0
757.0,-0.06347656,-0.0680542,0.08520508,-22.290077,2.2137403,2.4732822999999997,2019-08-27 19:13:06,5.0
758.0,-0.058654785,-0.049926757999999995,0.091918945,-2.4198472,-0.091603056,-0.78625953,2019-08-27 19:13:06,5.0
759.0,-0.066223145,-0.049438477,0.093566895,-17.206106,8.671756,-0.53435117,2019-08-27 19:13:06,5.0
760.0,-0.066589355,-0.048583984000000004,0.09869385,-14.068703,5.442748,-5.145038,2019-08-27 19:13:06,5.0
761.0,-0.05895996,-0.0501709,0.09008789,-12.7404585,10.015267,-6.603053599999999,2019-08-27 19:13:06,5.0
762.0,-0.06518555,-0.053527832000000004,0.093811035,-6.923664,8.404580000000001,-9.755725,2019-08-27 19:13:06,5.0
763.0,-0.056274414,-0.059570312,0.101745605,-0.67175573,6.015267400000001,-6.6412214999999994,2019-08-27 19:13:06,5.0
764.0,-0.06298828,-0.053833007999999995,0.1015625,-3.053435,6.2900763,-5.473282299999999,2019-08-27 19:13:06,5.0
765.0,-0.06573486,-0.04650879,0.10321045,-9.083969,7.068702,0.259542,2019-08-27 19:13:06,5.0
766.0,-0.06005859400000001,-0.046875,0.10083008,-15.885496,14.290076000000001,2.2519082999999998,2019-08-27 19:13:07,5.0
767.0,-0.06213379,-0.04473877,0.1071167,-20.610687,5.038168,-1.6870228999999999,2019-08-27 19:13:07,5.0
768.0,-0.064575195,-0.06121826,0.09606933599999999,-25.091601999999998,12.656488000000001,-1.1832061000000003,2019-08-27 19:13:07,5.0
769.0,-0.064331055,-0.047180176,0.10107422,-16.198473,5.0610685,-0.33587787,2019-08-27 19:13:07,5.0
770.0,-0.06567383,-0.058044434000000006,0.09594726599999999,-10.748092,6.7328243,-3.1755726,2019-08-27 19:13:07,5.0
771.0,-0.05480957,-0.04852295,0.10083008,-10.610686999999999,2.1908397999999996,-7.19084,2019-08-27 19:13:07,5.0
772.0,-0.05517578,-0.054748535,0.10321045,-7.221374000000001,4.4503818,-5.236641400000001,2019-08-27 19:13:07,5.0
773.0,-0.050598145,-0.045898438,0.10333252,-15.396947,12.244275,-5.1374044,2019-08-27 19:13:07,5.0
774.0,-0.060424805,-0.049987792999999996,0.0993042,-12.763359,6.6946563999999995,-7.1679387000000006,2019-08-27 19:13:07,5.0
775.0,-0.06536865,-0.05706787,0.099609375,1.0305344,4.8778625,-3.4961832000000004,2019-08-27 19:13:07,5.0
776.0,-0.07067871,-0.05859375,0.09814453,4.7175574000000005,1.9847328999999998,-1.9770991999999998,2019-08-27 19:13:07,5.0
777.0,-0.062316895,-0.048034667999999996,0.10437012,13.251907999999998,-5.1374044,-1.2748091000000001,2019-08-27 19:13:07,5.0
778.0,-0.053527832000000004,-0.044677734000000004,0.10980224599999999,-6.3206105,5.1679387000000006,-0.99236643,2019-08-27 19:13:07,5.0
779.0,-0.05432129,-0.056274414,0.09649658,-13.488548999999999,12.076336,2.0152671000000004,2019-08-27 19:13:07,5.0
780.0,-0.05999756,-0.04248047,0.09417724599999999,-4.6946564,2.5267177000000003,-0.90839696,2019-08-27 19:13:07,5.0
781.0,-0.05859375,-0.03942871,0.10040283,-14.61832,7.7251906,-2.6946564,2019-08-27 19:13:07,5.0
782.0,-0.06427002,-0.053588867000000005,0.10125732400000001,-27.12977,9.541985,-2.8091602000000004,2019-08-27 19:13:07,5.0
783.0,-0.06317139,-0.06530762,0.096191406,-21.984734,10.839694999999999,-3.1984732000000005,2019-08-27 19:13:07,5.0
784.0,-0.068237305,-0.0625,0.09796142599999999,-7.3587785000000006,7.6488547,-5.190840000000001,2019-08-27 19:13:07,5.0
785.0,-0.054870605,-0.05053711,0.10125732400000001,-6.2519083,9.458015,-9.885496,2019-08-27 19:13:07,5.0
786.0,-0.05883789,-0.05407715,0.09820557,-5.068702,10.870229,-7.396946400000001,2019-08-27 19:13:07,5.0
787.0,-0.066345215,-0.053955078,0.09838867,13.267176000000001,6.412214,-4.412214,2019-08-27 19:13:07,5.0
788.0,-0.072265625,-0.05328369,0.09704589999999999,21.862595000000002,0.26717559,-1.3435115,2019-08-27 19:13:07,5.0
789.0,-0.061279297,-0.03778076,0.10638428,-4.0610685,4.603053599999999,-0.23664123,2019-08-27 19:13:07,5.0
790.0,-0.057434082000000004,-0.042785645,0.10949707,-19.671754999999997,10.671756,-0.66412216,2019-08-27 19:13:07,5.0
791.0,-0.06317139,-0.055358887,0.09185791,-20.183207,9.328244,3.3435113,2019-08-27 19:13:07,5.0
792.0,-0.059020996,-0.059509277,0.099487305,-8.893129,-0.38931298,-2.2595419999999997,2019-08-27 19:13:07,5.0
793.0,-0.06390381,-0.041137695,0.10430908,-20.229008,7.5725193,-3.2595419999999997,2019-08-27 19:13:07,5.0
794.0,-0.07452392599999999,-0.05682373,0.10144043,-28.74809,11.541985,-3.3816792999999996,2019-08-27 19:13:07,5.0
795.0,-0.06439209,-0.04937744,0.09698486,-20.007633,5.0458016,-6.8015265,2019-08-27 19:13:07,5.0
796.0,-0.061523438,-0.054016113,0.09594726599999999,-9.267176,8.229008,-3.648855,2019-08-27 19:13:07,5.0
797.0,-0.053100586,-0.051452637,0.10205078,-6.5801525,5.7862597000000004,-3.3435113,2019-08-27 19:13:07,5.0
798.0,-0.05908203,-0.059692382999999995,0.10296631,-16.152672,6.8702292,-1.7251908999999999,2019-08-27 19:13:07,5.0
799.0,-0.059204099999999996,-0.07641601599999999,0.09716797,-8.114504,6.6488547,-5.740458,2019-08-27 19:13:07,5.0
800.0,-0.056030273,-0.05987549,0.09869385,1.1984733,0.8702290000000001,-9.351144999999999,2019-08-27 19:13:07,5.0
801.0,-0.06097412,-0.06481933599999999,0.10479736,10.7786255,3.091603,-7.1221375,2019-08-27 19:13:08,5.0
802.0,-0.06274414,-0.049682617000000005,0.10449219,15.114504,4.89313,-10.709924,2019-08-27 19:13:08,5.0
803.0,-0.05340576,-0.04748535,0.10430908,1.9541985,11.267176,-8.419847500000001,2019-08-27 19:13:08,5.0
804.0,-0.059326172,-0.045288086,0.09613037,8.694656,6.40458,-5.816794,2019-08-27 19:13:08,5.0
805.0,-0.05596924,-0.041931152,0.10076904,-8.801527,7.625953999999999,-0.015267176,2019-08-27 19:13:08,5.0
806.0,-0.059692382999999995,-0.0546875,0.10211182,-15.679389000000002,9.129771,0.740458,2019-08-27 19:13:08,5.0
807.0,-0.057373047,-0.04949951,0.09851074,-22.12977,10.832061,-0.77099234,2019-08-27 19:13:08,5.0
808.0,-0.058898926,-0.05657959,0.09313965,-21.770992,14.587786999999999,3.8091602,2019-08-27 19:13:08,5.0
809.0,-0.061828613,-0.047851562,0.08911133,-24.152672,11.152672,3.8473281999999998,2019-08-27 19:13:08,5.0
810.0,-0.06011963,-0.061645507999999995,0.09246826,-13.351145,6.3129773,2.4198472,2019-08-27 19:13:08,5.0
811.0,-0.070373535,-0.038879395,0.105407715,-14.580152499999999,6.862595599999999,-0.129771,2019-08-27 19:13:08,5.0
812.0,-0.066589355,-0.053649902,0.09674072,-35.526720000000005,12.648855000000001,4.9770994,2019-08-27 19:13:08,5.0
813.0,-0.0635376,-0.06970215,0.089904785,-18.755726,9.816792999999999,3.4503817999999997,2019-08-27 19:13:08,5.0
814.0,-0.06726074,-0.06298828,0.09490967,-6.70229,-1.1145038999999999,-3.1984732000000005,2019-08-27 19:13:08,5.0
815.0,-0.05895996,-0.052978515999999996,0.095581055,-13.076336,3.9847328999999996,-6.190840000000001,2019-08-27 19:13:08,5.0
816.0,-0.06298828,-0.054748535,0.09808349599999999,-22.160304999999997,12.572519,-4.4580154,2019-08-27 19:13:08,5.0
817.0,-0.05871582,-0.06750488,0.10070801,-15.870229,6.89313,-9.885496,2019-08-27 19:13:08,5.0
818.0,-0.06707764,-0.055480957000000004,0.09588623,6.015267400000001,7.1221375,-14.267176000000001,2019-08-27 19:13:08,5.0
819.0,-0.057617188,-0.05267334,0.10223389,10.236641,8.984733,-23.160304999999997,2019-08-27 19:13:08,5.0
820.0,-0.056030273,-0.09020996,0.10522461,33.244274,17.389313,-15.129771,2019-08-27 19:13:08,5.0
821.0,-0.07672119,-0.08880615,0.09344482400000001,85.83969,-0.5038168,-18.190839999999998,2019-08-27 19:13:08,5.0
822.0,-0.06213379,-0.03753662,0.09533691400000001,110.38931000000001,-11.9007635,-34.038166,2019-08-27 19:13:08,5.0
823.0,-0.043029785,-0.016906738,0.09997558599999999,121.61068999999999,11.007633,-26.206106,2019-08-27 19:13:08,5.0
824.0,-0.05834961,-0.018188476999999998,0.10076904,70.908394,-1.4351145,-35.221375,2019-08-27 19:13:08,5.0
825.0,-0.05456543,-0.016540527,0.09375,47.0229,5.5343513,-34.770992,2019-08-27 19:13:08,5.0
826.0,-0.05908203,-0.028198242000000002,0.09295654,28.67939,1.519084,-34.183205,2019-08-27 19:13:08,5.0
827.0,-0.058776855,-0.034729004,0.103027344,9.496183,-6.0839696,-27.793894,2019-08-27 19:13:08,5.0
828.0,-0.057800292999999996,-0.043518065999999994,0.12011719,-30.0,-6.480916000000001,-22.412214000000002,2019-08-27 19:13:08,5.0
829.0,-0.0625,-0.04815674,0.115234375,-62.129771999999996,6.9541984,-11.931297,2019-08-27 19:13:08,5.0
830.0,-0.050598145,-0.06439209,0.11370849599999999,-42.48855,9.358779,-7.656488400000001,2019-08-27 19:13:08,5.0
831.0,-0.058776855,-0.05834961,0.1083374,-10.251908,5.587786,2.3511450000000003,2019-08-27 19:13:08,5.0
832.0,-0.051940917999999996,-0.044189453,0.105651855,-3.4503817999999997,1.5038168,0.77099234,2019-08-27 19:13:08,5.0
833.0,-0.051696777,-0.034179688,0.111328125,-6.4503818,3.8091602,2.6030533,2019-08-27 19:13:08,5.0
834.0,-0.043640137,-0.040039062,0.104003906,-6.816794,5.8396945,-2.8473282,2019-08-27 19:13:08,5.0
835.0,-0.056030273,-0.026489257999999998,0.10095215,-10.282442999999999,8.167939,-2.3358779999999997,2019-08-27 19:13:08,5.0
836.0,-0.053894042999999996,-0.050720215,0.101745605,-8.0992365,7.3129773,0.67175573,2019-08-27 19:13:08,5.0
837.0,-0.0546875,-0.048950195,0.09844971,-4.9923663000000005,3.8473281999999998,-1.1450381,2019-08-27 19:13:08,5.0
838.0,-0.04925537,-0.042785645,0.10888672,2.221374,2.9923662999999996,-4.854962,2019-08-27 19:13:08,5.0
839.0,-0.059753417999999996,-0.034057617000000005,0.11364746,27.961832,-1.0,-3.59542,2019-08-27 19:13:09,5.0
840.0,-0.049560547,-0.03778076,0.12078857400000001,7.8015265,3.4274809999999998,-1.70229,2019-08-27 19:13:09,5.0
841.0,-0.059814453,-0.03729248,0.10803223,-7.816794,6.656488400000001,1.3664121999999999,2019-08-27 19:13:09,5.0
842.0,-0.056396484000000004,-0.03552246,0.11157226599999999,15.366412,0.35877863,-3.0305343,2019-08-27 19:13:09,5.0
843.0,-0.052001953,-0.03338623,0.11676025400000001,4.0229006,10.587786999999999,0.8396947,2019-08-27 19:13:09,5.0
844.0,-0.061645507999999995,-0.02935791,0.10473633,0.9160305000000001,4.4503818,-4.473282299999999,2019-08-27 19:13:09,5.0
845.0,-0.05322265599999999,-0.037231445,0.111328125,-4.6793895,2.0076337,-3.6870230000000004,2019-08-27 19:13:09,5.0
846.0,-0.062316895,-0.036132812,0.11230469,-3.870229,1.0534351,-3.8244274,2019-08-27 19:13:09,5.0
847.0,-0.058410645,-0.02557373,0.12359619,-3.6183207000000004,6.70229,-2.1145039,2019-08-27 19:13:09,5.0
848.0,-0.055725098,-0.03942871,0.11517334,-5.40458,9.717557000000001,1.3282443000000002,2019-08-27 19:13:09,5.0
849.0,-0.044616699999999995,-0.039611816,0.109191895,5.1755724,4.40458,0.053435113,2019-08-27 19:13:09,5.0
850.0,-0.05822754,-0.03692627,0.10968017599999999,-0.015267176,4.2977099999999995,-2.7709923,2019-08-27 19:13:09,5.0
851.0,-0.05432129,-0.03894043,0.11016846,-2.1068702,4.557252,-3.5801528,2019-08-27 19:13:09,5.0
852.0,-0.06274414,-0.03869629,0.111450195,-1.5648855,4.7938933,-2.70229,2019-08-27 19:13:09,5.0
853.0,-0.047302246,-0.030761719,0.11071777,-7.7709923,5.4503818,-3.2748091,2019-08-27 19:13:09,5.0
854.0,-0.05682373,-0.032348632999999995,0.11364746,-0.18320611,3.5190839999999994,-3.59542,2019-08-27 19:13:09,5.0
855.0,-0.04534912,-0.032409667999999996,0.12023926,-5.5343513,6.190840000000001,-1.9923664,2019-08-27 19:13:09,5.0
856.0,-0.049804688,-0.028381347999999997,0.11090088,-1.9465648999999998,6.740458,-1.4122137,2019-08-27 19:13:09,5.0
857.0,-0.045166015999999996,-0.038024902,0.11431885,-10.503817,9.053435,-3.038168,2019-08-27 19:13:09,5.0
858.0,-0.050354004,-0.035217285,0.11291504,-9.229008,6.9770994,-3.053435,2019-08-27 19:13:09,5.0
859.0,-0.048828125,-0.033691406,0.11090088,-0.015267176,5.152672,-2.7709923,2019-08-27 19:13:09,5.0
860.0,-0.05810547,-0.026489257999999998,0.11553955,-3.167939,4.5419846,-3.2671757,2019-08-27 19:13:09,5.0
861.0,-0.05596924,-0.036193848,0.11358642599999999,-5.3053436,6.0229006,-3.2442749,2019-08-27 19:13:09,5.0
862.0,-0.054748535,-0.028564452999999997,0.11224365,-7.0534353,5.3893127,-4.0152674,2019-08-27 19:13:09,5.0
863.0,-0.047180176,-0.03552246,0.11279297,-4.366412,5.984732599999999,-3.4732822999999997,2019-08-27 19:13:09,5.0
864.0,-0.049194336,-0.022094727,0.11291504,-8.167939,6.0076336999999995,-3.0839694,2019-08-27 19:13:09,5.0
865.0,-0.054382324,-0.026367188,0.11456299,-2.1450381000000003,6.0076336999999995,-2.2366412,2019-08-27 19:13:09,5.0
866.0,-0.053649902,-0.033813477,0.11431885,-9.610686999999999,7.1450380000000004,-0.38931298,2019-08-27 19:13:09,5.0
867.0,-0.052368164,-0.028808594,0.111328125,-8.580152499999999,8.328244,-0.79389316,2019-08-27 19:13:09,5.0
868.0,-0.046142578,-0.032226562,0.11267089999999998,-3.0076337000000004,8.122137,-2.8778627,2019-08-27 19:13:09,5.0
869.0,-0.05279541,-0.036499023,0.11303711,-14.305344,8.832061,-1.9465648999999998,2019-08-27 19:13:09,5.0
870.0,-0.05255127,-0.03668213,0.10864258,-6.8015265,4.4656487,-2.5267177000000003,2019-08-27 19:13:09,5.0
871.0,-0.056762695,-0.030639648,0.11657715,-5.0,3.778626,-2.8015267999999995,2019-08-27 19:13:09,5.0
872.0,-0.051330565999999994,-0.025146484,0.11236572,-3.1221373,2.2671757,-4.2442746,2019-08-27 19:13:09,5.0
873.0,-0.05432129,-0.029418945,0.11798096,-7.0,4.6106873,-1.3206106000000002,2019-08-27 19:13:09,5.0
874.0,-0.058776855,-0.03363037,0.10998535,-4.6870227,5.412214,-1.4198473999999999,2019-08-27 19:13:10,5.0
875.0,-0.04547119,-0.025695799999999998,0.11639404,-6.038168,6.335878,-1.7557251,2019-08-27 19:13:10,5.0
876.0,-0.052612305,-0.03515625,0.1104126,-11.358779,5.9160304,-3.4427480000000004,2019-08-27 19:13:10,5.0
877.0,-0.045288086,-0.029785156,0.115722656,-7.900763499999999,5.5419846,-3.8931297999999996,2019-08-27 19:13:10,5.0
878.0,-0.055908203,-0.032470703,0.11730957,-7.3129773,8.076336,-2.1145039,2019-08-27 19:13:10,5.0
879.0,-0.040771484,-0.037597656,0.11151123,9.572519,5.7022900000000005,-1.7480916000000002,2019-08-27 19:13:10,5.0
880.0,-0.048706055,-0.033569336,0.11151123,4.0,10.564885,-2.6412212999999998,2019-08-27 19:13:10,5.0
881.0,-0.06311035,-0.030334472999999997,0.11651611,-1.8549619,8.160305000000001,-3.5190839999999994,2019-08-27 19:13:10,5.0
882.0,-0.050109863,-0.038085938,0.10961914,-5.671755999999999,2.0229008,-4.0076336999999995,2019-08-27 19:13:10,5.0
883.0,-0.05731201,-0.026306152000000003,0.1149292,-2.0687022,3.4274809999999998,-4.946564700000001,2019-08-27 19:13:10,5.0
884.0,-0.052978515999999996,-0.028747559,0.119018555,-3.8854961,2.8396947,-5.0992365,2019-08-27 19:13:10,5.0
885.0,-0.057250977,-0.023803711,0.11663818,-6.076336,5.1679387000000006,-1.7633588,2019-08-27 19:13:10,5.0
886.0,-0.054748535,-0.03387451,0.117004395,-16.328245000000003,7.5801525,2.2442749,2019-08-27 19:13:10,5.0
887.0,-0.051086426,-0.030578612999999998,0.11486816400000001,1.5267175,9.061069,-2.3740457999999998,2019-08-27 19:13:10,5.0
888.0,-0.051330565999999994,-0.026123047000000003,0.10656738,-7.3129773,6.59542,-3.4351146,2019-08-27 19:13:10,5.0
889.0,-0.05102539,-0.028015137000000002,0.11297607400000001,-11.366412,4.038168,-4.412214,2019-08-27 19:13:10,5.0
890.0,-0.057617188,-0.01965332,0.11755371,-17.603054,4.9923663000000005,-4.0229006,2019-08-27 19:13:10,5.0
891.0,-0.045043945,-0.022094727,0.11651611,-12.763359,7.763358599999999,0.22137405,2019-08-27 19:13:10,5.0
892.0,-0.05114746,-0.037109375,0.11077881,-8.381680000000001,6.8549619999999996,0.66412216,2019-08-27 19:13:10,5.0
893.0,-0.042175292999999996,-0.023376465,0.10900879,-8.358779,6.6793895,-1.8931297999999999,2019-08-27 19:13:10,5.0
894.0,-0.055114746,-0.028320312,0.10784912,-15.541985,5.557252,-2.3053436,2019-08-27 19:13:10,5.0
895.0,-0.046447754,-0.029541016,0.113342285,-10.068703,3.6259542000000002,-3.465649,2019-08-27 19:13:10,5.0
896.0,-0.059509277,-0.029418945,0.11639404,-10.916031,5.0458016,-2.70229,2019-08-27 19:13:10,5.0
897.0,-0.046325684000000006,-0.027648926,0.11486816400000001,-4.396946400000001,3.4198472,-4.0992365,2019-08-27 19:13:10,5.0
898.0,-0.0423584,-0.02734375,0.11602783,-6.6946563999999995,8.061069,-0.99236643,2019-08-27 19:13:10,5.0
899.0,-0.047424315999999994,-0.028320312,0.12329101599999999,-7.4961834000000005,6.9465647,-1.0458015,2019-08-27 19:13:10,5.0
900.0,-0.049621582000000004,-0.032958984,0.11248779,-5.587786,5.984732599999999,-1.0992366000000002,2019-08-27 19:13:10,5.0
901.0,-0.04876709,-0.029174805,0.11212158,-11.839694999999999,7.374046000000001,-1.4427481000000002,2019-08-27 19:13:10,5.0
902.0,-0.053466797,-0.026062012000000002,0.11791992,-9.19084,5.374046,-4.5114503,2019-08-27 19:13:10,5.0
903.0,-0.04876709,-0.03375244,0.1116333,-9.732824,5.5114503,-4.4198474999999995,2019-08-27 19:13:10,5.0
904.0,-0.047424315999999994,-0.027709961,0.11798096,-4.9694657,4.0992365,-2.908397,2019-08-27 19:13:10,5.0
905.0,-0.05694580000000001,-0.025756836,0.11560058599999999,-0.5114504,4.519083999999999,-3.2671757,2019-08-27 19:13:10,5.0
906.0,-0.06024169999999999,-0.02166748,0.11981201,-1.038168,5.8244276,-2.1908397999999996,2019-08-27 19:13:10,5.0
907.0,-0.050598145,-0.032226562,0.11932373,-5.40458,7.068702,-1.3816794,2019-08-27 19:13:10,5.0
908.0,-0.05279541,-0.028259277000000003,0.11364746,-6.053435299999999,7.709923700000001,-1.7633588,2019-08-27 19:13:10,5.0
909.0,-0.052612305,-0.02557373,0.11785889,-10.122137,7.10687,-3.29771,2019-08-27 19:13:10,5.0
910.0,-0.046203613,-0.02947998,0.11193848,-6.4274807,6.366412,-2.778626,2019-08-27 19:13:11,5.0
911.0,-0.05694580000000001,-0.030273438,0.113098145,-6.328244000000001,6.7328243,-2.480916,2019-08-27 19:13:11,5.0
912.0,-0.04925537,-0.029418945,0.11126709,-8.374044999999999,7.671755999999999,-2.129771,2019-08-27 19:13:11,5.0
913.0,-0.05682373,-0.02911377,0.117248535,-6.1984735,6.80916,-1.648855,2019-08-27 19:13:11,5.0
914.0,-0.05267334,-0.025512695,0.11669922,-1.5114504,6.3511453,1.0610687,2019-08-27 19:13:11,5.0
915.0,-0.042053223,-0.020812988,0.11212158,-8.702291,6.709923700000001,-2.6259542000000002,2019-08-27 19:13:11,5.0
916.0,-0.04559326,-0.02355957,0.10809326,-15.427481,3.3435113,-3.3053436,2019-08-27 19:13:11,5.0
917.0,-0.051574707000000004,-0.036315917999999996,0.10949707,-11.557252,-1.5343511,-4.5343513,2019-08-27 19:13:11,5.0
918.0,-0.051330565999999994,-0.028991700000000002,0.117004395,-8.755725,2.206107,-6.5038165999999995,2019-08-27 19:13:11,5.0
919.0,-0.05633545,-0.026672362999999998,0.12384033,-5.847328,4.656488400000001,-3.7557251000000003,2019-08-27 19:13:11,5.0
920.0,-0.049804688,-0.022460938,0.11840819999999999,-2.9694657,5.984732599999999,-3.7480917000000002,2019-08-27 19:13:11,5.0
921.0,-0.04827881,-0.025695799999999998,0.12084961,-15.229007999999999,7.961832000000001,-2.0229008,2019-08-27 19:13:11,5.0
922.0,-0.05444336,-0.023925781,0.10003662,-9.351144999999999,5.9770994,-2.1526718,2019-08-27 19:13:11,5.0
923.0,-0.049133300000000005,-0.023071289,0.11224365,-11.977099,9.282442999999999,-2.2900763,2019-08-27 19:13:11,5.0
924.0,-0.051818848,-0.030395507999999998,0.10992432,-4.6488547,4.740458,-4.4351144,2019-08-27 19:13:11,5.0
925.0,-0.040771484,-0.024169922000000003,0.11755371,-6.671755999999999,4.7862597000000004,-6.2748094000000005,2019-08-27 19:13:11,5.0
926.0,-0.057800292999999996,-0.022766112999999998,0.12310791,-6.3206105,7.236641400000001,-6.900763499999999,2019-08-27 19:13:11,5.0
927.0,-0.051208496,-0.030090332,0.11981201,-13.007633,5.519083999999999,-4.2824425999999995,2019-08-27 19:13:11,5.0
928.0,-0.04547119,-0.016601562,0.11499023400000001,-15.091603,7.458015400000001,0.7633588000000001,2019-08-27 19:13:11,5.0
929.0,-0.04486084,-0.024108887000000002,0.11694336,-8.198473,7.290076299999999,0.28244275,2019-08-27 19:13:11,5.0
930.0,-0.053833007999999995,-0.036071777,0.107543945,-9.312977,8.007633,-1.9312977,2019-08-27 19:13:11,5.0
931.0,-0.055603027,-0.035339355,0.11547851599999999,-3.4885497,7.3206105,0.38167940000000006,2019-08-27 19:13:11,5.0
932.0,-0.054748535,-0.028503418,0.110839844,-7.9465647,6.847328,-2.6335877999999995,2019-08-27 19:13:11,5.0
933.0,-0.06103515599999999,-0.030944824,0.11383057,-5.2977099999999995,4.8015265,-4.221374,2019-08-27 19:13:11,5.0
934.0,-0.050476074,-0.03149414,0.11547851599999999,-10.816792999999999,6.778625999999999,-3.9847328999999996,2019-08-27 19:13:11,5.0
935.0,-0.04833984400000001,-0.026977539,0.10882568,-11.366412,6.6106872999999995,-2.0152671000000004,2019-08-27 19:13:11,5.0
936.0,-0.051818848,-0.03765869,0.11840819999999999,-12.839694999999999,6.6793895,-4.145038,2019-08-27 19:13:11,5.0
937.0,-0.050964355,-0.022583007999999998,0.113220215,-6.9923663000000005,7.534351299999999,-0.78625953,2019-08-27 19:13:11,5.0
938.0,-0.050231934000000006,-0.023620605,0.11328125,-11.503817,9.030535,-0.64122134,2019-08-27 19:13:11,5.0
939.0,-0.053894042999999996,-0.032470703,0.1171875,-2.076336,6.9160304,-3.7862597,2019-08-27 19:13:11,5.0
940.0,-0.053710938,-0.037719727,0.11029053,-9.450381,6.091603299999999,-4.114504,2019-08-27 19:13:11,5.0
941.0,-0.051330565999999994,-0.030090332,0.11370849599999999,-3.1068702,2.4961832000000004,-3.6641220000000003,2019-08-27 19:13:11,5.0
942.0,-0.055114746,-0.031433105,0.12200928,-6.526717700000001,5.152672,-5.412214,2019-08-27 19:13:11,5.0
943.0,-0.05456543,-0.024597168,0.11108398400000001,-9.671756,3.7633588,-6.70229,2019-08-27 19:13:11,5.0
944.0,-0.053527832000000004,-0.028320312,0.11010742,-12.618319999999999,8.893129,-2.7404580000000003,2019-08-27 19:13:11,5.0
945.0,-0.04699707,-0.028076172000000003,0.11761474599999999,1.5572518999999998,4.4198474999999995,-0.86259544,2019-08-27 19:13:11,5.0
946.0,-0.04937744,-0.037963867000000005,0.11114502,-9.824428,8.244275,-1.70229,2019-08-27 19:13:12,5.0
947.0,-0.04675293,-0.025146484,0.11437988,-1.648855,9.366412,-1.9160305,2019-08-27 19:13:12,5.0
948.0,-0.058410645,-0.033508300000000005,0.11224365,-12.106871,7.9465647,-3.6717557999999997,2019-08-27 19:13:12,5.0
949.0,-0.047912598,-0.027160645,0.11688232400000001,2.29771,-0.96183205,-5.9541984,2019-08-27 19:13:12,5.0
950.0,-0.05328369,-0.019958496000000003,0.11987305,-14.183207000000001,7.7862597000000004,-5.0076336999999995,2019-08-27 19:13:12,5.0
951.0,-0.05255127,-0.03717041,0.12109375,-17.587785999999998,6.343511599999999,-2.8778627,2019-08-27 19:13:12,5.0
952.0,-0.040771484,-0.026000977,0.11773682,-16.38168,6.7557254,-1.9007633999999998,2019-08-27 19:13:12,5.0
953.0,-0.043823242000000005,-0.028808594,0.10949707,-13.083969,6.190840000000001,-5.0610685,2019-08-27 19:13:12,5.0
954.0,-0.052612305,-0.03753662,0.109375,-18.519083,5.763358599999999,-3.778626,2019-08-27 19:13:12,5.0
955.0,-0.051818848,-0.027526855,0.11761474599999999,-13.847328,5.3587785000000006,-3.1526718,2019-08-27 19:13:12,5.0
956.0,-0.057617188,-0.03552246,0.11804199,-13.2213745,8.396947,-2.4122138,2019-08-27 19:13:12,5.0
957.0,-0.053771973,-0.027832031,0.11791992,-4.3511453,6.656488400000001,0.129771,2019-08-27 19:13:12,5.0
958.0,-0.043640137,-0.029785156,0.111450195,-3.5419848,3.6030532999999996,-2.8549618999999997,2019-08-27 19:13:12,5.0
959.0,-0.045654297,-0.025939941,0.113342285,-12.022901,5.8625956,-4.3511453,2019-08-27 19:13:12,5.0
960.0,-0.046691895,-0.03930664,0.10968017599999999,-6.3816795,3.7175572,-3.8473281999999998,2019-08-27 19:13:12,5.0
961.0,-0.047973632999999995,-0.028747559,0.11389160000000002,-11.832061,7.7709923,-3.8473281999999998,2019-08-27 19:13:12,5.0
962.0,-0.0546875,-0.03894043,0.11297607400000001,-5.091603299999999,3.5725190000000002,-4.0305343,2019-08-27 19:13:12,5.0
963.0,-0.05645752,-0.025390625,0.11639404,-3.6870230000000004,6.7862597000000004,-1.8549619,2019-08-27 19:13:12,5.0
964.0,-0.061157227,-0.029968262000000002,0.12310791,-13.229007999999999,8.137404,0.099236645,2019-08-27 19:13:12,5.0
965.0,-0.051391599999999996,-0.028930664,0.11602783,-4.10687,6.3053436,-3.4351146,2019-08-27 19:13:12,5.0
966.0,-0.05114746,-0.031188965,0.11840819999999999,-6.1297708,11.938931,-4.152672,2019-08-27 19:13:12,5.0
967.0,-0.049926757999999995,-0.028442382999999998,0.105285645,-11.603053,7.2290077,-2.8778627,2019-08-27 19:13:12,5.0
968.0,-0.05432129,-0.030151367000000002,0.11090088,-1.3282443000000002,3.0,-2.9770992,2019-08-27 19:13:12,5.0
969.0,-0.06097412,-0.023254395,0.12268066400000001,-5.6488547,4.0839696000000005,-3.183206,2019-08-27 19:13:12,5.0
970.0,-0.05529785,-0.029541016,0.12298584,-8.7786255,6.6946563999999995,-1.9465648999999998,2019-08-27 19:13:12,5.0
971.0,-0.050720215,-0.022216797000000003,0.111450195,-11.641221,7.778625999999999,0.122137405,2019-08-27 19:13:12,5.0
972.0,-0.05303955,-0.024475097999999997,0.10461426,-14.656488000000001,9.496183,-3.3053436,2019-08-27 19:13:12,5.0
973.0,-0.059265137,-0.0357666,0.104003906,-8.893129,5.10687,-3.129771,2019-08-27 19:13:12,5.0
974.0,-0.054626465,-0.028320312,0.11785889,-1.1526718,3.0076337000000004,-4.7175574000000005,2019-08-27 19:13:12,5.0
975.0,-0.05859375,-0.025024414,0.11883545,-9.328244,7.8778625,-4.473282299999999,2019-08-27 19:13:12,5.0
976.0,-0.04510498,-0.02947998,0.11022949,-14.893129,7.9465647,-2.5496182000000003,2019-08-27 19:13:12,5.0
977.0,-0.05505371,-0.030578612999999998,0.1182251,1.8702290000000001,5.190840000000001,-2.908397,2019-08-27 19:13:12,5.0
978.0,-0.055541992000000005,-0.040893555,0.11889648400000001,-10.564885,5.5038165999999995,-2.1755726,2019-08-27 19:13:12,5.0
979.0,-0.046569824,-0.028747559,0.111450195,-9.664123,6.091603299999999,-2.8778627,2019-08-27 19:13:12,5.0
980.0,-0.05682373,-0.026123047000000003,0.11462402,-8.465649,7.3893127000000005,-2.465649,2019-08-27 19:13:12,5.0
981.0,-0.04547119,-0.029174805,0.115234375,-3.5267177000000003,6.4961834000000005,-1.5954198999999998,2019-08-27 19:13:13,5.0
982.0,-0.051086426,-0.02142334,0.11486816400000001,-3.4732822999999997,6.10687,-2.5419848,2019-08-27 19:13:13,5.0
983.0,-0.04443359400000001,-0.025146484,0.10821533,-8.038167999999999,6.8320612999999994,-1.9312977,2019-08-27 19:13:13,5.0
984.0,-0.044311523,-0.030212402000000003,0.11578369,-9.885496,8.038167999999999,-3.221374,2019-08-27 19:13:13,5.0
985.0,-0.054260254,-0.026672362999999998,0.11578369,-10.687023,6.6183205,-2.6412212999999998,2019-08-27 19:13:13,5.0
986.0,-0.044006348,-0.028930664,0.11419678,-8.885496,6.396946400000001,-3.3893129999999996,2019-08-27 19:13:13,5.0
987.0,-0.04937744,-0.038146973,0.11590576,-10.465649,6.1221375,-3.8625953,2019-08-27 19:13:13,5.0
988.0,-0.06573486,-0.024719237999999998,0.114746094,-3.70229,4.763358599999999,-2.7175572,2019-08-27 19:13:13,5.0
989.0,-0.049682617000000005,-0.04095459,0.11505127,-7.1450380000000004,6.0458016,-1.9083970000000001,2019-08-27 19:13:13,5.0
990.0,-0.051574707000000004,-0.024169922000000003,0.11468506,-6.763358599999999,6.9160304,-3.0839694,2019-08-27 19:13:13,5.0
991.0,-0.04486084,-0.037353516,0.10852051,-9.916031,6.9389315,-2.0,2019-08-27 19:13:13,5.0
992.0,-0.050048828,-0.026489257999999998,0.117248535,-9.832061,6.4961834000000005,-3.2137403,2019-08-27 19:13:13,5.0
993.0,-0.056884765999999996,-0.03289795,0.10894775400000001,-8.732824,7.160305499999999,-2.076336,2019-08-27 19:13:13,5.0
994.0,-0.053527832000000004,-0.029907227,0.11981201,-10.389313000000001,7.5114503,-3.4122138,2019-08-27 19:13:13,5.0
995.0,-0.06005859400000001,-0.029174805,0.11328125,-10.450381,6.6183205,-3.5801528,2019-08-27 19:13:13,5.0
996.0,-0.05114746,-0.037475586,0.11602783,-11.328244,7.2290077,-2.6259542000000002,2019-08-27 19:13:13,5.0
997.0,-0.05255127,-0.029846191,0.11126709,-6.557252,5.2671757,-3.3053436,2019-08-27 19:13:13,5.0
998.0,-0.05322265599999999,-0.030029297000000003,0.11096191400000001,-8.770992,7.7862597000000004,-1.7328244,2019-08-27 19:13:13,5.0
999.0,-0.059814453,-0.03100586,0.11767578,-5.809159999999999,6.2519083,-1.1068702,2019-08-27 19:13:13,5.0
1000.0,-0.05810547,-0.032836914,0.11376953,-8.366412,5.847328,-2.206107,2019-08-27 19:13:13,5.0
1001.0,-0.04931640599999999,-0.025512695,0.11260986,-8.152672,6.6488547,-3.7404580000000003,2019-08-27 19:13:13,5.0
1002.0,-0.06402588,-0.026489257999999998,0.10430908,-10.687023,6.8702292,-3.59542,2019-08-27 19:13:13,5.0
1003.0,-0.052368164,-0.03253174,0.11486816400000001,-8.015267,5.473282299999999,-2.5267177000000003,2019-08-27 19:13:13,5.0
1004.0,-0.058532715,-0.033203125,0.11889648400000001,-3.2824428,4.114504,-4.0076336999999995,2019-08-27 19:13:13,5.0
1005.0,-0.047180176,-0.02947998,0.11877441400000001,-8.801527,8.045800999999999,-2.519084,2019-08-27 19:13:13,5.0
1006.0,-0.051513672,-0.020996094,0.11425781,-11.351144999999999,5.480916000000001,-2.3740457999999998,2019-08-27 19:13:13,5.0
1007.0,-0.043945312,-0.033935547,0.109313965,-11.770992,7.2442746,-2.0305343000000002,2019-08-27 19:13:13,5.0
1008.0,-0.054626465,-0.030944824,0.11303711,-14.480916,4.8702292,-1.3816794,2019-08-27 19:13:13,5.0
1009.0,-0.052734375,-0.03338623,0.12176514,-5.015267400000001,10.137404,-2.206107,2019-08-27 19:13:13,5.0
1010.0,-0.047973632999999995,-0.041015625,0.11224365,-10.687023,10.732824,-2.7480917000000002,2019-08-27 19:13:13,5.0
1011.0,-0.05267334,-0.04107666,0.107421875,-12.458015,6.015267400000001,-1.7175573,2019-08-27 19:13:13,5.0
1012.0,-0.04888916,-0.02734375,0.11010742,-6.480916000000001,3.5419848,-4.480916000000001,2019-08-27 19:13:13,5.0
1013.0,-0.049865723,-0.021850586,0.12109375,-4.3816795,5.0610685,-3.946565,2019-08-27 19:13:13,5.0
1014.0,-0.04833984400000001,-0.02557373,0.11859131,-17.57252,7.206106699999999,-4.236641400000001,2019-08-27 19:13:13,5.0
1015.0,-0.047668457000000004,-0.032958984,0.109436035,-15.206107000000001,8.0,-2.9923662999999996,2019-08-27 19:13:13,5.0
1016.0,-0.049621582000000004,-0.027282715,0.10839844,-10.061069,6.0992365,-2.8778627,2019-08-27 19:13:13,5.0
1017.0,-0.04901123,-0.035583496,0.11126709,-8.9007635,7.412214,-2.0305343000000002,2019-08-27 19:13:14,5.0
1018.0,-0.053527832000000004,-0.01965332,0.11840819999999999,-7.259542,8.450381,-3.076336,2019-08-27 19:13:14,5.0
1019.0,-0.049072265999999996,-0.030944824,0.12005615,-11.893129,7.290076299999999,-2.8091602000000004,2019-08-27 19:13:14,5.0
1020.0,-0.047180176,-0.03955078,0.11633301,-3.8015267999999995,3.7328242999999994,-1.8320610000000002,2019-08-27 19:13:14,5.0
1021.0,-0.04864502,-0.033935547,0.11157226599999999,-8.0,6.7557254,-3.0992367,2019-08-27 19:13:14,5.0
1022.0,-0.04888916,-0.028076172000000003,0.11401367,-6.0,5.3129773,-1.4885496,2019-08-27 19:13:14,5.0
1023.0,-0.056884765999999996,-0.027160645,0.12335205,-4.3893127,6.9541984,-3.351145,2019-08-27 19:13:14,5.0
1024.0,-0.051757812,-0.02923584,0.11688232400000001,-8.076336,5.259542,-2.6259542000000002,2019-08-27 19:13:14,5.0
1025.0,-0.049621582000000004,-0.033325195,0.11364746,-9.9007635,7.1450380000000004,-4.0992365,2019-08-27 19:13:14,5.0
1026.0,-0.05529785,-0.030639648,0.11480713,-11.80916,7.3511453,-3.3282442000000003,2019-08-27 19:13:14,5.0
1027.0,-0.049133300000000005,-0.033203125,0.11138916,-9.755725,7.465648700000001,-2.8244274,2019-08-27 19:13:14,5.0
1028.0,-0.047058105,-0.03277588,0.1116333,-9.328244,5.0992365,-1.259542,2019-08-27 19:13:14,5.0
1029.0,-0.050354004,-0.027648926,0.107543945,-1.6793894,4.1221375,-3.351145,2019-08-27 19:13:14,5.0
1030.0,-0.050964355,-0.026611327999999997,0.117126465,-7.625953999999999,8.503817,-3.129771,2019-08-27 19:13:14,5.0
1031.0,-0.05041504,-0.026123047000000003,0.11407471,-8.366412,4.961832,-2.1755726,2019-08-27 19:13:14,5.0
1032.0,-0.049682617000000005,-0.028503418,0.1182251,-4.0839696000000005,6.015267400000001,-2.038168,2019-08-27 19:13:14,5.0
1033.0,-0.057495117000000005,-0.03845215,0.11206055,-8.511451,7.6183205,-2.7328243,2019-08-27 19:13:14,5.0
1034.0,-0.050109863,-0.032409667999999996,0.11218262,-10.519084,7.7709923,-2.091603,2019-08-27 19:13:14,5.0
1035.0,-0.05114746,-0.035339355,0.11419678,-7.9541984,4.9541984,-2.7404580000000003,2019-08-27 19:13:14,5.0
1036.0,-0.049072265999999996,-0.031982422,0.11553955,-10.396947,8.320611,-1.7862595000000001,2019-08-27 19:13:14,5.0
1037.0,-0.05407715,-0.025024414,0.11315918,-8.236641,6.190840000000001,-1.389313,2019-08-27 19:13:14,5.0
1038.0,-0.054260254,-0.030883789,0.11175537,-5.2061067,6.1679387000000006,-2.1068702,2019-08-27 19:13:14,5.0
1039.0,-0.04937744,-0.025390625,0.11401367,-9.21374,7.1755724,-2.6717557999999997,2019-08-27 19:13:14,5.0
1040.0,-0.051696777,-0.023254395,0.11505127,-12.0992365,8.511451,-1.2748091000000001,2019-08-27 19:13:14,5.0
1041.0,-0.05987549,-0.030029297000000003,0.1171875,-11.091603,6.9847326,-2.221374,2019-08-27 19:13:14,5.0
1042.0,-0.055908203,-0.033325195,0.11621094,-15.335876999999998,9.053435,0.64122134,2019-08-27 19:13:14,5.0
1043.0,-0.052001953,-0.023132324,0.11401367,-1.2748091000000001,7.4274807,-1.9847328999999998,2019-08-27 19:13:14,5.0
1044.0,-0.053894042999999996,-0.030883789,0.107910156,-13.229007999999999,7.206106699999999,-3.076336,2019-08-27 19:13:14,5.0
1045.0,-0.05493164,-0.028869628999999997,0.11053467,1.038168,2.778626,-3.8931297999999996,2019-08-27 19:13:14,5.0
1046.0,-0.05706787,-0.023010253999999997,0.124938965,-5.3129773,5.984732599999999,-4.809159999999999,2019-08-27 19:13:14,5.0
1047.0,-0.052368164,-0.02368164,0.11224365,-8.137404,6.038168,-4.7557254,2019-08-27 19:13:14,5.0
1048.0,-0.04827881,-0.030029297000000003,0.11407471,-14.748092000000002,8.526717,-1.5954198999999998,2019-08-27 19:13:14,5.0
1049.0,-0.04473877,-0.028991700000000002,0.10986328,-1.8396946,4.3893127,-2.4503817999999997,2019-08-27 19:13:14,5.0
1050.0,-0.05126953,-0.036621094,0.117370605,-4.1755724,3.7557251000000003,-2.7404580000000003,2019-08-27 19:13:14,5.0
1051.0,-0.043762207000000004,-0.03363037,0.11773682,-10.2595415,4.633588,-3.1145039,2019-08-27 19:13:14,5.0
1052.0,-0.04876709,-0.024536132999999998,0.11248779,-8.938931,5.946564700000001,-2.7709923,2019-08-27 19:13:15,5.0
1053.0,-0.046875,-0.030639648,0.11950683599999999,-4.366412,5.908396700000001,-3.2748091,2019-08-27 19:13:15,5.0
1054.0,-0.055419922,-0.014526367,0.11706543,-10.145039,5.740458,-2.0839694,2019-08-27 19:13:15,5.0
1055.0,-0.05529785,-0.033081055,0.11193848,-11.412213000000001,7.793893300000001,-2.7404580000000003,2019-08-27 19:13:15,5.0
1056.0,-0.060546875,-0.027648926,0.10845947,-5.5648856,5.396946400000001,-3.9312977999999994,2019-08-27 19:13:15,5.0
1057.0,-0.044799805,-0.032714844,0.11437988,-8.282442999999999,6.259542,-3.1603053,2019-08-27 19:13:15,5.0
1058.0,-0.046813965,-0.025695799999999998,0.109558105,-8.160305000000001,5.854962,-3.4274809999999998,2019-08-27 19:13:15,5.0
1059.0,-0.047851562,-0.03137207,0.11022949,-8.145039,7.0076336999999995,-3.2900763,2019-08-27 19:13:15,5.0
1060.0,-0.05267334,-0.029296875,0.11090088,-11.656488000000001,7.412214,-3.6946564,2019-08-27 19:13:15,5.0
1061.0,-0.0435791,-0.032348632999999995,0.11212158,-12.702291,7.3206105,-1.7862595000000001,2019-08-27 19:13:15,5.0
1062.0,-0.052978515999999996,-0.0345459,0.11682129,-11.21374,8.145039,-2.0458016,2019-08-27 19:13:15,5.0
1063.0,-0.06323242,-0.029418945,0.11413574,-11.076336,6.396946400000001,-2.1755726,2019-08-27 19:13:15,5.0
1064.0,-0.053771973,-0.025817871000000003,0.11590576,-8.0,7.19084,-3.923664,2019-08-27 19:13:15,5.0
1065.0,-0.049072265999999996,-0.034057617000000005,0.117126465,-0.57251906,5.8702292,-3.0992367,2019-08-27 19:13:15,5.0
1066.0,-0.04425049,-0.035217285,0.111206055,-12.992367,8.603053,-3.4198472,2019-08-27 19:13:15,5.0
1067.0,-0.058166504,-0.02923584,0.11450195,-8.450381,7.442748,-1.7557251,2019-08-27 19:13:15,5.0
1068.0,-0.05218506,-0.029785156,0.11291504,-9.961832000000001,6.603053599999999,-2.961832,2019-08-27 19:13:15,5.0
1069.0,-0.06414795,-0.024780273,0.11633301,-10.374044999999999,7.0610685,-2.6488549999999997,2019-08-27 19:13:15,5.0
1070.0,-0.046691895,-0.032836914,0.11486816400000001,-6.2900763,5.8244276,-2.4045799999999997,2019-08-27 19:13:15,5.0
1071.0,-0.05895996,-0.027160645,0.111328125,-9.664123,7.335878,-3.2748091,2019-08-27 19:13:15,5.0
1072.0,-0.055725098,-0.024658202999999997,0.1161499,-9.534351,5.664122,-2.5801528,2019-08-27 19:13:15,5.0
1073.0,-0.047424315999999994,-0.029052734,0.117248535,-8.083969,5.961832,-3.3587787000000002,2019-08-27 19:13:15,5.0
1074.0,-0.055786132999999995,-0.034240723,0.11370849599999999,-8.450381,8.824428,-3.5496182000000003,2019-08-27 19:13:15,5.0
1075.0,-0.05419922,-0.03302002,0.11157226599999999,-7.5114503,4.5038165999999995,-1.8702290000000001,2019-08-27 19:13:15,5.0
1076.0,-0.05041504,-0.025878906,0.1161499,-8.183207000000001,5.5038165999999995,-2.923664,2019-08-27 19:13:15,5.0
1077.0,-0.052124023,-0.024414062,0.11035156,-8.847328,6.9465647,-1.6641221000000002,2019-08-27 19:13:15,5.0
1078.0,-0.05255127,-0.022338867000000002,0.11480713,-11.885496,7.7251906,-3.5648854,2019-08-27 19:13:15,5.0
1079.0,-0.061645507999999995,-0.028137207,0.122924805,-7.4732823,5.778626,-3.3816792999999996,2019-08-27 19:13:15,5.0
1080.0,-0.049072265999999996,-0.024047852,0.119262695,-8.603053,6.2900763,-2.2824428,2019-08-27 19:13:15,5.0
1081.0,-0.05279541,-0.02154541,0.11389160000000002,-6.8702292,6.59542,-1.8625953999999998,2019-08-27 19:13:15,5.0
1082.0,-0.050964355,-0.028564452999999997,0.11053467,-5.068702,4.4961834000000005,-1.4885496,2019-08-27 19:13:15,5.0
1083.0,-0.051208496,-0.025268555,0.11590576,-9.083969,6.7175574000000005,-1.9312977,2019-08-27 19:13:15,5.0
1084.0,-0.050231934000000006,-0.02947998,0.11773682,-8.198473,6.7175574000000005,-1.5877863,2019-08-27 19:13:15,5.0
1085.0,-0.046081542999999996,-0.028869628999999997,0.10913086,-9.671756,6.442748,-3.40458,2019-08-27 19:13:15,5.0
1086.0,-0.05609131,-0.030212402000000003,0.11169433599999999,-9.641221,6.7709923,-3.6412212999999998,2019-08-27 19:13:15,5.0
1087.0,-0.05230713,-0.02746582,0.11755371,-8.603053,6.969465700000001,-3.4580152,2019-08-27 19:13:15,5.0
1088.0,-0.04827881,-0.023986816,0.11834717,-9.129771,6.221374,-2.8549618999999997,2019-08-27 19:13:16,5.0
1089.0,-0.055480957000000004,-0.02947998,0.12084961,-10.541985,8.870229,-3.2595419999999997,2019-08-27 19:13:16,5.0
1090.0,-0.053710938,-0.03277588,0.11285400400000001,-10.305344,6.145038,-1.8091604,2019-08-27 19:13:16,5.0
1091.0,-0.061401367000000005,-0.024841309,0.11547851599999999,-8.725191,6.366412,-3.221374,2019-08-27 19:13:16,5.0
1092.0,-0.050231934000000006,-0.028869628999999997,0.11175537,-6.1297708,4.740458,-1.5419847,2019-08-27 19:13:16,5.0
1093.0,-0.047546387,-0.029663086,0.11730957,-12.480916,7.9541984,-2.8015267999999995,2019-08-27 19:13:16,5.0
1094.0,-0.057922363,-0.03375244,0.11407471,-10.21374,7.40458,-3.7480917000000002,2019-08-27 19:13:16,5.0
1095.0,-0.047607422,-0.027893066,0.11529541,-3.3969467000000004,4.2900763,-2.5267177000000003,2019-08-27 19:13:16,5.0
1096.0,-0.04449463,-0.022766112999999998,0.11529541,-5.7251905999999995,4.8015265,-3.3053436,2019-08-27 19:13:16,5.0
1097.0,-0.053649902,-0.01928711,0.11297607400000001,-2.8931298,4.0229006,-2.129771,2019-08-27 19:13:16,5.0
1098.0,-0.05328369,-0.033569336,0.11883545,-8.908397,5.847328,-2.6793892,2019-08-27 19:13:16,5.0
1099.0,-0.053955078,-0.02947998,0.10888672,-11.458015,7.4732823,-3.4580152,2019-08-27 19:13:16,5.0
1100.0,-0.045654297,-0.028320312,0.11340332,-10.610686999999999,6.5038165999999995,-2.8015267999999995,2019-08-27 19:13:16,5.0
1101.0,-0.041931152,-0.026367188,0.11633301,-4.3587785000000006,5.519083999999999,-2.2748091,2019-08-27 19:13:16,5.0
1102.0,-0.053649902,-0.032592773,0.11645508,-9.274809,5.740458,-2.0992367,2019-08-27 19:13:16,5.0
1103.0,-0.046691895,-0.024536132999999998,0.115112305,-3.3893129999999996,3.793893,-2.6793892,2019-08-27 19:13:16,5.0
1104.0,-0.05456543,-0.026428222999999997,0.11413574,-6.816794,6.9923663000000005,-2.4580152,2019-08-27 19:13:16,5.0
1105.0,-0.045288086,-0.01940918,0.11462402,-5.984732599999999,5.908396700000001,-1.8473282,2019-08-27 19:13:16,5.0
1106.0,-0.049133300000000005,-0.018432617,0.115356445,-7.0458016,5.3053436,-2.610687,2019-08-27 19:13:16,5.0
1107.0,-0.046813965,-0.026245117000000002,0.11193848,-10.648855000000001,8.473283,-3.1374047000000003,2019-08-27 19:13:16,5.0
1108.0,-0.051086426,-0.027709961,0.12042236,-7.9770994,6.70229,-2.0687022,2019-08-27 19:13:16,5.0
1109.0,-0.044006348,-0.040649414,0.11407471,-9.167939,7.076336,-2.5114503,2019-08-27 19:13:16,5.0
1110.0,-0.05303955,-0.032592773,0.1149292,-10.633588,5.473282299999999,-2.29771,2019-08-27 19:13:16,5.0
1111.0,-0.045837402,-0.029968262000000002,0.10803223,-7.7480917,6.183206,-3.038168,2019-08-27 19:13:16,5.0
1112.0,-0.05041504,-0.026428222999999997,0.11352539,-11.450381,6.7175574000000005,-2.6564887,2019-08-27 19:13:16,5.0
1113.0,-0.05242919999999999,-0.024047852,0.113464355,-3.4427480000000004,3.6106870000000004,-2.0152671000000004,2019-08-27 19:13:16,5.0
1114.0,-0.056274414,-0.028869628999999997,0.11694336,-7.900763499999999,5.885496,-1.8473282,2019-08-27 19:13:16,5.0
1115.0,-0.050048828,-0.026000977,0.11590576,-8.030535,6.923664,-2.9389312000000003,2019-08-27 19:13:16,5.0
1116.0,-0.046325684000000006,-0.030212402000000003,0.11639404,-4.526717700000001,5.1984735,-2.961832,2019-08-27 19:13:16,5.0
1117.0,-0.056884765999999996,-0.028991700000000002,0.115722656,-7.80916,6.4656487,-2.6335877999999995,2019-08-27 19:13:16,5.0
1118.0,-0.053100586,-0.026428222999999997,0.11175537,-9.656488000000001,8.603053,-4.4885497,2019-08-27 19:13:16,5.0
1119.0,-0.040893555,-0.029907227,0.10644531,-10.824428,7.4351144,-2.6488549999999997,2019-08-27 19:13:16,5.0
1120.0,-0.05065918,-0.027770996000000003,0.11303711,-3.4503817999999997,6.4198474999999995,-3.0,2019-08-27 19:13:16,5.0
1121.0,-0.051696777,-0.02758789,0.11657715,-6.6106872999999995,6.091603299999999,-1.1450381,2019-08-27 19:13:17,5.0
1122.0,-0.052490234000000004,-0.027893066,0.11425781,-3.1145039,4.763358599999999,-3.2900763,2019-08-27 19:13:17,5.0
1123.0,-0.046325684000000006,-0.034606934,0.11749267599999999,-7.7862597000000004,5.5114503,-3.0458016,2019-08-27 19:13:17,5.0
1124.0,-0.052124023,-0.025512695,0.11419678,-7.328244000000001,4.8320612999999994,-3.2748091,2019-08-27 19:13:17,5.0
1125.0,-0.045288086,-0.020324707,0.11248779,-9.755725,6.885496000000001,-2.9541984,2019-08-27 19:13:17,5.0
1126.0,-0.049194336,-0.02758789,0.11260986,-10.030535,7.206106699999999,-3.3893129999999996,2019-08-27 19:13:17,5.0
1127.0,-0.05706787,-0.02722168,0.117370605,-7.778625999999999,6.236641400000001,-2.0152671000000004,2019-08-27 19:13:17,5.0
1128.0,-0.05456543,-0.030639648,0.11462402,-6.709923700000001,5.908396700000001,-2.4885497,2019-08-27 19:13:17,5.0
1129.0,-0.05517578,-0.03564453,0.11627197,-0.8091603,4.4198474999999995,-3.8931297999999996,2019-08-27 19:13:17,5.0
1130.0,-0.05529785,-0.028991700000000002,0.113220215,-10.839694999999999,7.3129773,-3.3282442000000003,2019-08-27 19:13:17,5.0
1131.0,-0.051330565999999994,-0.027404785,0.11810303,-11.106871,5.8778625,-2.9007633,2019-08-27 19:13:17,5.0
1132.0,-0.05322265599999999,-0.029174805,0.1171875,-2.6946564,3.5190839999999994,-2.5038167999999996,2019-08-27 19:13:17,5.0
1133.0,-0.050476074,-0.030944824,0.1116333,-6.0305343,6.068702,-2.8854961,2019-08-27 19:13:17,5.0
1134.0,-0.051574707000000004,-0.024414062,0.11248779,-10.305344,7.183206,-2.312977,2019-08-27 19:13:17,5.0
1135.0,-0.05493164,-0.034240723,0.11340332,-8.251908,5.5038165999999995,-2.6793892,2019-08-27 19:13:17,5.0
1136.0,-0.058044434000000006,-0.026062012000000002,0.11773682,-6.1984735,7.3511453,-2.3587787000000002,2019-08-27 19:13:17,5.0
1137.0,-0.044555664,-0.03112793,0.11035156,-9.847328,7.3587785000000006,-2.480916,2019-08-27 19:13:17,5.0
1138.0,-0.057922363,-0.024169922000000003,0.11517334,-2.9007633,5.366412,-3.4732822999999997,2019-08-27 19:13:17,5.0
1139.0,-0.042053223,-0.033447266,0.10913086,-10.549619,7.847328,-3.3129769999999996,2019-08-27 19:13:17,5.0
1140.0,-0.05218506,-0.028686523,0.11627197,-12.305344,6.969465700000001,-4.1984735,2019-08-27 19:13:17,5.0
1141.0,-0.058044434000000006,-0.01776123,0.11279297,-6.0992365,6.656488400000001,-3.2290077,2019-08-27 19:13:17,5.0
1142.0,-0.046325684000000006,-0.023864746000000003,0.11730957,-10.526717,6.9389315,-1.8702290000000001,2019-08-27 19:13:17,5.0
1143.0,-0.045166015999999996,-0.03741455,0.11468506,-6.709923700000001,6.152672,-1.3282443000000002,2019-08-27 19:13:17,5.0
1144.0,-0.055603027,-0.030456543,0.117126465,-8.564885,6.656488400000001,-2.2671757,2019-08-27 19:13:17,5.0
1145.0,-0.05718994,-0.027160645,0.11834717,-4.656488400000001,5.190840000000001,-1.9847328999999998,2019-08-27 19:13:17,5.0
1146.0,-0.04510498,-0.030456543,0.11157226599999999,-10.297709,4.7938933,-1.4198473999999999,2019-08-27 19:13:17,5.0
1147.0,-0.05529785,-0.027526855,0.11407471,-7.763358599999999,4.6412214999999994,-1.9923664,2019-08-27 19:13:17,5.0
1148.0,-0.050842285,-0.028503418,0.113464355,-8.305344,4.5114503,-2.183206,2019-08-27 19:13:17,5.0
1149.0,-0.054138184000000006,-0.019714355,0.119140625,-6.259542,5.8702292,-2.6259542000000002,2019-08-27 19:13:17,5.0
1150.0,-0.045654297,-0.037963867000000005,0.11950683599999999,-10.129771,5.076336,-3.4580152,2019-08-27 19:13:17,5.0
1151.0,-0.05126953,-0.029418945,0.1171875,-5.854962,4.4580154,-1.4274809,2019-08-27 19:13:17,5.0
1152.0,-0.057006836,-0.032165527,0.111450195,-8.893129,8.412213000000001,-1.4122137,2019-08-27 19:13:17,5.0
1153.0,-0.059020996,-0.022644043,0.113220215,-8.2213745,7.80916,-3.7175572,2019-08-27 19:13:17,5.0
1154.0,-0.061828613,-0.02911377,0.11157226599999999,-3.1145039,6.6412214999999994,-3.59542,2019-08-27 19:13:17,5.0
1155.0,-0.05432129,-0.027709961,0.11395264,-7.4885497,5.931298,-2.1603053,2019-08-27 19:13:17,5.0
1156.0,-0.05078125,-0.024658202999999997,0.11260986,-9.282442999999999,5.2824425999999995,-2.3053436,2019-08-27 19:13:17,5.0
1157.0,-0.05456543,-0.028808594,0.11846924,-4.763358599999999,7.068702,-1.1297709999999999,2019-08-27 19:13:17,5.0
1158.0,-0.04925537,-0.032165527,0.11077881,-2.427481,5.5419846,-2.1221373,2019-08-27 19:13:18,5.0
1159.0,-0.05633545,-0.028320312,0.11596680000000001,-11.030535,7.19084,-2.4732822999999997,2019-08-27 19:13:18,5.0
1160.0,-0.05230713,-0.038269042999999996,0.11877441400000001,-11.687023,6.480916000000001,-2.1068702,2019-08-27 19:13:18,5.0
1161.0,-0.056030273,-0.020874023000000002,0.115112305,-12.671756,7.183206,-2.9694657,2019-08-27 19:13:18,5.0
1162.0,-0.054992676,-0.031921387,0.12084961,-6.969465700000001,5.6870227,-3.4351146,2019-08-27 19:13:18,5.0
1163.0,-0.052368164,-0.020629883,0.11254883,-7.076336,6.6412214999999994,-2.7862597,2019-08-27 19:13:18,5.0
1164.0,-0.04724121,-0.031311035,0.11743164,-8.526717,7.8244276,-2.5877862,2019-08-27 19:13:18,5.0
1165.0,-0.049804688,-0.030212402000000003,0.1161499,-10.0,7.3816795,-1.9389313000000001,2019-08-27 19:13:18,5.0
1166.0,-0.055786132999999995,-0.02960205,0.11401367,-10.488549,6.2900763,-1.6183206,2019-08-27 19:13:18,5.0
1167.0,-0.05456543,-0.022033691,0.11639404,-9.366412,5.9770994,-2.1755726,2019-08-27 19:13:18,5.0
1168.0,-0.058776855,-0.027526855,0.113464355,-3.7633588,5.221374,-1.5114504,2019-08-27 19:13:18,5.0
1169.0,-0.055908203,-0.028442382999999998,0.113098145,-4.2137402999999996,5.145038,-1.7328244,2019-08-27 19:13:18,5.0
1170.0,-0.051208496,-0.030639648,0.11273193,-9.450381,5.633588,-3.2137403,2019-08-27 19:13:18,5.0
1171.0,-0.047790527,-0.02746582,0.11627197,-12.847328,8.389313000000001,-4.259542,2019-08-27 19:13:18,5.0
1172.0,-0.054504395,-0.028442382999999998,0.11553955,-5.038168,4.152672,-2.5496182000000003,2019-08-27 19:13:18,5.0
1173.0,-0.047424315999999994,-0.028137207,0.11108398400000001,-6.5114503,5.3816795,-2.534351,2019-08-27 19:13:18,5.0
1174.0,-0.054016113,-0.021972656,0.10632324,-12.343511999999999,8.206107000000001,-5.5038165999999995,2019-08-27 19:13:18,5.0
1175.0,-0.055908203,-0.033447266,0.11785889,-7.10687,7.0610685,-5.587786,2019-08-27 19:13:18,5.0
1176.0,-0.056274414,-0.03479004,0.114746094,-15.450381,7.5801525,-4.931298,2019-08-27 19:13:18,5.0
1177.0,-0.05255127,-0.024719237999999998,0.11486816400000001,-10.755725,4.847328,-1.4045801000000002,2019-08-27 19:13:18,5.0
1178.0,-0.05126953,-0.018920898000000002,0.11889648400000001,-4.5648856,4.5419846,-1.961832,2019-08-27 19:13:18,5.0
1179.0,-0.05657959,-0.031311035,0.11907959,-1.70229,3.076336,-1.5801526000000001,2019-08-27 19:13:18,5.0
1180.0,-0.052001953,-0.030578612999999998,0.11444092,-12.465649,6.2442746,-2.7862597,2019-08-27 19:13:18,5.0
1181.0,-0.051452637,-0.029052734,0.10888672,-11.412213000000001,8.473283,-3.1374047000000003,2019-08-27 19:13:18,5.0
1182.0,-0.047424315999999994,-0.028442382999999998,0.11517334,-15.030535,7.5267177,-3.6793892,2019-08-27 19:13:18,5.0
1183.0,-0.05615234400000001,-0.039489746,0.11694336,-14.954199,7.236641400000001,-2.8625952999999997,2019-08-27 19:13:18,5.0
1184.0,-0.052612305,-0.026611327999999997,0.11193848,-9.19084,7.221374000000001,-2.70229,2019-08-27 19:13:18,5.0
1185.0,-0.05596924,-0.027832031,0.11126709,-9.412213000000001,8.038167999999999,-2.5267177000000003,2019-08-27 19:13:18,5.0
1186.0,-0.049072265999999996,-0.033813477,0.11096191400000001,-13.923664000000002,6.709923700000001,-2.076336,2019-08-27 19:13:18,5.0
1187.0,-0.05279541,-0.03302002,0.11437988,-7.0458016,5.335878,-3.7862597,2019-08-27 19:13:18,5.0
1188.0,-0.053527832000000004,-0.034301757999999995,0.11791992,-3.8244274,5.8244276,-3.1603053,2019-08-27 19:13:18,5.0
1189.0,-0.05053711,-0.036010742000000005,0.111450195,-12.022901,8.297709,-2.9541984,2019-08-27 19:13:18,5.0
1190.0,-0.058166504,-0.03656006,0.11230469,-7.961832000000001,7.709923700000001,-2.1526718,2019-08-27 19:13:18,5.0
1191.0,-0.049438477,-0.02709961,0.11694336,-11.465649,5.984732599999999,-2.3969467,2019-08-27 19:13:18,5.0
1192.0,-0.05328369,-0.033508300000000005,0.11279297,-11.595419999999999,5.8625956,-3.221374,2019-08-27 19:13:18,5.0
1193.0,-0.053955078,-0.032043457000000004,0.109313965,-8.954199000000001,7.328244000000001,-3.6183207000000004,2019-08-27 19:13:18,5.0
1194.0,-0.05529785,-0.036193848,0.11853027,-12.396947,7.038167999999999,-2.0687022,2019-08-27 19:13:18,5.0
1195.0,-0.05822754,-0.035217285,0.11090088,-6.328244000000001,5.6183205,-3.0076337000000004,2019-08-27 19:13:18,5.0
1196.0,-0.05303955,-0.032165527,0.11315918,-8.938931,6.8320612999999994,-3.2442749,2019-08-27 19:13:19,5.0
1197.0,-0.057861328,-0.029663086,0.11529541,-8.938931,6.3206105,-5.2977099999999995,2019-08-27 19:13:19,5.0
1198.0,-0.047729492000000005,-0.029296875,0.11303711,-12.664123,9.297709,-3.7404580000000003,2019-08-27 19:13:19,5.0
1199.0,-0.052001953,-0.029296875,0.10906982400000001,-13.954199,7.847328,-3.4503817999999997,2019-08-27 19:13:19,5.0
1200.0,-0.046875,-0.028015137000000002,0.10723877,-10.2213745,6.7175574000000005,-3.4809160000000006,2019-08-27 19:13:19,5.0
1201.0,-0.05340576,-0.026794434,0.11682129,-10.152672,6.603053599999999,-2.70229,2019-08-27 19:13:19,5.0
1202.0,-0.045959473,-0.037719727,0.11224365,-12.580152499999999,7.259542,-3.70229,2019-08-27 19:13:19,5.0
1203.0,-0.054382324,-0.03656006,0.11608887,-10.625955000000001,6.480916000000001,-3.2519082999999998,2019-08-27 19:13:19,5.0
1204.0,-0.050109863,-0.03479004,0.11840819999999999,-9.022901,5.3129773,-2.389313,2019-08-27 19:13:19,5.0
1205.0,-0.052490234000000004,-0.04046631,0.11407471,-8.641221,5.526717700000001,-1.5954198999999998,2019-08-27 19:13:19,5.0
1206.0,-0.058044434000000006,-0.03125,0.11627197,-12.290076,6.366412,-1.3206106000000002,2019-08-27 19:13:19,5.0
1207.0,-0.05493164,-0.033203125,0.11340332,-14.267176000000001,9.870229,-2.9389312000000003,2019-08-27 19:13:19,5.0
1208.0,-0.051818848,-0.028259277000000003,0.11303711,-10.793892999999999,7.40458,-2.7251909,2019-08-27 19:13:19,5.0
1209.0,-0.05480957,-0.03302002,0.11370849599999999,-11.984733,6.778625999999999,-2.6488549999999997,2019-08-27 19:13:19,5.0
1210.0,-0.046447754,-0.030334472999999997,0.10736084,-11.557252,7.5038165999999995,-3.0992367,2019-08-27 19:13:19,5.0
1211.0,-0.060180664,-0.02746582,0.11431885,-11.351144999999999,9.312977,-2.9160306,2019-08-27 19:13:19,5.0
1212.0,-0.053955078,-0.03894043,0.10803223,-8.694656,6.740458,-2.687023,2019-08-27 19:13:19,5.0
1213.0,-0.051940917999999996,-0.038269042999999996,0.10668945,-13.305344,8.038167999999999,-3.40458,2019-08-27 19:13:19,5.0
1214.0,-0.047180176,-0.036865234,0.11010742,-18.274809,8.633588,-3.6412212999999998,2019-08-27 19:13:19,5.0
1215.0,-0.05596924,-0.042785645,0.11547851599999999,-10.954199000000001,6.8549619999999996,-3.2748091,2019-08-27 19:13:19,5.0
1216.0,-0.047668457000000004,-0.03161621,0.11090088,-12.030535,7.4351144,-2.5038167999999996,2019-08-27 19:13:19,5.0
1217.0,-0.058166504,-0.039794922,0.11431885,-10.358779,6.5419846,-3.3969467000000004,2019-08-27 19:13:19,5.0
1218.0,-0.048950195,-0.036499023,0.10974121,-12.106871,6.480916000000001,-2.572519,2019-08-27 19:13:19,5.0
1219.0,-0.04840088,-0.041259766,0.11138916,-6.709923700000001,5.053435299999999,-3.0992367,2019-08-27 19:13:19,5.0
1220.0,-0.05206299,-0.03643799,0.10644531,-11.175572,7.3511453,-3.778626,2019-08-27 19:13:19,5.0
1221.0,-0.06213379,-0.038208007999999995,0.109313965,-6.0992365,4.8015265,-1.1603054,2019-08-27 19:13:19,5.0
1222.0,-0.059143065999999994,-0.041931152,0.11218262,-7.3129773,4.8244276,-2.870229,2019-08-27 19:13:19,5.0
1223.0,-0.04547119,-0.039611816,0.109375,-13.175572,7.2519083,-2.4198472,2019-08-27 19:13:19,5.0
1224.0,-0.053344727,-0.034240723,0.11303711,-12.992367,5.6946564,-2.2442749,2019-08-27 19:13:19,5.0
1225.0,-0.051574707000000004,-0.033691406,0.111328125,-9.358779,5.236641400000001,-1.091603,2019-08-27 19:13:19,5.0
1226.0,-0.057739257999999995,-0.036010742000000005,0.1071167,-12.435115,6.5038165999999995,-2.778626,2019-08-27 19:13:19,5.0
1227.0,-0.05328369,-0.037597656,0.113342285,-6.396946400000001,5.3587785000000006,-2.6641220000000003,2019-08-27 19:13:19,5.0
1228.0,-0.050354004,-0.03729248,0.109436035,-2.832061,5.0458016,-3.8167940000000002,2019-08-27 19:13:19,5.0
1229.0,-0.053466797,-0.03894043,0.109191895,-10.358779,7.152672,-3.5572519999999996,2019-08-27 19:13:20,5.0
1230.0,-0.053710938,-0.03845215,0.10546875,-10.877863,6.89313,-3.3664122000000005,2019-08-27 19:13:20,5.0
1231.0,-0.049804688,-0.028320312,0.10668945,-5.9923663000000005,7.1297708,-2.2519082999999998,2019-08-27 19:13:20,5.0
1232.0,-0.051818848,-0.032714844,0.11059569999999999,-1.0763359,6.70229,-3.961832,2019-08-27 19:13:20,5.0
1233.0,-0.057373047,-0.043029785,0.111450195,-6.328244000000001,7.091603299999999,-2.908397,2019-08-27 19:13:20,5.0
1234.0,-0.053344727,-0.030029297000000003,0.11267089999999998,-6.190840000000001,5.9541984,-2.4580152,2019-08-27 19:13:20,5.0
1235.0,-0.04498291,-0.04663086,0.10980224599999999,-7.7709923,6.9160304,-3.5877862,2019-08-27 19:13:20,5.0
1236.0,-0.04833984400000001,-0.04107666,0.10723877,-11.022901,5.8320612999999994,-2.8473282,2019-08-27 19:13:20,5.0
1237.0,-0.05645752,-0.030883789,0.11065674,-8.442748,6.8778625,-3.091603,2019-08-27 19:13:20,5.0
1238.0,-0.05255127,-0.035461426000000004,0.11090088,-10.19084,6.3587785000000006,-2.6412212999999998,2019-08-27 19:13:20,5.0
