measurement,Acc_X,Acc_Y,Acc_Z,Gyr_X,Gyr_Y,Gyr_Z,Time(hh:mm:ss),Label
114.0,0.12243652,-0.034240723,0.015014648,12.045800999999999,1.221374,-5.1984735,2019-09-09 13:58:39,12.0
115.0,0.119262695,-0.028625487999999998,0.00970459,24.641222,-3.832061,-7.6946563999999995,2019-09-09 13:58:39,12.0
116.0,0.11920166,-0.026245117000000002,0.0068969727,29.992366999999998,-5.068702,-11.839694999999999,2019-09-09 13:58:39,12.0
117.0,0.1227417,-0.018737793,0.008911133,30.259542,-7.6793895,-13.21374,2019-09-09 13:58:39,12.0
118.0,0.12567139,-0.024169922000000003,0.005554199,18.832062,-3.8854961,-12.465649,2019-09-09 13:58:39,12.0
119.0,0.12384033,-0.021240234,0.007385254,12.938931,-4.3587785000000006,-12.122137,2019-09-09 13:58:39,12.0
120.0,0.123535156,-0.026672362999999998,0.0064697266000000005,7.5038165999999995,-1.7175573,-9.068703,2019-09-09 13:58:39,12.0
121.0,0.12377930000000001,-0.022033691,0.003112793,3.7251909,-0.8091603,-7.099236500000001,2019-09-09 13:58:39,12.0
122.0,0.13568115,-0.02319336,0.0031738281,3.2137403,2.8854961,-5.2061067,2019-09-09 13:58:39,12.0
123.0,0.1182251,-0.028381347999999997,0.0048828125,11.488549,2.519084,-3.221374,2019-09-09 13:58:39,12.0
124.0,0.12585449,-0.018920898000000002,0.00592041,5.374046,8.389313000000001,-1.5419847,2019-09-09 13:58:39,12.0
125.0,0.12518310000000002,-0.015258788999999998,0.0064086914,-4.854962,5.946564700000001,-3.183206,2019-09-09 13:58:39,12.0
126.0,0.125,-0.0234375,0.00970459,-5.1679387000000006,7.4503818,-0.16793893,2019-09-09 13:58:39,12.0
127.0,0.121032715,-0.017089844,0.011352538999999998,-10.106871,5.396946400000001,-2.9847328999999996,2019-09-09 13:58:39,12.0
128.0,0.12957764,-0.016845703,0.0146484375,-6.5725193,5.335878,-6.2671757,2019-09-09 13:58:39,12.0
129.0,0.12030029,-0.020751953,0.012512207,-6.3893127,2.7557251,-5.816794,2019-09-09 13:58:39,12.0
130.0,0.125,-0.019836426,0.012207031,-4.847328,3.8167940000000002,-6.526717700000001,2019-09-09 13:58:39,12.0
131.0,0.11993408,-0.023498535,0.009338379,-3.1450381000000003,4.343511599999999,-5.7862597000000004,2019-09-09 13:58:39,12.0
132.0,0.12219238,-0.024108887000000002,0.008850098,1.6030535,2.3435113,-5.0,2019-09-09 13:58:39,12.0
133.0,0.12762451,-0.021606445,0.006958008000000001,-3.3358779999999997,3.923664,-4.2290077,2019-09-09 13:58:39,12.0
134.0,0.11950683599999999,-0.01739502,0.0068969727,-5.0839696,6.2519083,-3.832061,2019-09-09 13:58:39,12.0
135.0,0.122924805,-0.022583007999999998,0.007873535,-2.2137403,3.9770992,-3.7862597,2019-09-09 13:58:39,12.0
136.0,0.123168945,-0.024169922000000003,0.007629394499999999,-1.0076336,4.89313,-1.7328244,2019-09-09 13:58:39,12.0
137.0,0.13018799,-0.023132324,0.007690429699999999,-7.236641400000001,8.19084,-2.183206,2019-09-09 13:58:39,12.0
138.0,0.12030029,-0.022521972999999997,0.00793457,-7.091603299999999,9.969465,-0.41221374,2019-09-09 13:58:39,12.0
139.0,0.12457275400000001,-0.022094727,0.01184082,-12.366412,10.083969,0.061068702,2019-09-09 13:58:39,12.0
140.0,0.12823486,-0.022155762000000002,0.0053710938,-6.2977099999999995,10.122137,0.22900763,2019-09-09 13:58:39,12.0
141.0,0.12097168,-0.018859863,0.010925293,-9.496183,8.297709,3.206107,2019-09-09 13:58:39,12.0
142.0,0.11877441400000001,-0.027893066,0.007385254,-1.7175573,6.2137402999999996,-1.9923664,2019-09-09 13:58:39,12.0
143.0,0.12408447,-0.022583007999999998,0.0067749023,-0.41221374,3.7709922999999996,-1.221374,2019-09-09 13:58:39,12.0
144.0,0.11291504,-0.023071289,0.007873535,-4.328244000000001,4.923664,-2.5496182000000003,2019-09-09 13:58:39,12.0
145.0,0.120910645,-0.018310547,0.010681152,0.28244275,3.70229,-2.5038167999999996,2019-09-09 13:58:39,12.0
146.0,0.12298584,-0.026733398,0.01184082,0.73282444,3.3358779999999997,-0.45801526,2019-09-09 13:58:39,12.0
147.0,0.12261963,-0.026794434,0.012817383,1.2137405,2.7099237,0.0,2019-09-09 13:58:39,12.0
148.0,0.11462402,-0.02130127,0.008178711,-4.068702,2.5954200000000003,0.41984734,2019-09-09 13:58:39,12.0
149.0,0.13171387,-0.025146484,0.005126953,-5.3206105,5.0076336999999995,1.2290076,2019-09-09 13:58:40,12.0
150.0,0.12713623,-0.016479492,0.0043945312,-3.6641220000000003,4.343511599999999,2.5954200000000003,2019-09-09 13:58:40,12.0
151.0,0.12786865,-0.02142334,0.009765625,-9.587786999999999,8.977099,2.8549618999999997,2019-09-09 13:58:40,12.0
152.0,0.12213135,-0.015258788999999998,0.010314941,-13.290076000000001,9.038167999999999,3.5725190000000002,2019-09-09 13:58:40,12.0
153.0,0.12170410000000002,-0.017089844,0.006164551,-28.183207,11.068703,2.7099237,2019-09-09 13:58:40,12.0
154.0,0.121154785,-0.007873535,0.0013427734,-37.290077000000004,9.893129,2.870229,2019-09-09 13:58:40,12.0
155.0,0.12945557,-0.014892578,0.00018310547,-43.190838,14.893129,2.9160306,2019-09-09 13:58:40,12.0
156.0,0.11846924,-0.018859863,-6.1035155999999994e-05,-48.381679999999996,12.938931,1.351145,2019-09-09 13:58:40,12.0
157.0,0.12054443,-0.021484375,-0.0013427734,-39.809162,10.7786255,-1.1450381,2019-09-09 13:58:40,12.0
158.0,0.1227417,-0.024169922000000003,-0.0037231445,-41.93893,8.854961,-3.1908397999999996,2019-09-09 13:58:40,12.0
159.0,0.123535156,-0.025756836,-0.0008544922000000001,-32.618320000000004,8.404580000000001,-4.0152674,2019-09-09 13:58:40,12.0
160.0,0.124816895,-0.024841309,0.008300781,-37.343509999999995,9.832061,-4.6870227,2019-09-09 13:58:40,12.0
161.0,0.1182251,-0.02532959,0.013122558999999999,-41.335876,3.0076337000000004,-7.9847326,2019-09-09 13:58:40,12.0
162.0,0.12341308599999999,-0.026550293,0.012084961000000002,-44.885498,4.2748094000000005,-9.580152499999999,2019-09-09 13:58:40,12.0
163.0,0.11981201,-0.03100586,0.01550293,-40.91603,4.3511453,-11.7786255,2019-09-09 13:58:40,12.0
164.0,0.117248535,-0.035339355,0.012084961000000002,-37.320609999999995,0.97709924,-14.129771,2019-09-09 13:58:40,12.0
165.0,0.1227417,-0.038635254,0.0154418945,-20.358778,-4.664122,-16.183207,2019-09-09 13:58:40,12.0
166.0,0.119018555,-0.03942871,0.016052246000000003,-6.2671757,-8.763359,-17.717558,2019-09-09 13:58:40,12.0
167.0,0.12042236,-0.02154541,0.009277344,-1.1679389999999998,-8.80916,-18.664122,2019-09-09 13:58:40,12.0
168.0,0.1149292,-0.025756836,0.0072021483999999995,1.8778626,-4.5801525000000005,-11.816792999999999,2019-09-09 13:58:40,12.0
169.0,0.12591553,-0.024597168,0.011108398,-8.053435,1.4274809,-3.7175572,2019-09-09 13:58:40,12.0
170.0,0.12243652,-0.027832031,0.005737304699999999,-4.3587785000000006,9.717557000000001,0.43511450000000007,2019-09-09 13:58:40,12.0
171.0,0.11553955,-0.027648926,0.0072631836,2.5877862,9.885496,-2.70229,2019-09-09 13:58:40,12.0
172.0,0.12023926,-0.026672362999999998,0.006042480500000001,7.8549619999999996,6.2137402999999996,0.70229006,2019-09-09 13:58:40,12.0
173.0,0.1260376,-0.026184082,0.007385254,4.3893127,7.6106872999999995,-2.9770992,2019-09-09 13:58:40,12.0
174.0,0.12097168,-0.018798828,0.007385254,2.0305343000000002,6.839694500000001,-0.77099234,2019-09-09 13:58:40,12.0
175.0,0.120910645,-0.022460938,0.0017089844000000001,2.778626,5.2442746,-3.1908397999999996,2019-09-09 13:58:40,12.0
176.0,0.12921143,-0.025878906,0.009094238000000001,1.1908396,7.6183205,-4.3893127,2019-09-09 13:58:40,12.0
177.0,0.12524414,-0.024108887000000002,0.0061035156000000005,-4.923664,4.1984735,-5.740458,2019-09-09 13:58:40,12.0
178.0,0.1281128,-0.022705077999999997,0.0071411133,-3.5419848,3.2824428,-3.7328242999999994,2019-09-09 13:58:40,12.0
179.0,0.12750244,-0.022888184,0.00579834,6.221374,0.5954198,-3.3053436,2019-09-09 13:58:40,12.0
180.0,0.12469482400000001,-0.027282715,0.008117675999999999,13.389313000000001,0.24427481,-4.526717700000001,2019-09-09 13:58:40,12.0
181.0,0.125,-0.024414062,-0.0013427734,23.57252,1.6641221000000002,-6.0992365,2019-09-09 13:58:40,12.0
182.0,0.1260376,-0.020996094,0.005126953,35.091602,-0.31297709999999995,-6.778625999999999,2019-09-09 13:58:40,12.0
183.0,0.117370605,-0.017578125,0.006164551,36.809162,2.0687022,-7.030534299999999,2019-09-09 13:58:40,12.0
184.0,0.12408447,-0.017333984,0.005126953,24.816793,1.7557251,-4.236641400000001,2019-09-09 13:58:41,12.0
185.0,0.1239624,-0.015014648,0.0073242188,25.923664000000002,-0.28244275,-7.152672,2019-09-09 13:58:41,12.0
186.0,0.12286377,-0.017700195,0.00592041,17.671754999999997,-1.9160305,-6.5801525,2019-09-09 13:58:41,12.0
187.0,0.12237549,-0.012207031,0.0056152343999999995,19.007633,-2.1221373,-7.89313,2019-09-09 13:58:41,12.0
188.0,0.12719727,-0.020507812,0.004211426,16.694656,-3.6946564,-9.236641,2019-09-09 13:58:41,12.0
189.0,0.12438965,-0.020935059,0.005432129,20.87023,-3.1984732000000005,-9.580152499999999,2019-09-09 13:58:41,12.0
190.0,0.12579346,-0.020080566,0.004211426,25.763360000000002,-0.2519084,-6.5725193,2019-09-09 13:58:41,12.0
191.0,0.12792969,-0.022766112999999998,0.0056152343999999995,21.770992,5.526717700000001,-3.2366412,2019-09-09 13:58:41,12.0
192.0,0.13092041,-0.017333984,-0.0032958984000000004,20.541985,8.687023,0.8778626,2019-09-09 13:58:41,12.0
193.0,0.120910645,-0.021606445,-0.0010986328,17.778625,15.549619,7.5038165999999995,2019-09-09 13:58:41,12.0
194.0,0.13018799,-0.01940918,-0.0010986328,13.61832,18.152672,12.061069,2019-09-09 13:58:41,12.0
195.0,0.11956787,-0.018920898000000002,0.0045776367,6.709923700000001,20.38168,14.015267000000001,2019-09-09 13:58:41,12.0
196.0,0.12426758,-0.024169922000000003,0.004699707,3.946565,17.06107,15.389313000000001,2019-09-09 13:58:41,12.0
197.0,0.12347412,-0.026489257999999998,0.0036621094,10.641221,8.236641,9.549619,2019-09-09 13:58:41,12.0
198.0,0.120910645,-0.01928711,0.0034179688000000002,11.274809,1.5725191,5.961832,2019-09-09 13:58:41,12.0
199.0,0.122558594,-0.022583007999999998,-0.00048828125,18.755726,-3.053435,-3.5725190000000002,2019-09-09 13:58:41,12.0
200.0,0.1303711,-0.018310547,-6.1035155999999994e-05,29.717558,-6.3587785000000006,-11.022901,2019-09-09 13:58:41,12.0
201.0,0.12438965,-0.010131836,0.006042480500000001,21.198473,-2.9389312000000003,-11.106871,2019-09-09 13:58:41,12.0
202.0,0.12585449,-0.009887695,0.006042480500000001,0.6946565,1.4885496,-6.9541984,2019-09-09 13:58:41,12.0
203.0,0.12243652,-0.0068359375,0.0034790040000000004,-3.7480917000000002,-1.0229008,-4.5343513,2019-09-09 13:58:41,12.0
204.0,0.12609863,-0.014831543,0.007751465,-1.4503816,2.5648854,-4.1221375,2019-09-09 13:58:41,12.0
205.0,0.1270752,-0.011047363000000001,0.004028320300000001,-6.4274807,0.99236643,-1.4503816,2019-09-09 13:58:41,12.0
206.0,0.12792969,-0.016296387,0.00592041,3.4732822999999997,4.89313,-3.7557251000000003,2019-09-09 13:58:41,12.0
207.0,0.12573242,-0.018066406,0.0037231445,-1.5267175,3.0458016,-1.3358778999999998,2019-09-09 13:58:41,12.0
208.0,0.12347412,-0.015014648,0.0017700195,-0.8854962,3.6335877999999995,-1.4580153,2019-09-09 13:58:41,12.0
209.0,0.12957764,-0.020690918,0.001159668,3.0229008,7.1221375,-2.2442749,2019-09-09 13:58:41,12.0
210.0,0.12579346,-0.014892578,0.0010375977,0.33587787,8.381680000000001,-3.5877862,2019-09-09 13:58:41,12.0
211.0,0.13269043,-0.01763916,0.0030517578000000003,-5.5114503,7.5267177,-2.3358779999999997,2019-09-09 13:58:41,12.0
212.0,0.13446045,-0.022399902000000003,-0.0013427734,-9.19084,9.496183,0.32061067,2019-09-09 13:58:41,12.0
213.0,0.12139892599999999,-0.020812988,0.0006103515599999999,-16.656488,10.847328,3.534351,2019-09-09 13:58:41,12.0
214.0,0.11621094,-0.020935059,0.005126953,-15.656488000000001,14.374045,4.519083999999999,2019-09-09 13:58:41,12.0
215.0,0.119140625,-0.019714355,0.0006713867,-14.458015,12.610686999999999,4.2900763,2019-09-09 13:58:41,12.0
216.0,0.11645508,-0.019226074,0.006652831999999999,-20.832062,14.290076000000001,6.839694500000001,2019-09-09 13:58:41,12.0
217.0,0.11682129,-0.016845703,0.008239746,-25.549618,17.267176,4.7022900000000005,2019-09-09 13:58:41,12.0
218.0,0.117248535,-0.014587402,0.0078125,-31.335878000000005,14.122137,5.10687,2019-09-09 13:58:41,12.0
219.0,0.119628906,-0.014465332,0.012207031,-37.473279999999995,12.022901,3.0458016,2019-09-09 13:58:41,12.0
220.0,0.12054443,-0.027648926,0.0107421875,-35.290077000000004,7.40458,-1.5267175,2019-09-09 13:58:42,12.0
221.0,0.12048339999999998,-0.035095215,0.011047363000000001,-32.53435,3.1068702,-4.10687,2019-09-09 13:58:42,12.0
222.0,0.12512207,-0.030578612999999998,0.006225586,-24.389313,1.480916,-8.2213745,2019-09-09 13:58:42,12.0
223.0,0.12927246,-0.028320312,0.012084961000000002,-20.175573,-0.10687023,-11.198473,2019-09-09 13:58:42,12.0
224.0,0.13104248,-0.030761719,0.008117675999999999,-9.122137,-1.1297709999999999,-11.839694999999999,2019-09-09 13:58:42,12.0
225.0,0.13140869,-0.027160645,0.010375977,-10.496183,3.793893,-8.7404585,2019-09-09 13:58:42,12.0
226.0,0.1260376,-0.028198242000000002,0.014343261999999999,-12.328244,7.6488547,-2.6793892,2019-09-09 13:58:42,12.0
227.0,0.12286377,-0.02734375,0.009033203,-7.152672,11.7786255,0.6335878,2019-09-09 13:58:42,12.0
228.0,0.11694336,-0.029724121000000003,0.009399414,3.6183207000000004,8.145039,-1.6259542,2019-09-09 13:58:42,12.0
229.0,0.12280273400000001,-0.014709473,0.008178711,8.572519,8.564885,-0.9312976999999999,2019-09-09 13:58:42,12.0
230.0,0.12023926,-0.017944336,0.008483886999999999,3.0992367,7.4274807,-0.9465648999999999,2019-09-09 13:58:42,12.0
231.0,0.115356445,-0.018859863,0.010192871,3.7404580000000003,6.1374044,0.6793893,2019-09-09 13:58:42,12.0
232.0,0.12182617,-0.015319824,0.006225586,-5.9007635,4.6946564,-3.961832,2019-09-09 13:58:42,12.0
233.0,0.12231445,-0.020996094,0.005554199,-9.832061,5.4656487,-1.0534351,2019-09-09 13:58:42,12.0
234.0,0.121032715,-0.01953125,0.003967285,-10.106871,4.9923663000000005,-2.2366412,2019-09-09 13:58:42,12.0
235.0,0.12762451,-0.024108887000000002,0.005004883,-7.10687,5.7251905999999995,-1.0610687,2019-09-09 13:58:42,12.0
236.0,0.13201904,-0.022216797000000003,0.0025024414000000004,-6.038168,6.7480917,-1.5267175,2019-09-09 13:58:42,12.0
237.0,0.12573242,-0.02508545,0.0037231445,-4.3129773,8.343511999999999,-1.0763359,2019-09-09 13:58:42,12.0
238.0,0.12414551,-0.025024414,0.0071411133,-1.1297709999999999,4.587786,1.2671756,2019-09-09 13:58:42,12.0
239.0,0.12408447,-0.023498535,0.0037841796999999997,-3.2366412,8.045800999999999,0.46564886,2019-09-09 13:58:42,12.0
240.0,0.12506104,-0.018127441,0.006164551,-5.183206,7.3893127000000005,1.3282443000000002,2019-09-09 13:58:42,12.0
241.0,0.11352539,-0.020446777,0.004211426,-5.4351144,8.106871,0.9389313,2019-09-09 13:58:42,12.0
242.0,0.12518310000000002,-0.0211792,0.0040893555,-6.9923663000000005,9.664123,-2.5954200000000003,2019-09-09 13:58:42,12.0
243.0,0.12280273400000001,-0.021850586,0.0037231445,-9.267176,11.251908,-2.0229008,2019-09-09 13:58:42,12.0
244.0,0.12164307,-0.020385742,0.008056641,-14.503817000000002,14.473282999999999,-2.7175572,2019-09-09 13:58:42,12.0
245.0,0.11468506,-0.020935059,0.007080078,-18.961832,12.21374,-1.5496184,2019-09-09 13:58:42,12.0
246.0,0.12170410000000002,-0.020690918,0.008056641,-17.954199,11.290076,2.4885497,2019-09-09 13:58:42,12.0
247.0,0.12756348,-0.025268555,0.007629394499999999,-21.580153,13.175572,4.4503818,2019-09-09 13:58:42,12.0
248.0,0.12854004,-0.020629883,0.010437011999999999,-14.824428,13.267176000000001,3.6564887,2019-09-09 13:58:42,12.0
249.0,0.121276855,-0.026977539,0.00982666,-26.244274,13.847328,4.1297708,2019-09-09 13:58:42,12.0
250.0,0.12145996,-0.030395507999999998,0.010253906,-19.473282,11.435115,1.2519083999999998,2019-09-09 13:58:42,12.0
251.0,0.118652344,-0.032714844,0.009338379,-13.427481,6.656488400000001,-0.26717559,2019-09-09 13:58:42,12.0
252.0,0.118652344,-0.03112793,0.011352538999999998,-13.603053,5.3053436,-0.030534351,2019-09-09 13:58:42,12.0
253.0,0.11395264,-0.025390625,0.012878418,-16.519083,5.7251905999999995,0.7099236999999999,2019-09-09 13:58:42,12.0
254.0,0.118652344,-0.02935791,0.011230469,-11.603053,4.2900763,1.0839695,2019-09-09 13:58:42,12.0
255.0,0.12152099599999999,-0.029724121000000003,0.014587402,-12.541985,2.4351146,-2.1984732000000005,2019-09-09 13:58:42,12.0
256.0,0.12060547,-0.03466797,0.010192871,-7.7328243,1.5343511,-0.99236643,2019-09-09 13:58:43,12.0
257.0,0.12194824,-0.034362792999999996,0.01171875,1.1603054,-1.7251908999999999,-3.2290077,2019-09-09 13:58:43,12.0
258.0,0.12896729,-0.036499023,0.015808105,14.709923999999999,-4.5038165999999995,-7.480916000000001,2019-09-09 13:58:43,12.0
259.0,0.1239624,-0.03314209,0.013549805,12.610686999999999,0.099236645,-5.2900763,2019-09-09 13:58:43,12.0
260.0,0.1270752,-0.024108887000000002,0.011230469,7.603053599999999,3.2595419999999997,-7.3816795,2019-09-09 13:58:43,12.0
261.0,0.12689209,-0.032470703,0.0036010741999999997,4.190840000000001,2.2824428,-3.206107,2019-09-09 13:58:43,12.0
262.0,0.12438965,-0.023071289,0.005737304699999999,10.175572,0.8396947,-3.9312977999999994,2019-09-09 13:58:43,12.0
263.0,0.11804199,-0.022216797000000003,0.004699707,11.977099,2.442748,-3.9541983999999997,2019-09-09 13:58:43,12.0
264.0,0.12182617,-0.023742676,0.003540039,6.3206105,1.4885496,-3.5419848,2019-09-09 13:58:43,12.0
265.0,0.12249756,-0.024780273,0.006286621,9.450381,3.5419848,-2.6641220000000003,2019-09-09 13:58:43,12.0
266.0,0.11859131,-0.024719237999999998,0.005493164,-2.816794,4.4580154,-2.221374,2019-09-09 13:58:43,12.0
267.0,0.12207031,-0.029907227,0.0079956055,-9.679389,1.8091604,-2.5496182000000003,2019-09-09 13:58:43,12.0
268.0,0.12023926,-0.024597168,0.007385254,-6.412214,2.908397,-4.335878,2019-09-09 13:58:43,12.0
269.0,0.11932373,-0.025939941,0.012512207,-2.519084,2.923664,-3.5801528,2019-09-09 13:58:43,12.0
270.0,0.12591553,-0.024475097999999997,0.009521484,0.3740458,2.4732822999999997,-3.0992367,2019-09-09 13:58:43,12.0
271.0,0.12585449,-0.027954102,0.007629394499999999,12.847328,0.8854962,-4.335878,2019-09-09 13:58:43,12.0
272.0,0.13134766,-0.026794434,0.008300781,5.076336,2.1526718,-4.5801525000000005,2019-09-09 13:58:43,12.0
273.0,0.12524414,-0.020202637,0.005554199,1.221374,0.26717559,-3.3816792999999996,2019-09-09 13:58:43,12.0
274.0,0.13061523,-0.026062012000000002,0.005432129,1.9236640999999999,-0.6488550000000001,-5.2748094000000005,2019-09-09 13:58:43,12.0
275.0,0.11791992,-0.018066406,0.009399414,7.3664119999999995,1.6183206,-5.633588,2019-09-09 13:58:43,12.0
276.0,0.12475586,-0.015319824,0.0037231445,1.70229,3.648855,-5.259542,2019-09-09 13:58:43,12.0
277.0,0.13000488,-0.018615723,0.0064697266000000005,3.870229,5.335878,-4.9389315,2019-09-09 13:58:43,12.0
278.0,0.12188721,-0.020141601999999998,0.009521484,8.549619,2.8931298,-3.206107,2019-09-09 13:58:43,12.0
279.0,0.12213135,-0.017150878999999997,0.004272461,0.79389316,7.671755999999999,-5.3893127,2019-09-09 13:58:43,12.0
280.0,0.12518310000000002,-0.013977051,0.005981445300000001,1.1526718,5.8244276,-4.4656487,2019-09-09 13:58:43,12.0
281.0,0.12426758,-0.019714355,0.008117675999999999,3.0,6.862595599999999,-3.7328242999999994,2019-09-09 13:58:43,12.0
282.0,0.11877441400000001,-0.016479492,0.0072631836,-6.7328243,10.045800999999999,-5.2137402999999996,2019-09-09 13:58:43,12.0
283.0,0.12347412,-0.020202637,0.0009765625,-9.152672,8.396947,-2.4198472,2019-09-09 13:58:43,12.0
284.0,0.122924805,-0.020751953,0.0032348633000000003,-7.9770994,7.6183205,-2.5496182000000003,2019-09-09 13:58:43,12.0
285.0,0.12341308599999999,-0.024047852,0.0068969727,-3.7480917000000002,11.389313000000001,-5.3816795,2019-09-09 13:58:43,12.0
286.0,0.12518310000000002,-0.01776123,0.006652831999999999,-7.740458,9.412213000000001,-0.5648854999999999,2019-09-09 13:58:43,12.0
287.0,0.12561035,-0.02142334,0.0099487305,-4.6793895,5.809159999999999,5.442748,2019-09-09 13:58:43,12.0
288.0,0.12823486,-0.022766112999999998,0.004638672,-4.2061067,13.175572,-0.35877863,2019-09-09 13:58:43,12.0
289.0,0.12133789,-0.016723633,0.005432129,-8.274809,10.610686999999999,2.29771,2019-09-09 13:58:43,12.0
290.0,0.11981201,-0.024108887000000002,0.005676269499999999,-10.923664,9.770992,2.6488549999999997,2019-09-09 13:58:43,12.0
291.0,0.12133789,-0.0146484375,0.0037841796999999997,-17.931297,14.648855,2.0,2019-09-09 13:58:43,12.0
292.0,0.12420654,-0.027770996000000003,0.0099487305,-18.015266,12.442748,3.4274809999999998,2019-09-09 13:58:44,12.0
293.0,0.12475586,-0.021972656,0.012939453,-23.725191,13.160305,-0.5038168,2019-09-09 13:58:44,12.0
294.0,0.1171875,-0.020935059,0.0119018555,-23.824427,9.656488000000001,-0.90839696,2019-09-09 13:58:44,12.0
295.0,0.119628906,-0.027648926,0.0126953125,-16.908398000000002,6.7862597000000004,-3.4122138,2019-09-09 13:58:44,12.0
296.0,0.12145996,-0.028747559,0.012573242,-15.526717000000001,2.4732822999999997,-5.9160304,2019-09-09 13:58:44,12.0
297.0,0.12231445,-0.029052734,0.012390136999999999,-7.9389315,0.58778626,-5.656488400000001,2019-09-09 13:58:44,12.0
298.0,0.12536621,-0.027648926,0.008911133,-11.351144999999999,4.4961834000000005,-7.2748094,2019-09-09 13:58:44,12.0
299.0,0.11999512,-0.021850586,0.009643555,-4.587786,4.9389315,-3.9541983999999997,2019-09-09 13:58:44,12.0
300.0,0.11883545,-0.030578612999999998,0.00970459,1.4427481000000002,2.1221373,-2.2671757,2019-09-09 13:58:44,12.0
301.0,0.12170410000000002,-0.01550293,0.008178711,-2.3282442000000003,5.816794,-3.29771,2019-09-09 13:58:44,12.0
302.0,0.119262695,-0.0178833,0.00970459,-3.6412212999999998,4.1297708,-5.9541984,2019-09-09 13:58:44,12.0
303.0,0.122924805,-0.019104003999999997,0.013244628999999999,-7.6793895,5.0229006,-3.1450381000000003,2019-09-09 13:58:44,12.0
304.0,0.12048339999999998,-0.026977539,0.0063476562,-8.045800999999999,4.473282299999999,-0.099236645,2019-09-09 13:58:44,12.0
305.0,0.12463379,-0.016540527,0.012145996000000001,-8.80916,5.59542,-3.7709922999999996,2019-09-09 13:58:44,12.0
306.0,0.12591553,-0.02142334,0.00592041,-11.427481,7.2137402999999996,-1.0305344,2019-09-09 13:58:44,12.0
307.0,0.123168945,-0.026245117000000002,0.006958008000000001,-11.442748,7.6870227,-1.6641221000000002,2019-09-09 13:58:44,12.0
308.0,0.11499023400000001,-0.018371582,0.0053100586,-11.847328,7.0610685,-1.1908396,2019-09-09 13:58:44,12.0
309.0,0.11968994,-0.028259277000000003,0.009033203,-6.7251906,4.778626,-1.519084,2019-09-09 13:58:44,12.0
310.0,0.121154785,-0.025695799999999998,0.010864258,-12.206107000000001,6.8778625,-2.4198472,2019-09-09 13:58:44,12.0
311.0,0.12054443,-0.024291992000000002,0.01159668,-7.7251906,5.8244276,0.114503816,2019-09-09 13:58:44,12.0
312.0,0.122558594,-0.022094727,0.0068359375,-7.70229,6.900763499999999,-3.3893129999999996,2019-09-09 13:58:44,12.0
313.0,0.11920166,-0.02154541,0.013122558999999999,-3.9312977999999994,5.9923663000000005,-0.19847329,2019-09-09 13:58:44,12.0
314.0,0.12023926,-0.029724121000000003,0.010070800999999999,-9.885496,7.3893127000000005,-0.48091602,2019-09-09 13:58:44,12.0
315.0,0.123535156,-0.019042969,0.010925293,-4.6870227,5.931298,-1.9847328999999998,2019-09-09 13:58:44,12.0
316.0,0.12377930000000001,-0.019897461,0.007873535,-9.557252,4.183206,-0.4427481,2019-09-09 13:58:44,12.0
317.0,0.123046875,-0.024230957,0.010620117,-8.488549,6.900763499999999,-2.3969467,2019-09-09 13:58:44,12.0
318.0,0.12011719,-0.028076172000000003,0.008117675999999999,-9.290076,7.7480917,-0.122137405,2019-09-09 13:58:44,12.0
319.0,0.1171875,-0.026916503999999997,0.0071411133,-7.152672,7.40458,-0.10687023,2019-09-09 13:58:44,12.0
320.0,0.11859131,-0.025146484,0.0061035156000000005,-10.954199000000001,8.381680000000001,0.053435113,2019-09-09 13:58:44,12.0
321.0,0.11999512,-0.020019531,0.009216309,-0.79389316,7.236641400000001,-0.19847329,2019-09-09 13:58:44,12.0
322.0,0.12133789,-0.028747559,0.0061035156000000005,-4.3206105,6.0610685,0.114503816,2019-09-09 13:58:44,12.0
323.0,0.12182617,-0.02960205,0.012878418,-6.0229006,5.5648856,-0.9312976999999999,2019-09-09 13:58:44,12.0
324.0,0.12512207,-0.025512695,0.009338379,-7.2290077,5.7175574000000005,-1.221374,2019-09-09 13:58:45,12.0
325.0,0.12054443,-0.029785156,0.007385254,-4.7099237,3.3053436,0.16030534,2019-09-09 13:58:45,12.0
326.0,0.12359619,-0.024963378999999997,0.011474608999999998,0.77862597,4.152672,0.5038168,2019-09-09 13:58:45,12.0
327.0,0.12158203,-0.026794434,0.014221191000000001,-0.27480915,4.8015265,-0.9847328000000002,2019-09-09 13:58:45,12.0
328.0,0.1239624,-0.022949219,0.010864258,1.9007633999999998,1.8549619,-1.70229,2019-09-09 13:58:45,12.0
329.0,0.12384033,-0.024291992000000002,0.0052490233999999995,-1.2137405,4.1679387000000006,-2.8244274,2019-09-09 13:58:45,12.0
330.0,0.12475586,-0.02166748,0.00579834,2.1526718,2.3664122000000005,-2.8549618999999997,2019-09-09 13:58:45,12.0
331.0,0.117370605,-0.028869628999999997,0.009277344,1.7251908999999999,1.5267175,-1.5496184,2019-09-09 13:58:45,12.0
332.0,0.12225342,-0.02911377,0.0099487305,-4.2824425999999995,2.7251909,-2.6793892,2019-09-09 13:58:45,12.0
333.0,0.12060547,-0.022094727,0.009277344,0.16793893,0.18320611,-3.1984732000000005,2019-09-09 13:58:45,12.0
334.0,0.12268066400000001,-0.026184082,0.010986328,-2.1068702,2.6030533,-4.068702,2019-09-09 13:58:45,12.0
335.0,0.13024902,-0.026428222999999997,0.006958008000000001,0.10687023,-0.27480915,-1.4198473999999999,2019-09-09 13:58:45,12.0
336.0,0.12286377,-0.022827148,0.013305663999999998,-1.351145,1.7786259999999998,-1.3740458,2019-09-09 13:58:45,12.0
337.0,0.12634277,-0.027770996000000003,0.008972168,2.687023,1.389313,-3.1984732000000005,2019-09-09 13:58:45,12.0
338.0,0.12762451,-0.02722168,0.010864258,2.557252,2.8473282,-3.091603,2019-09-09 13:58:45,12.0
339.0,0.12310791,-0.032470703,0.00793457,5.152672,3.6793892,-2.5419848,2019-09-09 13:58:45,12.0
340.0,0.12878418,-0.02142334,0.00793457,-0.08396947,3.3740457999999998,-3.8931297999999996,2019-09-09 13:58:45,12.0
341.0,0.11981201,-0.026794434,0.0040893555,5.7099237,4.2290077,-3.2671757,2019-09-09 13:58:45,12.0
342.0,0.122558594,-0.024780273,0.0072631836,4.2671757,2.832061,-4.145038,2019-09-09 13:58:45,12.0
343.0,0.12182617,-0.025390625,0.006042480500000001,5.145038,3.6030532999999996,-4.0305343,2019-09-09 13:58:45,12.0
344.0,0.12084961,-0.024658202999999997,0.008544922,-1.6564884999999998,4.374046,-1.6870228999999999,2019-09-09 13:58:45,12.0
345.0,0.12310791,-0.02532959,0.005493164,-0.41984734,5.473282299999999,-3.1145039,2019-09-09 13:58:45,12.0
346.0,0.12335205,-0.01550293,0.0061035156000000005,-1.9007633999999998,5.4351144,-3.0992367,2019-09-09 13:58:45,12.0
347.0,0.12231445,-0.018859863,0.00793457,-5.8396945,6.2061067,-3.648855,2019-09-09 13:58:45,12.0
348.0,0.12426758,-0.019958496000000003,0.0075683593999999995,-1.3664121999999999,6.10687,-2.7709923,2019-09-09 13:58:45,12.0
349.0,0.12792969,-0.019958496000000003,0.009216309,-2.0305343000000002,6.2519083,-4.854962,2019-09-09 13:58:45,12.0
350.0,0.13299560000000002,-0.019226074,0.007446289,-4.7480917,7.625953999999999,-4.961832,2019-09-09 13:58:45,12.0
351.0,0.12200928,-0.020263672,0.009460449000000001,-0.6870229,5.7557254,-2.6717557999999997,2019-09-09 13:58:45,12.0
352.0,0.12963867,-0.021057128999999997,0.0073242188,-3.8625953,6.0229006,-3.0305343,2019-09-09 13:58:45,12.0
353.0,0.117004395,-0.013122558999999999,0.0061035156000000005,-9.625955000000001,6.2824425999999995,-1.0229008,2019-09-09 13:58:45,12.0
354.0,0.12268066400000001,-0.021606445,0.008911133,-9.091603,5.923664,-1.5648855,2019-09-09 13:58:45,12.0
355.0,0.12017822,-0.024108887000000002,0.010009766,-2.2137403,5.473282299999999,-0.90839696,2019-09-09 13:58:45,12.0
356.0,0.12298584,-0.020935059,0.008666992,-6.2519083,6.70229,-2.465649,2019-09-09 13:58:45,12.0
357.0,0.12530518,-0.02319336,0.0061035156000000005,-0.9694656999999999,4.0992365,-2.793893,2019-09-09 13:58:45,12.0
358.0,0.12536621,-0.023803711,0.0079956055,-6.3587785000000006,4.3511453,-1.6412214,2019-09-09 13:58:45,12.0
359.0,0.12066650400000001,-0.023010253999999997,0.013183594,-8.549619,5.8625956,-0.3053435,2019-09-09 13:58:45,12.0
360.0,0.12713623,-0.025756836,0.005737304699999999,-4.6488547,3.6183207000000004,-2.3969467,2019-09-09 13:58:45,12.0
361.0,0.120910645,-0.02709961,0.007751465,-2.6717557999999997,4.1679387000000006,-2.1145039,2019-09-09 13:58:46,12.0
362.0,0.11920166,-0.023132324,0.007690429699999999,-1.3969465,2.961832,-1.1145038999999999,2019-09-09 13:58:46,12.0
363.0,0.1149292,-0.024963378999999997,0.0072631836,-0.2519084,3.038168,-3.0076337000000004,2019-09-09 13:58:46,12.0
364.0,0.12347412,-0.025695799999999998,0.010437011999999999,-2.1068702,2.4885497,-2.2366412,2019-09-09 13:58:46,12.0
365.0,0.11993408,-0.024902344,0.006591797,0.34351146,1.9007633999999998,-4.4274807,2019-09-09 13:58:46,12.0
366.0,0.12670898,-0.022705077999999997,0.012329102,-1.7328244,3.206107,-6.7175574000000005,2019-09-09 13:58:46,12.0
367.0,0.12261963,-0.022827148,0.0078125,-7.2824425999999995,2.9389312000000003,-4.885496,2019-09-09 13:58:46,12.0
368.0,0.12335205,-0.024414062,0.008239746,-4.8396945,2.7480917000000002,-2.9007633,2019-09-09 13:58:46,12.0
369.0,0.12078857400000001,-0.020080566,0.006225586,-5.1755724,6.2519083,-2.7480917000000002,2019-09-09 13:58:46,12.0
370.0,0.12365723,-0.018005371000000003,0.008972168,-1.4885496,6.1603055,0.10687023,2019-09-09 13:58:46,12.0
371.0,0.11834717,-0.019226074,0.0064086914,-6.8244276,5.6946564,-1.4961832,2019-09-09 13:58:46,12.0
372.0,0.12243652,-0.024230957,0.0015258789000000001,-6.931298,7.3206105,-0.34351146,2019-09-09 13:58:46,12.0
373.0,0.12371826,-0.026000977,0.0072631836,-10.732824,7.763358599999999,-0.9312976999999999,2019-09-09 13:58:46,12.0
374.0,0.12548828,-0.02142334,0.004638672,-12.549619,9.725191,-1.1679389999999998,2019-09-09 13:58:46,12.0
375.0,0.12469482400000001,-0.026855469,0.008239746,-9.2595415,9.282442999999999,-0.22900763,2019-09-09 13:58:46,12.0
376.0,0.1317749,-0.025146484,0.009277344,-10.2595415,10.053435,0.20610687,2019-09-09 13:58:46,12.0
377.0,0.11834717,-0.023010253999999997,0.0068359375,-11.717557000000001,11.7786255,0.6335878,2019-09-09 13:58:46,12.0
378.0,0.11889648400000001,-0.025756836,0.008300781,-12.015267,12.793892999999999,0.6946565,2019-09-09 13:58:46,12.0
379.0,0.12322998,-0.02319336,0.0073242188,-11.595419999999999,11.419847500000001,3.183206,2019-09-09 13:58:46,12.0
380.0,0.11755371,-0.022338867000000002,0.0064697266000000005,-16.541985,11.305344,0.17557251,2019-09-09 13:58:46,12.0
381.0,0.12561035,-0.020324707,0.011779785,-16.610687,8.198473,1.2671756,2019-09-09 13:58:46,12.0
382.0,0.12164307,-0.02178955,0.0134887695,-18.053434,5.8320612999999994,-1.2290076,2019-09-09 13:58:46,12.0
383.0,0.12194824,-0.024597168,0.013366699,-18.175573,4.5725193,-2.6030533,2019-09-09 13:58:46,12.0
384.0,0.12561035,-0.028808594,0.012939453,-14.755725,2.4045799999999997,-4.4198474999999995,2019-09-09 13:58:46,12.0
385.0,0.12176514,-0.032958984,0.012573242,-11.603053,5.4503818,-3.3587787000000002,2019-09-09 13:58:46,12.0
386.0,0.12322998,-0.02557373,0.011108398,-5.0305343,2.6946564,-4.664122,2019-09-09 13:58:46,12.0
387.0,0.12231445,-0.027038574,0.011291503999999999,-3.4198472,5.7709923,-0.99236643,2019-09-09 13:58:46,12.0
388.0,0.12976074,-0.030334472999999997,0.009277344,1.1145038999999999,6.931298,-1.0305344,2019-09-09 13:58:46,12.0
389.0,0.12738037,-0.022949219,0.008666992,0.10687023,8.381680000000001,-3.0152671000000004,2019-09-09 13:58:46,12.0
390.0,0.12377930000000001,-0.024902344,0.007629394499999999,-3.6717557999999997,7.2137402999999996,-0.9694656999999999,2019-09-09 13:58:46,12.0
391.0,0.12579346,-0.0211792,0.003967285,-1.4351145,7.908396700000001,-0.70229006,2019-09-09 13:58:46,12.0
392.0,0.12536621,-0.022033691,0.009521484,-7.099236500000001,10.030535,-3.8854961,2019-09-09 13:58:46,12.0
393.0,0.12335205,-0.021484375,0.008056641,-2.2290077,8.251908,-3.076336,2019-09-09 13:58:46,12.0
394.0,0.12402344,-0.027526855,0.010009766,-8.648855000000001,9.694656,-2.3282442000000003,2019-09-09 13:58:46,12.0
395.0,0.12579346,-0.0178833,0.008605957,-8.816792999999999,9.732824,-2.816794,2019-09-09 13:58:46,12.0
396.0,0.12145996,-0.01739502,0.009338379,-3.870229,10.450381,-1.9083970000000001,2019-09-09 13:58:46,12.0
397.0,0.11871338,-0.026184082,0.004760742,-2.6183207000000004,5.1374044,-1.7404580000000003,2019-09-09 13:58:46,12.0
398.0,0.12182617,-0.020202637,0.0053100586,-2.7709923,6.740458,-2.6030533,2019-09-09 13:58:47,12.0
399.0,0.12060547,-0.026733398,0.011413574,-9.473283,6.9541984,-3.4580152,2019-09-09 13:58:47,12.0
400.0,0.11981201,-0.020446777,0.012817383,-4.4885497,3.5801528,-4.8778625,2019-09-09 13:58:47,12.0
401.0,0.12042236,-0.020202637,0.008666992,-7.374046000000001,1.7938931,-3.9770992,2019-09-09 13:58:47,12.0
402.0,0.12609863,-0.03125,0.012023926,-7.458015400000001,1.2824427,-3.5496182000000003,2019-09-09 13:58:47,12.0
403.0,0.11578369,-0.031555176000000004,0.010559082,-8.030535,3.870229,-4.961832,2019-09-09 13:58:47,12.0
404.0,0.12170410000000002,-0.025024414,0.012023926,-2.4961832000000004,1.8931297999999999,-3.7709922999999996,2019-09-09 13:58:47,12.0
405.0,0.119262695,-0.0211792,0.013122558999999999,-6.526717700000001,4.7709923,-3.9847328999999996,2019-09-09 13:58:47,12.0
406.0,0.12365723,-0.030883789,0.0095825195,-10.022901,5.114504,-3.3129769999999996,2019-09-09 13:58:47,12.0
407.0,0.123535156,-0.02508545,0.007751465,-13.412213000000001,7.587786,-2.8015267999999995,2019-09-09 13:58:47,12.0
408.0,0.13153076,-0.024169922000000003,0.009399414,-8.992367,7.969465700000001,-2.7251909,2019-09-09 13:58:47,12.0
409.0,0.12298584,-0.021972656,0.010986328,-9.175572,6.0992365,-1.2519083999999998,2019-09-09 13:58:47,12.0
410.0,0.12652588,-0.025390625,0.010498047,-9.549619,7.9923663000000005,-1.9236640999999999,2019-09-09 13:58:47,12.0
411.0,0.12713623,-0.028442382999999998,0.010620117,-6.145038,5.6412214999999994,-2.9160306,2019-09-09 13:58:47,12.0
412.0,0.12042236,-0.022888184,0.009094238000000001,-8.229008,6.793893300000001,-0.47328246,2019-09-09 13:58:47,12.0
413.0,0.11688232400000001,-0.022033691,0.009521484,-12.458015,7.931298,-3.6183207000000004,2019-09-09 13:58:47,12.0
414.0,0.1262207,-0.026184082,0.013793945,-9.671756,4.4885497,-2.534351,2019-09-09 13:58:47,12.0
415.0,0.115112305,-0.02557373,0.010620117,-8.061069,7.0152674,-2.557252,2019-09-09 13:58:47,12.0
416.0,0.12713623,-0.023498535,0.008422852,-7.2519083,4.1374044,-2.778626,2019-09-09 13:58:47,12.0
417.0,0.12152099599999999,-0.03173828,0.010498047,-3.7251909,8.137404,-2.6946564,2019-09-09 13:58:47,12.0
418.0,0.12347412,-0.014831543,0.010925293,-5.2977099999999995,6.412214,-3.183206,2019-09-09 13:58:47,12.0
419.0,0.12213135,-0.027709961,0.011657715,-2.6259542000000002,7.3053436000000005,-3.3129769999999996,2019-09-09 13:58:47,12.0
420.0,0.12426758,-0.027404785,0.007873535,-4.114504,7.4503818,-2.4122138,2019-09-09 13:58:47,12.0
421.0,0.11828613,-0.0211792,0.010437011999999999,-6.9160304,6.3053436,-2.442748,2019-09-09 13:58:47,12.0
422.0,0.12036133,-0.023254395,0.0068969727,-5.2137402999999996,7.3129773,-3.7175572,2019-09-09 13:58:47,12.0
423.0,0.11853027,-0.02355957,0.006591797,-5.8244276,4.1374044,-1.70229,2019-09-09 13:58:47,12.0
424.0,0.12536621,-0.025878906,0.0099487305,-0.54198474,5.5725193,-2.923664,2019-09-09 13:58:47,12.0
425.0,0.12792969,-0.018859863,0.013366699,-2.1450381000000003,5.3587785000000006,-2.534351,2019-09-09 13:58:47,12.0
426.0,0.12152099599999999,-0.028869628999999997,0.00579834,-5.2442746,5.5496182,-2.8396947,2019-09-09 13:58:47,12.0
427.0,0.11999512,-0.023376465,0.009216309,-2.1068702,4.7862597000000004,-1.1221374,2019-09-09 13:58:47,12.0
428.0,0.11645508,-0.022766112999999998,0.008239746,-1.4351145,4.5343513,-4.053435299999999,2019-09-09 13:58:47,12.0
429.0,0.11895752,-0.024780273,0.0065307617,0.14503817,3.6793892,-1.5725191,2019-09-09 13:58:47,12.0
430.0,0.12561035,-0.027526855,0.0115356445,-4.1297708,5.2519083,-2.557252,2019-09-09 13:58:47,12.0
431.0,0.123168945,-0.018981934,0.010192871,-6.671755999999999,4.625954,-2.6793892,2019-09-09 13:58:47,12.0
432.0,0.13372803,-0.021362305,0.0099487305,-8.9007635,6.152672,-2.2748091,2019-09-09 13:58:47,12.0
433.0,0.12548828,-0.021911621000000003,0.009216309,-5.3206105,6.2824425999999995,-2.9694657,2019-09-09 13:58:48,12.0
434.0,0.12475586,-0.03161621,0.010925293,0.67175573,5.0458016,-1.2290076,2019-09-09 13:58:48,12.0
435.0,0.12329101599999999,-0.020263672,0.011413574,-5.2977099999999995,4.9770994,-2.4961832000000004,2019-09-09 13:58:48,12.0
436.0,0.121276855,-0.01977539,0.0079956055,-0.31297709999999995,2.8244274,-2.1526718,2019-09-09 13:58:48,12.0
437.0,0.12213135,-0.022460938,0.009277344,-6.7251906,5.2519083,-0.08396947,2019-09-09 13:58:48,12.0
438.0,0.11779785,-0.027404785,0.008544922,-6.3053436,6.5038165999999995,-2.9541984,2019-09-09 13:58:48,12.0
439.0,0.12347412,-0.020935059,0.012634277,-3.206107,7.0458016,-3.7404580000000003,2019-09-09 13:58:48,12.0
440.0,0.121276855,-0.021484375,0.012207031,-7.030534299999999,6.1679387000000006,-1.6793894,2019-09-09 13:58:48,12.0
441.0,0.12310791,-0.022766112999999998,0.0134887695,-1.5038168,4.4961834000000005,-2.3740457999999998,2019-09-09 13:58:48,12.0
442.0,0.13116455,-0.022277832,0.012634277,-6.709923700000001,5.152672,-0.64122134,2019-09-09 13:58:48,12.0
443.0,0.12371826,-0.018920898000000002,0.010131836,-7.2442746,7.343511599999999,-3.29771,2019-09-09 13:58:48,12.0
444.0,0.12890625,-0.020141601999999998,0.010803223,-8.2213745,6.442748,-4.7175574000000005,2019-09-09 13:58:48,12.0
445.0,0.12939453,-0.020874023000000002,0.012207031,-2.4503817999999997,7.839694500000001,-2.908397,2019-09-09 13:58:48,12.0
446.0,0.128479,-0.022888184,0.01171875,-6.961832000000001,8.137404,-1.3435115,2019-09-09 13:58:48,12.0
447.0,0.11761474599999999,-0.026550293,0.012268066000000001,-8.419847500000001,7.9160304,-1.7328244,2019-09-09 13:58:48,12.0
448.0,0.12097168,-0.022460938,0.008666992,-10.450381,7.4351144,-0.27480915,2019-09-09 13:58:48,12.0
449.0,0.121276855,-0.031677246,0.010864258,-12.038167999999999,7.656488400000001,-2.6793892,2019-09-09 13:58:48,12.0
450.0,0.1182251,-0.026184082,0.011962891000000002,-9.465649,5.6412214999999994,-0.114503816,2019-09-09 13:58:48,12.0
451.0,0.12591553,-0.02368164,0.009460449000000001,-5.10687,4.152672,-3.2519082999999998,2019-09-09 13:58:48,12.0
452.0,0.12188721,-0.030395507999999998,0.0115356445,-1.0458015,5.2137402999999996,-1.6870228999999999,2019-09-09 13:58:48,12.0
453.0,0.123168945,-0.028015137000000002,0.011657715,0.7480916,4.633588,-4.1374044,2019-09-09 13:58:48,12.0
454.0,0.1260376,-0.016601562,0.010620117,-0.41221374,7.4351144,-1.6030535,2019-09-09 13:58:48,12.0
455.0,0.12017822,-0.026855469,0.012939453,-0.19847329,6.8244276,-0.97709924,2019-09-09 13:58:48,12.0
456.0,0.12567139,-0.024841309,0.0087890625,-7.3129773,7.6412214999999994,-0.3740458,2019-09-09 13:58:48,12.0
457.0,0.11895752,-0.01953125,0.0041503906,-8.938931,7.480916000000001,0.10687023,2019-09-09 13:58:48,12.0
458.0,0.12152099599999999,-0.020996094,0.0073242188,-8.541985,6.068702,-0.32824427,2019-09-09 13:58:48,12.0
459.0,0.12347412,-0.023864746000000003,0.009399414,-8.0992365,5.4885497,-0.71755725,2019-09-09 13:58:48,12.0
460.0,0.12188721,-0.026550293,0.01184082,-10.938931,5.9541984,-1.961832,2019-09-09 13:58:48,12.0
461.0,0.11364746,-0.031677246,0.011047363000000001,-5.7709923,5.2671757,-2.2442749,2019-09-09 13:58:48,12.0
462.0,0.12072754,-0.027893066,0.015930176,-4.7480917,4.8625956,-2.8931298,2019-09-09 13:58:48,12.0
463.0,0.12524414,-0.025817871000000003,0.011108398,-2.2290077,4.3816795,-1.5038168,2019-09-09 13:58:48,12.0
464.0,0.12426758,-0.026733398,0.009094238000000001,-1.7786259999999998,5.4351144,-2.6335877999999995,2019-09-09 13:58:48,12.0
465.0,0.12377930000000001,-0.025024414,0.011779785,-4.656488400000001,4.076336,-1.3206106000000002,2019-09-09 13:58:48,12.0
466.0,0.12561035,-0.024658202999999997,0.011230469,-3.4885497,5.3053436,0.16793893,2019-09-09 13:58:48,12.0
467.0,0.12249756,-0.028991700000000002,0.007629394499999999,-3.8778627,3.793893,-2.6564887,2019-09-09 13:58:48,12.0
468.0,0.12713623,-0.030334472999999997,0.012817383,-0.57251906,5.343511599999999,-2.2290077,2019-09-09 13:58:48,12.0
469.0,0.119628906,-0.024230957,0.00982666,-0.38931298,4.4885497,-1.7786259999999998,2019-09-09 13:58:49,12.0
470.0,0.12188721,-0.022705077999999997,0.01184082,-2.129771,3.2748091,-1.0458015,2019-09-09 13:58:49,12.0
471.0,0.11846924,-0.028137207,0.013549805,-9.335877,6.068702,-1.5038168,2019-09-09 13:58:49,12.0
472.0,0.12390137,-0.026855469,0.01159668,-3.6946564,3.4122138,-2.572519,2019-09-09 13:58:49,12.0
473.0,0.12426758,-0.020202637,0.011230469,-8.167939,6.3053436,-2.4351146,2019-09-09 13:58:49,12.0
474.0,0.1307373,-0.02532959,0.008422852,0.5496183000000001,3.6259542000000002,-1.5725191,2019-09-09 13:58:49,12.0
475.0,0.123046875,-0.02947998,0.010070800999999999,-9.465649,6.10687,-3.0458016,2019-09-09 13:58:49,12.0
476.0,0.13018799,-0.02960205,0.008239746,-0.8167939000000001,3.534351,-1.8778626,2019-09-09 13:58:49,12.0
477.0,0.13134766,-0.026000977,0.010131836,-2.8244274,5.8015265,-2.4122138,2019-09-09 13:58:49,12.0
478.0,0.12469482400000001,-0.024230957,0.010986328,-4.152672,5.946564700000001,-0.9465648999999999,2019-09-09 13:58:49,12.0
479.0,0.12139892599999999,-0.027893066,0.0099487305,-6.9770994,3.0152671000000004,-0.49618322,2019-09-09 13:58:49,12.0
480.0,0.11907959,-0.027648926,0.009277344,-8.618319999999999,3.8091602,-2.2824428,2019-09-09 13:58:49,12.0
481.0,0.12518310000000002,-0.024475097999999997,0.00793457,-1.3740458,2.5496182000000003,-4.671755999999999,2019-09-09 13:58:49,12.0
482.0,0.12341308599999999,-0.03253174,0.012451172,-14.984732999999999,4.8702292,-6.603053599999999,2019-09-09 13:58:49,12.0
483.0,0.12261963,-0.023498535,0.011291503999999999,1.7328244,-1.1068702,-6.671755999999999,2019-09-09 13:58:49,12.0
484.0,0.12432861,-0.028198242000000002,0.0079956055,-5.1755724,-1.0229008,-7.160305499999999,2019-09-09 13:58:49,12.0
485.0,0.12261963,-0.028747559,0.011108398,-2.6412212999999998,-1.480916,-7.8778625,2019-09-09 13:58:49,12.0
486.0,0.12084961,-0.029663086,0.012268066000000001,-3.8931297999999996,-3.1984732000000005,-9.748092,2019-09-09 13:58:49,12.0
487.0,0.12567139,-0.022399902000000003,0.012084961000000002,-0.66412216,-0.9541985000000001,-8.297709,2019-09-09 13:58:49,12.0
488.0,0.12774658,-0.028198242000000002,0.010070800999999999,-2.7099237,-1.6030535,-6.2824425999999995,2019-09-09 13:58:49,12.0
489.0,0.12805176,-0.022521972999999997,0.0072631836,3.1221373,1.2442749,-5.671755999999999,2019-09-09 13:58:49,12.0
490.0,0.11853027,-0.024658202999999997,0.008422852,0.48091602,3.2824428,-6.4885497,2019-09-09 13:58:49,12.0
491.0,0.12713623,-0.020751953,0.0071411133,2.1374047000000003,4.190840000000001,-4.1221375,2019-09-09 13:58:49,12.0
492.0,0.1239624,-0.015930176,0.005065918,-2.908397,8.595419999999999,-4.068702,2019-09-09 13:58:49,12.0
493.0,0.12365723,-0.0211792,0.004272461,-6.847328,10.465649,-2.2671757,2019-09-09 13:58:49,12.0
494.0,0.11456299,-0.025024414,0.006042480500000001,-7.6793895,9.603053,-1.3358778999999998,2019-09-09 13:58:49,12.0
495.0,0.12518310000000002,-0.016418457,0.004638672,-5.763358599999999,11.320611,-0.55725193,2019-09-09 13:58:49,12.0
496.0,0.12280273400000001,-0.021057128999999997,0.005004883,-12.389313000000001,10.412213000000001,1.8396946,2019-09-09 13:58:49,12.0
497.0,0.120910645,-0.019165039,0.008666992,-11.656488000000001,9.679389,1.3129771000000001,2019-09-09 13:58:49,12.0
498.0,0.12463379,-0.01361084,0.008178711,-15.19084,9.061069,-0.3053435,2019-09-09 13:58:49,12.0
499.0,0.1262207,-0.024658202999999997,0.006713866999999999,-17.160304999999997,11.610686999999999,-1.7938931,2019-09-09 13:58:49,12.0
500.0,0.12152099599999999,-0.032104492000000005,0.010253906,-10.969465,7.8702292,-0.5038168,2019-09-09 13:58:49,12.0
501.0,0.12097168,-0.028076172000000003,0.010620117,-12.885496,4.9389315,-4.2519083,2019-09-09 13:58:49,12.0
502.0,0.12738037,-0.01977539,0.008544922,-6.89313,5.557252,-4.7099237,2019-09-09 13:58:49,12.0
503.0,0.11859131,-0.026000977,0.010803223,-0.35877863,2.183206,-5.480916000000001,2019-09-09 13:58:49,12.0
504.0,0.13043213,-0.025024414,0.007446289,-2.3664122000000005,5.557252,-5.7862597000000004,2019-09-09 13:58:49,12.0
505.0,0.11840819999999999,-0.026000977,0.0115356445,-0.15267175,5.0992365,-5.7328243,2019-09-09 13:58:50,12.0
506.0,0.12445068,-0.021972656,0.007019043000000001,-2.0610688,3.8931297999999996,-6.0,2019-09-09 13:58:50,12.0
507.0,0.11791992,-0.025024414,0.005859375,-2.4732822999999997,4.9923663000000005,-3.9923663,2019-09-09 13:58:50,12.0
508.0,0.11529541,-0.02355957,0.00793457,-1.3740458,5.0458016,-6.053435299999999,2019-09-09 13:58:50,12.0
509.0,0.12335205,-0.018981934,0.0065307617,-4.114504,6.2442746,-5.7099237,2019-09-09 13:58:50,12.0
510.0,0.122558594,-0.021057128999999997,0.010986328,-7.7251906,4.3053436,-2.3053436,2019-09-09 13:58:50,12.0
511.0,0.12347412,-0.024353027000000003,0.007019043000000001,-4.7099237,5.076336,-4.0610685,2019-09-09 13:58:50,12.0
512.0,0.12701416,-0.023071289,0.009765625,-10.847328,7.038167999999999,-1.0992366000000002,2019-09-09 13:58:50,12.0
513.0,0.12445068,-0.020141601999999998,0.005432129,-8.274809,7.091603299999999,-2.6793892,2019-09-09 13:58:50,12.0
514.0,0.1171875,-0.024841309,0.011169433999999999,-2.923664,4.9160304,-2.8396947,2019-09-09 13:58:50,12.0
515.0,0.11871338,-0.022216797000000003,0.0087890625,-7.7480917,6.259542,-4.847328,2019-09-09 13:58:50,12.0
516.0,0.12298584,-0.022827148,0.008117675999999999,-3.6717557999999997,5.2900763,-4.8396945,2019-09-09 13:58:50,12.0
517.0,0.12554932,-0.024108887000000002,0.0067749023,-2.687023,6.80916,-3.053435,2019-09-09 13:58:50,12.0
518.0,0.12341308599999999,-0.011169433999999999,0.008239746,-9.954199000000001,5.0610685,-3.8244274,2019-09-09 13:58:50,12.0
519.0,0.12438965,-0.016235351999999998,0.01361084,-8.358779,5.1755724,-0.8854962,2019-09-09 13:58:50,12.0
520.0,0.12268066400000001,-0.021972656,0.007080078,-10.709924,5.9541984,-2.6412212999999998,2019-09-09 13:58:50,12.0
521.0,0.12646484,-0.02331543,0.007080078,-8.862596,6.6335880000000005,-1.1832061000000003,2019-09-09 13:58:50,12.0
522.0,0.12554932,-0.018310547,0.010620117,-13.137404,6.9541984,-0.13740458,2019-09-09 13:58:50,12.0
523.0,0.12158203,-0.023742676,0.011779785,-13.78626,5.519083999999999,-0.35114503,2019-09-09 13:58:50,12.0
524.0,0.12182617,-0.024780273,0.00579834,-6.6870227,5.671755999999999,-0.7633588000000001,2019-09-09 13:58:50,12.0
525.0,0.12445068,-0.022949219,0.010925293,-3.0305343,4.1221375,-3.3969467000000004,2019-09-09 13:58:50,12.0
526.0,0.12731934,-0.020446777,0.010131836,-6.4580154,5.6106873,-1.1908396,2019-09-09 13:58:50,12.0
527.0,0.12426758,-0.025512695,0.0068359375,-9.603053,6.7557254,-0.9389313,2019-09-09 13:58:50,12.0
528.0,0.11938476599999999,-0.02532959,0.006164551,-7.9847326,6.8778625,-2.2900763,2019-09-09 13:58:50,12.0
529.0,0.12243652,-0.020568848,0.008483886999999999,-8.366412,7.534351299999999,-2.8473282,2019-09-09 13:58:50,12.0
530.0,0.1270752,-0.014709473,0.005493164,-6.2137402999999996,7.3893127000000005,-0.7251908,2019-09-09 13:58:50,12.0
531.0,0.12084961,-0.018493652,0.007385254,-11.152672,9.427481,-1.4656489,2019-09-09 13:58:50,12.0
532.0,0.11694336,-0.021728516,0.00793457,-6.091603299999999,6.778625999999999,0.9541985000000001,2019-09-09 13:58:50,12.0
533.0,0.12634277,-0.01953125,0.008972168,-9.083969,7.4732823,-1.3740458,2019-09-09 13:58:50,12.0
534.0,0.12872314,-0.016845703,0.011169433999999999,-10.129771,8.122137,-0.6335878,2019-09-09 13:58:50,12.0
535.0,0.117248535,-0.020324707,0.007019043000000001,-8.725191,9.007633,1.6793894,2019-09-09 13:58:50,12.0
536.0,0.121032715,-0.022216797000000003,0.0048828125,-11.038167999999999,8.816792999999999,2.4351146,2019-09-09 13:58:50,12.0
537.0,0.12548828,-0.021606445,0.005859375,-10.412213000000001,8.503817,3.0076337000000004,2019-09-09 13:58:51,12.0
538.0,0.1227417,-0.01977539,0.006591797,-7.374046000000001,7.9541984,2.0076337,2019-09-09 13:58:51,12.0
539.0,0.1270752,-0.02532959,0.0073242188,-14.282442999999999,5.6488547,2.1450381000000003,2019-09-09 13:58:51,12.0
540.0,0.12030029,-0.024597168,0.010314941,-11.022901,5.5725193,0.57251906,2019-09-09 13:58:51,12.0
541.0,0.12286377,-0.024169922000000003,0.013122558999999999,-16.236639999999998,6.6412214999999994,0.6335878,2019-09-09 13:58:51,12.0
542.0,0.12921143,-0.024230957,0.010986328,-8.549619,4.633588,-3.5190839999999994,2019-09-09 13:58:51,12.0
543.0,0.12634277,-0.032470703,0.010314941,-8.618319999999999,5.4198474999999995,-3.9007633000000004,2019-09-09 13:58:51,12.0
544.0,0.13031006,-0.028198242000000002,0.010009766,-6.5038165999999995,3.091603,-3.0992367,2019-09-09 13:58:51,12.0
545.0,0.123535156,-0.026855469,0.013244628999999999,-1.7251908999999999,4.335878,-6.0076336999999995,2019-09-09 13:58:51,12.0
546.0,0.12158203,-0.027954102,0.008544922,4.519083999999999,0.31297709999999995,-5.2519083,2019-09-09 13:58:51,12.0
547.0,0.12463379,-0.022888184,0.012023926,6.526717700000001,1.2137405,-6.038168,2019-09-09 13:58:51,12.0
548.0,0.12335205,-0.024108887000000002,0.0072631836,3.6564887,2.1984732000000005,-6.2442746,2019-09-09 13:58:51,12.0
549.0,0.12994385,-0.02935791,0.009277344,2.1526718,2.0152671000000004,-6.328244000000001,2019-09-09 13:58:51,12.0
550.0,0.11541748,-0.022033691,0.007446289,4.4274807,2.8854961,-7.816794,2019-09-09 13:58:51,12.0
551.0,0.12341308599999999,-0.022949219,0.0073242188,0.5801527,3.5190839999999994,-7.221374000000001,2019-09-09 13:58:51,12.0
552.0,0.12902832,-0.020141601999999998,0.005065918,-1.0,3.4198472,-3.1221373,2019-09-09 13:58:51,12.0
553.0,0.1328125,-0.017333984,0.010437011999999999,-0.6793893,7.19084,-4.7022900000000005,2019-09-09 13:58:51,12.0
554.0,0.12579346,-0.022521972999999997,0.0068969727,-8.061069,5.3893127,-3.7557251000000003,2019-09-09 13:58:51,12.0
555.0,0.12609863,-0.01751709,0.010314941,-10.549619,9.045800999999999,-3.9847328999999996,2019-09-09 13:58:51,12.0
556.0,0.12005615,-0.019348145,0.005737304699999999,-10.80916,5.4580154,-3.923664,2019-09-09 13:58:51,12.0
557.0,0.12426758,-0.026245117000000002,0.0072631836,-2.9160306,4.221374,-1.8320610000000002,2019-09-09 13:58:51,12.0
558.0,0.12994385,-0.02166748,0.008850098,-7.923664,5.2977099999999995,-3.3053436,2019-09-09 13:58:51,12.0
559.0,0.12145996,-0.023864746000000003,0.0087890625,3.3816792999999996,5.6106873,-4.2290077,2019-09-09 13:58:51,12.0
560.0,0.12133789,-0.022399902000000003,0.01373291,4.6106873,3.3893129999999996,-2.480916,2019-09-09 13:58:51,12.0
561.0,0.12390137,-0.018310547,0.008239746,1.4580153,4.152672,-3.7099237,2019-09-09 13:58:51,12.0
562.0,0.12988281,-0.022827148,0.009460449000000001,0.19847329,2.3282442000000003,-1.5267175,2019-09-09 13:58:51,12.0
563.0,0.12219238,-0.02142334,0.008422852,4.5343513,0.33587787,-1.3435115,2019-09-09 13:58:51,12.0
564.0,0.12109375,-0.021850586,0.0068359375,-2.2442749,2.7557251,-2.8625952999999997,2019-09-09 13:58:51,12.0
565.0,0.12371826,-0.014160156,0.0099487305,-0.122137405,3.2366412,-2.8854961,2019-09-09 13:58:51,12.0
566.0,0.12384033,-0.016357422,0.009277344,-3.4122138,4.091603299999999,-2.5267177000000003,2019-09-09 13:58:51,12.0
567.0,0.12036133,-0.019165039,0.006958008000000001,3.1068702,0.96183205,-2.5267177000000003,2019-09-09 13:58:51,12.0
568.0,0.12536621,-0.020507812,0.009460449000000001,6.1603055,2.0687022,-1.3282443000000002,2019-09-09 13:58:51,12.0
569.0,0.12573242,-0.023803711,0.010009766,4.0458016,2.1221373,-1.6183206,2019-09-09 13:58:51,12.0
570.0,0.12414551,-0.016845703,0.0053100586,2.4885497,3.8167940000000002,-2.5877862,2019-09-09 13:58:51,12.0
571.0,0.121154785,-0.024780273,0.007446289,4.1221375,0.41984734,-0.48854962,2019-09-09 13:58:51,12.0
572.0,0.11389160000000002,-0.019104003999999997,0.008911133,2.389313,2.3511450000000003,0.8854962,2019-09-09 13:58:51,12.0
573.0,0.12609863,-0.01928711,0.008361816,10.732824,1.8244275,-1.7938931,2019-09-09 13:58:51,12.0
574.0,0.123535156,-0.024841309,0.011413574,8.595419999999999,3.129771,-0.45801526,2019-09-09 13:58:51,12.0
575.0,0.12371826,-0.011962891000000002,0.0072021483999999995,-0.740458,2.9541984,2.053435,2019-09-09 13:58:51,12.0
576.0,0.12310791,-0.024353027000000003,0.0065307617,-0.6335878,3.0305343,0.07633588,2019-09-09 13:58:52,-2.0
577.0,0.12347412,-0.020812988,0.008483886999999999,-0.18320611,2.70229,1.4427481000000002,2019-09-09 13:58:52,-2.0
578.0,0.1295166,-0.020507812,0.01159668,1.351145,3.59542,1.6335878000000001,2019-09-09 13:58:52,-2.0
579.0,0.12237549,-0.022644043,0.010559082,3.534351,6.961832000000001,1.0,2019-09-09 13:58:52,-2.0
580.0,0.115356445,-0.022827148,0.015075683999999999,4.7862597000000004,8.862596,1.8244275,2019-09-09 13:58:52,-2.0
581.0,0.124816895,-0.026611327999999997,0.016235351999999998,3.129771,7.19084,2.091603,2019-09-09 13:58:52,-2.0
582.0,0.12341308599999999,-0.032165527,0.01184082,-2.572519,12.412213000000001,3.961832,2019-09-09 13:58:52,-2.0
583.0,0.12158203,-0.025878906,0.013671875,4.625954,11.938931,5.6946564,2019-09-09 13:58:52,-2.0
584.0,0.11938476599999999,-0.02734375,0.01776123,0.8549618,13.007633,6.793893300000001,2019-09-09 13:58:52,-2.0
585.0,0.12670898,-0.023925781,0.012023926,4.2748094000000005,13.244275,8.374044999999999,2019-09-09 13:58:52,-2.0
586.0,0.123535156,-0.02734375,0.012084961000000002,4.2442746,9.2595415,7.671755999999999,2019-09-09 13:58:52,-2.0
587.0,0.12335205,-0.030761719,0.012756348,13.541985,6.4274807,5.946564700000001,2019-09-09 13:58:52,-2.0
588.0,0.11810303,-0.02545166,0.008605957,23.748089999999998,-1.7251908999999999,3.8473281999999998,2019-09-09 13:58:52,-2.0
589.0,0.12060547,-0.02758789,0.013793945,24.328245000000003,-2.793893,3.8473281999999998,2019-09-09 13:58:52,-2.0
590.0,0.11773682,-0.02319336,0.006958008000000001,25.244274,-6.923664,0.60305345,2019-09-09 13:58:52,-2.0
591.0,0.1171875,-0.02709961,0.0048828125,31.969465000000003,-10.091603,-1.5648855,2019-09-09 13:58:52,-2.0
592.0,0.11547851599999999,-0.027038574,0.0068359375,36.610687,-11.694656,-2.557252,2019-09-09 13:58:52,-2.0
593.0,0.11987305,-0.018005371000000003,0.0078125,37.206109999999995,-12.312977,-3.0152671000000004,2019-09-09 13:58:52,-2.0
594.0,0.12322998,-0.017089844,0.011169433999999999,33.564884,-10.083969,-5.8778625,2019-09-09 13:58:52,-2.0
595.0,0.12615967,-0.018859863,0.0134887695,38.343509999999995,-10.114504,-1.8625953999999998,2019-09-09 13:58:52,-2.0
596.0,0.12347412,-0.024902344,0.013122558999999999,36.389313,-11.534351,-5.1603055,2019-09-09 13:58:52,-2.0
597.0,0.12469482400000001,-0.022521972999999997,0.011108398,44.15267,-14.061069,-6.2061067,2019-09-09 13:58:52,-2.0
598.0,0.1295166,-0.016601562,0.013549805,45.992367,-14.480916,-9.938931,2019-09-09 13:58:52,-2.0
599.0,0.13049316,-0.017028809,0.010925293,44.160305,-15.496182999999998,-12.343511999999999,2019-09-09 13:58:52,-2.0
600.0,0.12908936,-0.010070800999999999,0.009765625,27.419846999999997,-10.664123,-9.862596,2019-09-09 13:58:52,-2.0
601.0,0.13183594,-0.020568848,0.0049438477,16.549618,-5.7251905999999995,-6.0839696,2019-09-09 13:58:52,-2.0
602.0,0.123168945,-0.022827148,0.00024414062000000002,13.320610999999998,2.0839694,-7.0152674,2019-09-09 13:58:52,-2.0
603.0,0.12408447,-0.024230957,0.0034179688000000002,9.022901,2.4503817999999997,-3.7404580000000003,2019-09-09 13:58:52,-2.0
604.0,0.12963867,-0.022766112999999998,-0.0018310547,17.748089999999998,1.5038168,-4.091603299999999,2019-09-09 13:58:52,-2.0
605.0,0.13598633,-0.024291992000000002,0.00042724610000000003,10.175572,0.8702290000000001,-4.3587785000000006,2019-09-09 13:58:52,-2.0
606.0,0.12615967,-0.019592285,0.0030517578000000003,12.80916,0.6259541999999999,-4.9160304,2019-09-09 13:58:52,-2.0
607.0,0.11560058599999999,-0.020141601999999998,0.0012207030999999999,3.9312977999999994,-3.4809160000000006,-5.2671757,2019-09-09 13:58:52,-2.0
608.0,0.11395264,-0.02355957,0.0025024414000000004,4.8396945,-3.4351146,-4.885496,2019-09-09 13:58:52,-2.0
609.0,0.11090088,-0.02368164,0.0010375977,7.4503818,-6.40458,-4.442748,2019-09-09 13:58:52,-2.0
610.0,0.11596680000000001,-0.023986816,0.004760742,11.137404,-7.709923700000001,-6.931298,2019-09-09 13:58:52,-2.0
611.0,0.11395264,-0.02911377,0.0068359375,13.732823999999999,-14.610686999999999,-9.687023,2019-09-09 13:58:53,-2.0
612.0,0.11883545,-0.026916503999999997,0.0065307617,24.198473,-18.351145000000002,-16.015266,2019-09-09 13:58:53,-2.0
613.0,0.12097168,-0.031311035,0.0018310547,36.732826,-23.145039,-17.702289999999998,2019-09-09 13:58:53,-2.0
614.0,0.12152099599999999,-0.02960205,0.0038452148,38.671757,-23.717558,-21.267176,2019-09-09 13:58:53,-2.0
615.0,0.12036133,-0.026000977,0.0033569335999999996,43.038166,-23.282442,-17.595419,2019-09-09 13:58:53,-2.0
616.0,0.12377930000000001,-0.028930664,0.009887695,40.992367,-21.366413,-14.343511999999999,2019-09-09 13:58:53,-2.0
617.0,0.11816406,-0.024963378999999997,0.0024414061999999998,42.679390000000005,-18.839695000000003,-13.198473000000002,2019-09-09 13:58:53,-2.0
618.0,0.13000488,-0.026611327999999997,0.0012207030999999999,42.458015,-12.19084,-12.183207000000001,2019-09-09 13:58:53,-2.0
619.0,0.11981201,-0.025756836,-6.1035155999999994e-05,44.030533,-5.0305343,-5.526717700000001,2019-09-09 13:58:53,-2.0
620.0,0.12445068,-0.025146484,-0.002319336,42.297709999999995,0.13740458,1.221374,2019-09-09 13:58:53,-2.0
621.0,0.1307373,-0.019897461,0.005126953,29.328245000000003,8.358779,8.572519,2019-09-09 13:58:53,-2.0
622.0,0.12677002,-0.028869628999999997,-0.008361816,30.603053999999997,9.839694999999999,12.877863,2019-09-09 13:58:53,-2.0
623.0,0.13555908,-0.026794434,-0.006591797,32.51145,14.129771,18.450382,2019-09-09 13:58:53,-2.0
624.0,0.12634277,-0.02722168,-0.0009765625,28.954199,16.290077,17.450382,2019-09-09 13:58:53,-2.0
625.0,0.12445068,-0.021728516,-0.0064697266000000005,33.412212,11.198473,14.633588,2019-09-09 13:58:53,-2.0
626.0,0.12506104,-0.026672362999999998,-0.0079956055,35.595420000000004,6.885496000000001,12.244275,2019-09-09 13:58:53,-2.0
627.0,0.12792969,-0.021118164,-0.003967285,32.435116,1.8702290000000001,8.854961,2019-09-09 13:58:53,-2.0
628.0,0.12536621,-0.01727295,-0.0033569335999999996,29.229008,2.1374047000000003,4.2290077,2019-09-09 13:58:53,-2.0
629.0,0.12438965,-0.015930176,-0.0030517578000000003,28.305344,0.2977099,3.8931297999999996,2019-09-09 13:58:53,-2.0
630.0,0.12237549,-0.026855469,-0.005004883,29.717558,1.8854961,1.3053435,2019-09-09 13:58:53,-2.0
631.0,0.12207031,-0.023986816,-0.007690429699999999,18.564885999999998,5.366412,-1.2824427,2019-09-09 13:58:53,-2.0
632.0,0.12298584,-0.02758789,-0.0068359375,13.702291,4.633588,-1.2366412,2019-09-09 13:58:53,-2.0
633.0,0.12579346,-0.021728516,-0.0034790040000000004,15.496182999999998,3.2748091,-4.2824425999999995,2019-09-09 13:58:53,-2.0
634.0,0.12567139,-0.02331543,-0.0045166016,14.580152499999999,1.2748091000000001,-5.1297708,2019-09-09 13:58:53,-2.0
635.0,0.12548828,-0.02154541,-0.006042480500000001,7.236641400000001,1.6717557,-5.8244276,2019-09-09 13:58:53,-2.0
636.0,0.1194458,-0.023986816,-0.0028686523,7.9541984,1.3053435,-6.816794,2019-09-09 13:58:53,-2.0
637.0,0.12158203,-0.027648926,-0.0029296875,2.427481,1.1221374,-8.816792999999999,2019-09-09 13:58:53,-2.0
638.0,0.12084961,-0.0234375,-0.0033569335999999996,4.519083999999999,-1.0839695,-9.679389,2019-09-09 13:58:53,-2.0
639.0,0.123046875,-0.02545166,-0.003112793,-0.007633588,-2.7480917000000002,-10.442748,2019-09-09 13:58:53,-2.0
640.0,0.11669922,-0.026062012000000002,-0.0037841796999999997,2.0305343000000002,-0.6870229,-10.038167999999999,2019-09-09 13:58:53,-2.0
641.0,0.11968994,-0.02545166,-0.0072631836,1.0076336,-2.5954200000000003,-11.068703,2019-09-09 13:58:53,-2.0
642.0,0.12359619,-0.026184082,-0.0037841796999999997,1.1068702,-0.65648854,-13.740458499999999,2019-09-09 13:58:53,-2.0
643.0,0.12670898,-0.026611327999999997,-0.0007324219,4.603053599999999,-2.5496182000000003,-12.847328,2019-09-09 13:58:53,-2.0
644.0,0.125,-0.031066895,-0.0017089844000000001,0.122137405,-4.1603055,-14.412213000000001,2019-09-09 13:58:53,-2.0
645.0,0.11993408,-0.026489257999999998,0.0020141601999999997,-1.221374,-1.038168,-15.007632999999998,2019-09-09 13:58:53,-2.0
646.0,0.11785889,-0.028259277000000003,-0.001159668,1.259542,-2.9007633,-15.412213000000001,2019-09-09 13:58:53,-2.0
647.0,0.12139892599999999,-0.030395507999999998,-0.0049438477,4.603053599999999,-7.259542,-15.938931,2019-09-09 13:58:53,-2.0
648.0,0.12658691,-0.033203125,-0.0024414061999999998,7.8549619999999996,-7.740458,-17.854961,2019-09-09 13:58:54,-2.0
649.0,0.12597656,-0.032592773,0.00030517577999999995,15.061069,-9.015267,-18.526718,2019-09-09 13:58:54,-2.0
650.0,0.12438965,-0.029052734,-0.0024414061999999998,12.511451,-6.603053599999999,-15.206107000000001,2019-09-09 13:58:54,-2.0
651.0,0.13092041,-0.029541016,0.00091552734,15.625955,-6.343511599999999,-9.511451,2019-09-09 13:58:54,-2.0
652.0,0.13006592,-0.027954102,-0.0006713867,16.740458,-3.3664122000000005,-4.2442746,2019-09-09 13:58:54,-2.0
653.0,0.12432861,-0.030761719,-0.0012817383,17.419847,4.0229006,-0.38167940000000006,2019-09-09 13:58:54,-2.0
654.0,0.12390137,-0.028991700000000002,-0.0028076171999999997,20.343512,6.4198474999999995,3.2442749,2019-09-09 13:58:54,-2.0
655.0,0.12066650400000001,-0.026733398,-0.00012207031000000001,20.221375,8.7404585,6.9465647,2019-09-09 13:58:54,-2.0
656.0,0.12841797,-0.018310547,-0.006958008000000001,22.435114000000002,10.961832000000001,11.442748,2019-09-09 13:58:54,-2.0
657.0,0.12408447,-0.028137207,-0.00024414062000000002,21.274809,13.473282999999999,13.152672,2019-09-09 13:58:54,-2.0
658.0,0.13214111,-0.020141601999999998,-0.0013427734,21.641222,17.717558,14.412213000000001,2019-09-09 13:58:54,-2.0
659.0,0.12628174,-0.019042969,-0.0024414061999999998,26.595419,15.564885,17.679389999999998,2019-09-09 13:58:54,-2.0
660.0,0.12322998,-0.018859863,-0.00030517577999999995,33.82443,15.442748000000002,14.931297,2019-09-09 13:58:54,-2.0
661.0,0.11657715,-0.025817871000000003,-0.003112793,32.89313,17.51145,14.21374,2019-09-09 13:58:54,-2.0
662.0,0.11871338,-0.022766112999999998,-0.00036621094,32.587788,14.824428,9.969465,2019-09-09 13:58:54,-2.0
663.0,0.11804199,-0.030029297000000003,-0.00042724610000000003,35.82443,11.519084,8.366412,2019-09-09 13:58:54,-2.0
664.0,0.11907959,-0.02130127,0.001159668,38.694656,4.908396700000001,3.1984732000000005,2019-09-09 13:58:54,-2.0
665.0,0.12188721,-0.022338867000000002,-0.006713866999999999,41.633587,0.8015267,-1.2748091000000001,2019-09-09 13:58:54,-2.0
666.0,0.12689209,-0.03161621,-0.0010375977,45.625954,-3.129771,-8.366412,2019-09-09 13:58:54,-2.0
667.0,0.12261963,-0.028076172000000003,-0.0045166016,48.129771999999996,-3.4198472,-7.9923663000000005,2019-09-09 13:58:54,-2.0
668.0,0.12512207,-0.02508545,-0.003112793,45.12214,-2.442748,-8.641221,2019-09-09 13:58:54,-2.0
669.0,0.12182617,-0.022277832,-0.0012207030999999999,41.755726,-4.778626,-7.4961834000000005,2019-09-09 13:58:54,-2.0
670.0,0.11755371,-0.023620605,-0.005126953,44.007633,-4.221374,-6.9160304,2019-09-09 13:58:54,-2.0
671.0,0.12341308599999999,-0.019165039,-0.0029907227,39.328243,-2.206107,-7.8244276,2019-09-09 13:58:54,-2.0
672.0,0.12341308599999999,-0.021728516,-0.0025024414000000004,44.358779999999996,-3.6106870000000004,-6.7862597000000004,2019-09-09 13:58:54,-2.0
673.0,0.125,-0.03137207,-0.001953125,44.007633,-6.885496000000001,-5.1221375,2019-09-09 13:58:54,-2.0
674.0,0.1293335,-0.020812988,-0.0048217773,49.15267,-4.9694657,-4.0152674,2019-09-09 13:58:54,-2.0
675.0,0.13598633,-0.029418945,-0.004272461,48.396946,-4.671755999999999,-1.8702290000000001,2019-09-09 13:58:54,-2.0
676.0,0.13964844,-0.020996094,-0.0045776367,38.412212,1.4045801000000002,2.427481,2019-09-09 13:58:54,-2.0
677.0,0.14111328,-0.01965332,0.0032958984000000004,34.396946,10.78626,9.267176,2019-09-09 13:58:54,-2.0
678.0,0.13879395,-0.022705077999999997,0.001159668,40.656490000000005,13.389313000000001,8.320611,2019-09-09 13:58:54,-2.0
679.0,0.12567139,-0.013122558999999999,0.00091552734,41.76336,5.9694657,10.351144999999999,2019-09-09 13:58:54,-2.0
680.0,0.1182251,-0.009460449000000001,0.006164551,32.435116,10.923664,12.969465,2019-09-09 13:58:54,-2.0
681.0,0.11688232400000001,-0.022155762000000002,0.0022583008,20.503817,14.335876999999998,14.564885,2019-09-09 13:58:54,-2.0
682.0,0.118652344,-0.019897461,0.0028076171999999997,30.641221999999996,11.206107000000001,11.664123,2019-09-09 13:58:55,0.0
683.0,0.12335205,-0.025268555,0.003540039,19.358778,9.687023,12.274809,2019-09-09 13:58:55,0.0
684.0,0.119628906,-0.028198242000000002,0.0028686523,33.816795,0.64122134,4.0992365,2019-09-09 13:58:55,0.0
685.0,0.12042236,-0.013793945,0.0037231445,35.328243,0.9541985000000001,1.3358778999999998,2019-09-09 13:58:55,0.0
686.0,0.12609863,-0.01361084,0.0061035156000000005,29.10687,-4.1374044,-1.1145038999999999,2019-09-09 13:58:55,0.0
687.0,0.11877441400000001,-0.012878418,0.005859375,21.053434,-2.2366412,-4.236641400000001,2019-09-09 13:58:55,0.0
688.0,0.11206055,-0.016479492,0.008666992,6.7251906,-5.40458,-7.1221375,2019-09-09 13:58:55,0.0
689.0,0.119018555,-0.020019531,0.0052490233999999995,-0.22137405,-8.587786999999999,-10.625955000000001,2019-09-09 13:58:55,0.0
690.0,0.11071777,-0.017089844,0.0033569335999999996,4.4274807,-12.267176,-15.389313000000001,2019-09-09 13:58:55,0.0
691.0,0.1239624,-0.015319824,0.0072021483999999995,-4.519083999999999,-15.022901000000001,-21.61832,2019-09-09 13:58:55,0.0
692.0,0.11444092,-0.017211914,0.010864258,-11.862596,-16.419847,-27.671754999999997,2019-09-09 13:58:55,0.0
693.0,0.123046875,-0.019897461,0.008850098,-12.427481,-20.89313,-30.687022999999996,2019-09-09 13:58:55,0.0
694.0,0.12341308599999999,-0.023620605,0.0073242188,-9.007633,-20.824427,-31.786259,2019-09-09 13:58:55,0.0
695.0,0.12994385,-0.018127441,0.008605957,-10.80916,-18.442749,-31.450382,2019-09-09 13:58:55,0.0
696.0,0.12701416,-0.021240234,0.005676269499999999,-11.19084,-18.51145,-31.412214000000002,2019-09-09 13:58:55,0.0
697.0,0.13159179999999998,-0.007751465,0.005126953,-18.08397,-13.702291,-28.10687,2019-09-09 13:58:55,0.0
698.0,0.13049316,-0.019592285,0.010681152,-18.91603,-10.114504,-28.450382,2019-09-09 13:58:55,0.0
699.0,0.13665771,-0.008422852,0.0020141601999999997,-36.961834,-7.3893127000000005,-22.236639999999998,2019-09-09 13:58:55,0.0
700.0,0.13311768,-0.013671875,0.0071411133,-52.030533,4.809159999999999,-17.198473,2019-09-09 13:58:55,0.0
701.0,0.12634277,-0.024963378999999997,0.010070800999999999,-56.82443000000001,2.6793892,-13.488548999999999,2019-09-09 13:58:55,0.0
702.0,0.13250732,-0.022705077999999997,0.0007324219,-47.51145,1.1068702,-14.374045,2019-09-09 13:58:55,0.0
703.0,0.1307373,-0.030822753999999997,0.0036621094,-37.412212,2.091603,-16.282442,2019-09-09 13:58:55,0.0
704.0,0.13110352,-0.025146484,0.0013427734,-21.603054,-6.969465700000001,-17.160304999999997,2019-09-09 13:58:55,0.0
705.0,0.13421631,-0.027893066,0.0026855469,-18.984734,-6.5801525,-19.717558,2019-09-09 13:58:55,0.0
706.0,0.12207031,-0.027404785,0.0037231445,-14.40458,-12.923664,-19.816793,2019-09-09 13:58:55,0.0
707.0,0.11413574,-0.025512695,0.0018920898,-7.6412214999999994,-14.290076000000001,-18.992367,2019-09-09 13:58:55,0.0
708.0,0.11755371,-0.02722168,0.0010375977,0.39694658,-17.068703,-18.221375,2019-09-09 13:58:55,0.0
709.0,0.12048339999999998,-0.030029297000000003,0.0012817383,7.221374000000001,-18.358778,-10.671756,2019-09-09 13:58:55,0.0
710.0,0.12408447,-0.03265381,-0.00024414062000000002,9.404580000000001,-16.496183,-6.442748,2019-09-09 13:58:55,0.0
711.0,0.13354492,-0.028564452999999997,-0.0029296875,13.366412,-11.145039,3.351145,2019-09-09 13:58:55,0.0
712.0,0.11059569999999999,-0.028442382999999998,0.002319336,18.503817,-4.2748094000000005,12.412213000000001,2019-09-09 13:58:55,0.0
713.0,0.09814453,-0.032043457000000004,0.0020751953,30.404581,1.6717557,22.557251,2019-09-09 13:58:55,0.0
714.0,0.11187744,-0.022583007999999998,-0.005126953,44.0229,0.7251908,25.900763,2019-09-09 13:58:55,0.0
715.0,0.12683105,-0.031921387,-0.008117675999999999,60.068703,13.305344,25.06107,2019-09-09 13:58:55,0.0
716.0,0.14324951,-0.022949219,-0.004211426,65.84733,20.06107,23.557251,2019-09-09 13:58:55,0.0
717.0,0.14550781,-0.021850586,-0.005981445300000001,63.78626,28.656488,27.267176,2019-09-09 13:58:55,0.0
718.0,0.13983154,-0.018005371000000003,-0.013305663999999998,47.335876,29.19084,34.297709999999995,2019-09-09 13:58:56,0.0
719.0,0.13317871,-0.016723633,-0.013427733999999998,41.82443,43.564884,43.0229,2019-09-09 13:58:56,0.0
720.0,0.13623047,-0.017944336,-0.011962891000000002,30.42748,50.51145,51.08397,2019-09-09 13:58:56,0.0
721.0,0.12988281,-0.019042969,-0.0063476562,29.282442,50.221375,57.946564,2019-09-09 13:58:56,0.0
722.0,0.11303711,-0.012451172,-0.0053100586,24.862595000000002,50.44275,59.198475,2019-09-09 13:58:56,0.0
723.0,0.11126709,-0.014587402,-0.008605957,27.290077,48.129771999999996,57.007633,2019-09-09 13:58:56,0.0
724.0,0.11468506,-0.016296387,-0.010070800999999999,23.038168,45.48855,53.83969499999999,2019-09-09 13:58:56,0.0
725.0,0.10644531,-0.020751953,-0.0064086914,20.793894,44.038166,42.969467,2019-09-09 13:58:56,0.0
726.0,0.11267089999999998,-0.018737793,-0.0040893555,18.320610000000002,32.885498,31.48855,2019-09-09 13:58:56,0.0
727.0,0.12213135,-0.016235351999999998,-0.0045776367,12.694656,23.778625,19.068703,2019-09-09 13:58:56,0.0
728.0,0.12823486,-0.020019531,0.00048828125,0.96183205,10.473283,3.1145039,2019-09-09 13:58:56,0.0
729.0,0.12164307,-0.017944336,0.0,-4.10687,-2.0610688,-15.137404,2019-09-09 13:58:56,0.0
730.0,0.12506104,-0.014465332,-0.0017700195,-14.152672,-9.167939,-28.862595000000002,2019-09-09 13:58:56,0.0
731.0,0.13500977,-0.022644043,-0.0068359375,-20.297710000000002,-16.06107,-39.603054,2019-09-09 13:58:56,0.0
732.0,0.14440918,-0.016601562,-0.0031738281,-22.625954,-18.206106,-50.748093,2019-09-09 13:58:56,0.0
733.0,0.14569092,-0.020507812,-0.005981445300000001,-32.53435,-17.0,-55.389313,2019-09-09 13:58:56,0.0
734.0,0.18457031,-0.015625,-0.017700195,-43.419846,-39.496179999999995,-61.46565,2019-09-09 13:58:56,0.0
735.0,0.17242432,-0.02911377,-0.013305663999999998,-55.343509999999995,-2.206107,-60.923664,2019-09-09 13:58:56,0.0
736.0,0.1352539,-0.022827148,0.04449463,-55.458015,-17.839695000000003,-55.633587,2019-09-09 13:58:56,0.0
737.0,0.11279297,-0.014404297,0.008300781,-69.75572,-35.17557,-46.694656,2019-09-09 13:58:56,0.0
738.0,0.101623535,-0.013061523,-0.0020751953,-77.12977,-26.732824,-32.908398,2019-09-09 13:58:56,0.0
739.0,0.12225342,-0.0029907227,-0.012634277,-70.908394,-4.5343513,-15.801526999999998,2019-09-09 13:58:56,0.0
740.0,0.119628906,-0.0007324219,-0.0025024414000000004,-80.87786,21.198473,1.2290076,2019-09-09 13:58:56,0.0
741.0,0.12023926,-0.00970459,-0.007751465,-78.29771,31.274809,5.480916000000001,2019-09-09 13:58:56,0.0
742.0,0.12268066400000001,-0.013427733999999998,-0.0005493164,-80.08397,50.572517,10.511451,2019-09-09 13:58:56,0.0
743.0,0.10638428,-0.010253906,0.0041503906,-89.458015,52.83969499999999,8.305344,2019-09-09 13:58:56,0.0
744.0,0.11126709,-0.0119018555,0.0024414061999999998,-106.63358999999998,53.007633,4.6870227,2019-09-09 13:58:56,0.0
745.0,0.10394287,-0.01940918,0.007629394499999999,-101.71755999999999,38.381679999999996,-0.71755725,2019-09-09 13:58:56,0.0
746.0,0.11212158,-0.011474608999999998,0.0007934570299999999,-103.05344000000001,29.175572999999996,-3.076336,2019-09-09 13:58:56,0.0
747.0,0.11352539,-0.021057128999999997,0.0028686523,-89.87786,16.396946,-12.458015,2019-09-09 13:58:56,0.0
748.0,0.10571289,-0.020080566,0.0017700195,-74.56489,7.8702292,-19.473282,2019-09-09 13:58:56,0.0
749.0,0.099731445,-0.018127441,0.011230469,-65.900764,-11.404580000000001,-27.778625,2019-09-09 13:58:56,0.0
750.0,0.10168457,-0.022033691,0.007751465,-55.71755600000001,-25.122137,-32.931297,2019-09-09 13:58:56,0.0
751.0,0.12207031,-0.021057128999999997,0.0029296875,-53.106869999999994,-42.10687,-42.419846,2019-09-09 13:58:56,0.0
752.0,0.14172363,-0.029418945,0.009399414,-34.12214,-50.816795,-52.49618,2019-09-09 13:58:56,0.0
753.0,0.14294434,-0.026916503999999997,0.0068969727,-33.312977000000004,-70.061066,-57.793890000000005,2019-09-09 13:58:56,0.0
754.0,0.18133545,-0.030212402000000003,-0.0020141601999999997,-23.022902,-81.183205,-62.450382,2019-09-09 13:58:57,0.0
755.0,0.17297363,-0.024963378999999997,0.015319824,9.091603,-62.15266999999999,-61.549618,2019-09-09 13:58:57,0.0
756.0,0.11877441400000001,-0.024902344,0.023254395,0.21374045,-60.389313,-40.129771999999996,2019-09-09 13:58:57,0.0
757.0,0.13568115,-0.027893066,0.0072021483999999995,1.6717557,-73.618324,-33.183205,2019-09-09 13:58:57,0.0
758.0,0.17718506,-0.025756836,-0.014282227,29.641221999999996,-51.526720000000005,-20.786259,2019-09-09 13:58:57,0.0
759.0,0.16113281,-0.011474608999999998,-0.021362305,54.267174,24.816793,7.793893300000001,2019-09-09 13:58:57,0.0
760.0,0.13208008,-0.00018310547,-0.01751709,50.374046,52.091602,34.480915,2019-09-09 13:58:57,0.0
761.0,0.13397217,0.0,-0.02911377,28.977097999999998,83.41984599999999,60.47328,2019-09-09 13:58:57,0.0
762.0,0.123535156,0.0020141601999999997,-0.008361816,18.312977,117.10687,84.778625,2019-09-09 13:58:57,0.0
763.0,0.11828613,0.011230469,-0.010314941,-6.9465647,134.42747,106.19847,2019-09-09 13:58:57,0.0
764.0,0.10870361,0.0,-0.0014038085999999999,-46.389313,154.08397,116.00764,2019-09-09 13:58:57,0.0
765.0,0.11828613,-0.01586914,0.0029907227,-45.0,129.83969,116.61068999999999,2019-09-09 13:58:57,0.0
766.0,0.11602783,-0.024353027000000003,0.0036010741999999997,-21.748089999999998,118.44275,99.12977,2019-09-09 13:58:57,0.0
767.0,0.10766601599999999,-0.01940918,0.011169433999999999,-15.526717000000001,90.29771,78.03817,2019-09-09 13:58:57,0.0
768.0,0.09588623,-0.025817871000000003,0.009887695,12.328244,56.656490000000005,54.0,2019-09-09 13:58:57,0.0
769.0,0.10375976599999999,-0.020568848,0.00592041,23.206106,30.045801,26.213741,2019-09-09 13:58:57,0.0
770.0,0.10650635,-0.01574707,0.0026855469,17.08397,19.625954,10.488549,2019-09-09 13:58:57,0.0
771.0,0.11645508,-0.009643555,-0.003112793,4.9770994,6.3893127,-4.8396945,2019-09-09 13:58:57,0.0
772.0,0.13494873,-0.014465332,-0.006713866999999999,-5.59542,-0.8854962,-16.404581,2019-09-09 13:58:57,0.0
773.0,0.14154053,-0.020385742,-0.0031738281,-22.122137,-1.8091604,-30.412214000000002,2019-09-09 13:58:57,0.0
774.0,0.13433838,-0.014892578,0.0067749023,-34.900764,-16.541985,-42.458015,2019-09-09 13:58:57,0.0
775.0,0.14935303,-0.022583007999999998,-0.013122558999999999,-45.679390000000005,-52.564884,-50.343509999999995,2019-09-09 13:58:57,0.0
776.0,0.15142822,-0.020446777,-0.014282227,-61.84733000000001,11.480916,-42.412212,2019-09-09 13:58:57,0.0
777.0,0.12725830000000002,-0.01361084,0.026245117000000002,-48.458015,-44.473279999999995,-47.244274,2019-09-09 13:58:57,0.0
778.0,0.15197754,-0.018676758,-0.0014038085999999999,-58.55725,-35.82443,-45.84733,2019-09-09 13:58:57,0.0
779.0,0.14251709,-0.018310547,0.0007324219,-62.17556999999999,-42.671757,-34.732826,2019-09-09 13:58:57,0.0
780.0,0.14221191,-0.0071411133,-0.01574707,-61.862595,-13.129771,-20.961832,2019-09-09 13:58:57,0.0
781.0,0.121154785,-0.0068359375,-0.0021972656,-72.80153,7.6335880000000005,-5.885496,2019-09-09 13:58:57,0.0
782.0,0.11065674,-0.0015869141,-0.00982666,-77.05344000000001,18.229008,3.221374,2019-09-09 13:58:57,0.0
783.0,0.11029053,0.004699707,-0.010192871,-94.221375,38.282444,13.061069,2019-09-09 13:58:57,0.0
784.0,0.09765625,-0.0052490233999999995,-0.007019043000000001,-120.44275,48.694656,12.702291,2019-09-09 13:58:57,0.0
785.0,0.09777832,-0.018432617,-0.007629394499999999,-127.67175,63.450382,5.038168,2019-09-09 13:58:57,0.0
786.0,0.10980224599999999,-0.03375244,-0.004760742,-126.05344,54.603054,-18.328245000000003,2019-09-09 13:58:57,0.0
787.0,0.11499023400000001,-0.034240723,-0.0008544922000000001,-114.64121999999999,43.480915,-42.16794,2019-09-09 13:58:57,0.0
788.0,0.11010742,-0.04486084,0.0107421875,-96.51908,18.06107,-65.08397,2019-09-09 13:58:57,0.0
789.0,0.111450195,-0.037963867000000005,0.01776123,-70.56489,-28.900763,-88.71755999999999,2019-09-09 13:58:57,0.0
790.0,0.10449219,-0.03466797,0.013244628999999999,-50.984734,-65.770996,-104.19084000000001,2019-09-09 13:58:58,0.0
791.0,0.125,-0.03765869,0.008361816,-30.12977,-100.20611,-114.24428,2019-09-09 13:58:58,0.0
792.0,0.14825439999999998,-0.03845215,-0.00036621094,-10.442748,-113.84733,-121.75572,2019-09-09 13:58:58,0.0
793.0,0.16125488,-0.036071777,-0.0036010741999999997,3.9541983999999997,-120.23664,-117.76336,2019-09-09 13:58:58,0.0
794.0,0.199646,-0.043395996,-0.013061523,13.549619,-126.80153,-110.40458000000001,2019-09-09 13:58:58,0.0
795.0,0.19409179999999998,-0.026489257999999998,-0.008911133,38.160305,-79.53435,-86.80153,2019-09-09 13:58:58,0.0
796.0,0.13775635,-0.021911621000000003,0.009399414,27.045801,-30.625953999999997,-51.89313,2019-09-09 13:58:58,0.0
797.0,0.14184570000000002,-0.020385742,-0.011108398,29.335878000000005,-62.274809999999995,-32.274809999999995,2019-09-09 13:58:58,0.0
798.0,0.16381836,-0.0072631836,-0.024169922000000003,29.412214000000002,0.8167939000000001,7.7480917,2019-09-09 13:58:58,0.0
799.0,0.13305664,-0.012084961000000002,-0.027404785,33.129771999999996,125.89313,53.15266999999999,2019-09-09 13:58:58,0.0
800.0,0.10266113,-0.007751465,-0.025268555,34.87786,101.73283,81.10687,2019-09-09 13:58:58,0.0
801.0,0.11053467,-0.007690429699999999,-0.027770996000000003,44.992367,139.2061,100.48092,2019-09-09 13:58:58,0.0
802.0,0.11871338,-0.010864258,-0.019042969,47.229008,154.17557,114.71756,2019-09-09 13:58:58,0.0
803.0,0.11950683599999999,-0.007751465,-0.009155273,43.183205,178.26718,125.08397,2019-09-09 13:58:58,0.0
804.0,0.119628906,-0.00579834,0.029846191,43.816795,166.66412,130.40458999999998,2019-09-09 13:58:58,0.0
805.0,0.11431885,-0.02758789,0.032470703,23.076335999999998,119.00764,120.54961999999999,2019-09-09 13:58:58,0.0
806.0,0.12054443,-0.030090332,0.020263672,31.633587,75.08397,101.0458,2019-09-09 13:58:58,0.0
807.0,0.12109375,-0.03100586,0.0036010741999999997,49.74046,35.129771999999996,77.12977,2019-09-09 13:58:58,0.0
808.0,0.13201904,-0.024230957,-0.0025634766,60.900764,31.259542,54.732826,2019-09-09 13:58:58,0.0
809.0,0.12182617,0.008239746,-0.016418457,72.64121999999999,-8.022901,33.580154,2019-09-09 13:58:58,0.0
810.0,0.13262939999999998,0.036010742000000005,-0.04284668,4.0839696000000005,54.366413,32.480915,2019-09-09 13:58:58,0.0
811.0,0.1350708,0.020690918,-0.024230957,-55.091602,49.618320000000004,24.145039,2019-09-09 13:58:58,0.0
812.0,0.13684082,-0.0073242188,-0.028991700000000002,-87.84733,67.9313,5.2137402999999996,2019-09-09 13:58:58,0.0
813.0,0.13262939999999998,-0.02142334,-0.005432129,-105.67938999999998,47.328243,-18.396946,2019-09-09 13:58:58,0.0
814.0,0.16918945,-0.045776367000000005,-0.013183594,-100.74809,10.175572,-47.778625,2019-09-09 13:58:58,0.0
815.0,0.13201904,-0.043945312,0.03778076,-7.740458,-13.465648999999999,-74.51145,2019-09-09 13:58:58,0.0
816.0,0.13427734,-0.032043457000000004,0.014465332,25.183207,-88.07633,-90.1145,2019-09-09 13:58:58,0.0
817.0,0.12945557,-0.012817383,0.012756348,47.343509999999995,-102.51908,-86.80915999999999,2019-09-09 13:58:58,0.0
818.0,0.11810303,-0.007019043000000001,-0.006164551,48.274809999999995,-111.03817,-72.58015400000001,2019-09-09 13:58:58,0.0
819.0,0.12347412,0.0138549805,-0.010192871,29.740458,-75.74809,-53.114502,2019-09-09 13:58:58,0.0
820.0,0.10980224599999999,0.022033691,-0.011169433999999999,-24.969465,-47.351147,-26.656488,2019-09-09 13:58:58,0.0
821.0,0.11639404,0.020446777,-0.024658202999999997,-91.19847,-10.106871,-6.236641400000001,2019-09-09 13:58:58,0.0
822.0,0.10699463,0.008911133,-0.02130127,-126.21373999999999,23.687023,5.59542,2019-09-09 13:58:58,0.0
823.0,0.10498047,-0.0048828125,-0.011413574,-166.78625,44.17557,7.664122,2019-09-09 13:58:58,0.0
824.0,0.11389160000000002,-0.024658202999999997,-0.0030517578000000003,-174.84734,50.816795,-2.9312978,2019-09-09 13:58:58,0.0
825.0,0.11651611,-0.043945312,0.007751465,-167.64122,51.290077000000004,-21.534351,2019-09-09 13:58:59,0.0
826.0,0.11999512,-0.042907715,0.010925293,-125.29008,21.580153,-45.08397,2019-09-09 13:58:59,0.0
827.0,0.12432861,-0.044799805,0.022338867000000002,-81.00764000000001,-11.282442999999999,-69.65649,2019-09-09 13:58:59,0.0
828.0,0.10290527,-0.029846191,0.019592285,-43.572517,-52.381679999999996,-82.12977,2019-09-09 13:58:59,0.0
829.0,0.113464355,-0.030944824,0.012512207,-15.274809,-81.33588,-91.33588,2019-09-09 13:58:59,0.0
830.0,0.13690186,-0.029174805,0.007080078,10.923664,-112.70228999999999,-96.78626,2019-09-09 13:58:59,0.0
831.0,0.15618896,-0.035095215,0.0009765625,19.534351,-111.816795,-92.175575,2019-09-09 13:58:59,0.0
832.0,0.15881348,-0.021911621000000003,-0.0034179688000000002,12.091603,-111.56488999999999,-83.137405,2019-09-09 13:58:59,0.0
833.0,0.20098877,-0.02557373,-0.020751953,11.038167999999999,-103.091606,-68.69466,2019-09-09 13:58:59,0.0
834.0,0.16528320000000002,-0.014709473,-0.0031738281,3.9770992,-12.21374,-44.961834,2019-09-09 13:58:59,0.0
835.0,0.11694336,-0.0107421875,0.013122558999999999,-14.541985,-4.587786,-12.854961,2019-09-09 13:58:59,0.0
836.0,0.14147949,-0.018066406,-0.009521484,0.6335878,-35.312977000000004,2.4198472,2019-09-09 13:58:59,0.0
837.0,0.16528320000000002,-0.004760742,-0.033508300000000005,10.419847500000001,23.08397,26.38168,2019-09-09 13:58:59,0.0
838.0,0.13995361,-0.012268066000000001,-0.025390625,35.10687,100.9771,57.946564,2019-09-09 13:58:59,0.0
839.0,0.12835693,-0.009643555,-0.022705077999999997,41.809162,106.76336,75.091606,2019-09-09 13:58:59,0.0
840.0,0.1296997,-0.0078125,-0.028015137000000002,52.59542,139.9771,94.55725,2019-09-09 13:58:59,0.0
841.0,0.12915039,0.00036621094,-0.013244628999999999,50.755726,157.38168000000002,107.770996,2019-09-09 13:58:59,0.0
842.0,0.12823486,-0.00018310547,-0.0072021483999999995,32.961834,173.87787,118.73283,2019-09-09 13:58:59,0.0
843.0,0.1293335,-0.0009765625,6.1035155999999994e-05,3.59542,183.28243999999998,128.35878,2019-09-09 13:58:59,0.0
844.0,0.12664795,-0.015136719,0.0079956055,7.9923663000000005,141.03816,126.55725,2019-09-09 13:58:59,0.0
845.0,0.11907959,-0.016479492,0.010864258,11.938931,114.40458000000001,112.862595,2019-09-09 13:58:59,0.0
846.0,0.11517334,-0.024475097999999997,0.0045166016,13.129771,86.87786,95.07633,2019-09-09 13:58:59,0.0
847.0,0.109436035,-0.014770508,-0.014404297,25.091601999999998,63.549618,71.1145,2019-09-09 13:58:59,0.0
848.0,0.10864258,0.006652831999999999,-0.005737304699999999,16.503817,62.18320500000001,55.23664,2019-09-09 13:58:59,0.0
849.0,0.1003418,0.007873535,-0.008300781,-9.870229,48.229008,39.114502,2019-09-09 13:58:59,0.0
850.0,0.111450195,-0.0007324219,-0.014160156,-44.007633,38.885498,20.984734,2019-09-09 13:58:59,0.0
851.0,0.11877441400000001,-0.021362305,-0.008300781,-64.9542,27.213741,-3.1145039,2019-09-09 13:58:59,0.0
852.0,0.11779785,-0.02960205,0.0068359375,-55.458015,21.687023,-32.755726,2019-09-09 13:58:59,0.0
853.0,0.1381836,-0.025512695,-0.009094238000000001,-47.21374,-33.030533,-68.183205,2019-09-09 13:58:59,0.0
854.0,0.14141846,-0.031311035,-0.012390136999999999,-32.923664,-21.763360000000002,-84.89313,2019-09-09 13:58:59,0.0
855.0,0.10614014,-0.02178955,0.024658202999999997,-12.290076,-79.55725,-101.34351,2019-09-09 13:58:59,0.0
856.0,0.12695312,-0.008728027,0.0007324219,-9.206107000000001,-105.9771,-104.38931,2019-09-09 13:58:59,0.0
857.0,0.14465332,-0.010253906,0.0037841796999999997,-30.007633000000002,-113.55725,-98.19084000000001,2019-09-09 13:58:59,0.0
858.0,0.16040039,-0.0126953125,-0.015136719,-33.435116,-106.43511000000001,-89.824425,2019-09-09 13:58:59,0.0
859.0,0.14648438,-0.0045166016,-0.013244628999999999,-51.679390000000005,-77.26717,-72.9313,2019-09-09 13:58:59,0.0
860.0,0.13452148,0.00048828125,-0.016296387,-80.137405,-53.992367,-51.595420000000004,2019-09-09 13:58:59,0.0
861.0,0.12554932,-0.0020751953,-0.015625,-99.145035,-31.816793,-35.53435,2019-09-09 13:59:00,0.0
862.0,0.123535156,-0.0010986328,-0.02142334,-121.36641000000002,-12.152672,-17.068703,2019-09-09 13:59:00,0.0
863.0,0.11889648400000001,-0.013183594,-0.015136719,-134.7481,3.908397,-7.89313,2019-09-09 13:59:00,0.0
864.0,0.12219238,-0.022827148,-0.010559082,-134.74046,11.083969,-14.374045,2019-09-09 13:59:00,0.0
865.0,0.1295166,-0.034240723,0.0040893555,-108.41984599999999,8.320611,-32.954197,2019-09-09 13:59:00,0.0
866.0,0.119018555,-0.04443359400000001,0.008728027,-82.57252,-15.9007635,-56.419846,2019-09-09 13:59:00,0.0
867.0,0.12213135,-0.036987305,0.014770508,-43.48855,-35.89313,-74.58778000000001,2019-09-09 13:59:00,0.0
868.0,0.11907959,-0.032165527,0.015014648,-16.679389999999998,-59.74046,-86.74809,2019-09-09 13:59:00,0.0
869.0,0.11889648400000001,-0.025390625,0.012145996000000001,-8.297709,-79.25191,-89.46565,2019-09-09 13:59:00,0.0
870.0,0.14227295,-0.023498535,0.0007324219,-3.4351146,-93.83969,-89.48092,2019-09-09 13:59:00,0.0
871.0,0.15814209,-0.026489257999999998,-0.0048828125,-0.259542,-80.33588,-77.41221999999999,2019-09-09 13:59:00,0.0
872.0,0.16705322,-0.02734375,-0.013183594,0.38931298,-70.778625,-55.206109999999995,2019-09-09 13:59:00,0.0
873.0,0.16448975,-0.022583007999999998,-0.013122558999999999,3.2290077,-40.068703,-30.541984999999997,2019-09-09 13:59:00,0.0
874.0,0.17340088,-0.017211914,-0.014099121000000001,6.221374,-28.839695000000003,-8.557252,2019-09-09 13:59:00,0.0
875.0,0.15100098,-0.012145996000000001,-0.00579834,11.267176,36.78626,20.969465,2019-09-09 13:59:00,0.0
876.0,0.10736084,-0.010375977,0.011352538999999998,10.19084,44.290077000000004,44.21374,2019-09-09 13:59:00,0.0
877.0,0.13189697,-0.024536132999999998,-0.018188476999999998,19.038168,17.824427,58.15266999999999,2019-09-09 13:59:00,0.0
878.0,0.16217041,-0.03173828,-0.062438965,44.541985,65.34351,65.67175,2019-09-09 13:59:00,0.0
879.0,0.13616943,-0.024963378999999997,-0.02557373,82.099236,131.99237,76.68701999999999,2019-09-09 13:59:00,0.0
880.0,0.13391113,-0.025878906,-0.03338623,100.37405,131.17557,76.00764000000001,2019-09-09 13:59:00,0.0
881.0,0.13598633,-0.013122558999999999,-0.026489257999999998,110.9313,160.74046,83.78626,2019-09-09 13:59:00,0.0
882.0,0.13458252,-0.006042480500000001,-0.010986328,97.0,164.17557,94.00764000000001,2019-09-09 13:59:00,0.0
883.0,0.13006592,0.0010986328,-0.0012207030999999999,76.74045600000001,154.27481,108.53435,2019-09-09 13:59:00,0.0
884.0,0.12652588,-0.00592041,0.0095825195,41.366413,129.64885,116.14503500000001,2019-09-09 13:59:00,0.0
885.0,0.12084961,-0.01184082,-0.0016479492000000002,17.801527,95.66412,119.51145,2019-09-09 13:59:00,0.0
886.0,0.10882568,-0.019226074,-0.008911133,15.076335999999998,75.74045600000001,112.28244,2019-09-09 13:59:00,0.0
887.0,0.12005615,-0.027282715,-0.010070800999999999,26.534351,60.099236,94.99235999999999,2019-09-09 13:59:00,0.0
888.0,0.11743164,-0.0020751953,-0.023620605,35.129771999999996,54.83969499999999,71.938934,2019-09-09 13:59:00,0.0
889.0,0.10821533,0.0099487305,-0.016967773000000002,14.641221,65.854965,59.938930000000006,2019-09-09 13:59:00,0.0
890.0,0.119140625,0.008178711,-0.018676758,-19.656488,41.931297,37.320609999999995,2019-09-09 13:59:00,0.0
891.0,0.128479,-0.011352538999999998,-0.016906738,-59.687022999999996,46.809162,13.007633,2019-09-09 13:59:00,0.0
892.0,0.13745117,-0.021850586,-0.018127441,-80.29771,29.832062,-16.290077,2019-09-09 13:59:00,0.0
893.0,0.15765381,-0.030700684,-0.017089844,-88.541985,1.7099236,-49.358779999999996,2019-09-09 13:59:00,0.0
894.0,0.13336182,-0.03729248,-0.015808105,-51.15267,2.3587787000000002,-76.63359,2019-09-09 13:59:00,0.0
895.0,0.12011719,-0.034729004,0.026489257999999998,-6.9160304,-78.70992,-104.87786000000001,2019-09-09 13:59:00,0.0
896.0,0.123535156,-0.022705077999999997,0.011108398,34.671757,-105.48092,-119.55725,2019-09-09 13:59:00,0.0
897.0,0.12066650400000001,-0.0107421875,0.0048217773,43.12214,-150.0,-117.74808999999999,2019-09-09 13:59:01,0.0
898.0,0.13403320000000002,0.0013427734,-0.009094238000000001,33.717556,-136.00763,-110.061066,2019-09-09 13:59:01,0.0
899.0,0.13055419999999998,0.011108398,-0.012573242,-4.0610685,-110.21373999999999,-92.37405,2019-09-09 13:59:01,0.0
900.0,0.14007568,0.010070800999999999,-0.014587402,-51.91603,-94.12977,-72.9771,2019-09-09 13:59:01,0.0
901.0,0.13018799,0.018371582,-0.020080566,-97.28244000000001,-38.770992,-48.374046,2019-09-09 13:59:01,0.0
902.0,0.12078857400000001,0.0040893555,-0.012207031,-135.06107,-20.625954,-33.801525,2019-09-09 13:59:01,0.0
903.0,0.12445068,-0.012512207,-0.012573242,-164.0458,-5.2290077,-25.809160000000002,2019-09-09 13:59:01,0.0
904.0,0.119262695,-0.035583496,-0.009399414,-159.35878,3.6717557999999997,-27.625953999999997,2019-09-09 13:59:01,0.0
905.0,0.12536621,-0.03515625,0.0045776367,-129.40458999999998,5.816794,-41.625954,2019-09-09 13:59:01,0.0
906.0,0.12615967,-0.03741455,0.003112793,-96.83206,-22.587785999999998,-57.656490000000005,2019-09-09 13:59:01,0.0
907.0,0.13146973,-0.044067382999999995,0.008422852,-47.816795,-34.603054,-73.12977,2019-09-09 13:59:01,0.0
908.0,0.11694336,-0.027893066,0.0065307617,-18.57252,-55.18320500000001,-80.74045600000001,2019-09-09 13:59:01,0.0
909.0,0.13134766,-0.031066895,0.005737304699999999,-9.664123,-73.67175,-82.862595,2019-09-09 13:59:01,0.0
910.0,0.15142822,-0.032348632999999995,-0.00018310547,1.7709924,-84.07633,-85.27481,2019-09-09 13:59:01,0.0
911.0,0.15722656,-0.027954102,0.00012207031000000001,5.5648856,-72.25191,-74.16794,2019-09-09 13:59:01,0.0
912.0,0.17352295,-0.037353516,-0.009887695,5.2824425999999995,-76.40458000000001,-52.251907,2019-09-09 13:59:01,0.0
913.0,0.19085693,-0.034179688,-0.019165039,24.167938,-47.656490000000005,-34.343509999999995,2019-09-09 13:59:01,0.0
914.0,0.15649414,-0.016601562,0.0008544922000000001,42.23664,13.969465,-5.0,2019-09-09 13:59:01,0.0
915.0,0.107543945,-0.009216309,0.008605957,28.091602,31.847328000000005,26.564885999999998,2019-09-09 13:59:01,0.0
916.0,0.13293457,-0.011291503999999999,-0.01763916,24.015266,2.6488549999999997,44.328243,2019-09-09 13:59:01,0.0
917.0,0.15118408,-0.019958496000000003,-0.048034667999999996,40.656490000000005,73.65649,73.43511,2019-09-09 13:59:01,0.0
918.0,0.12097168,-0.017028809,-0.028320312,50.160305,153.22899999999998,95.16794,2019-09-09 13:59:01,0.0
919.0,0.11853027,-0.019104003999999997,-0.037719727,67.56489,134.03053,100.8855,2019-09-09 13:59:01,0.0
920.0,0.13262939999999998,-0.020141601999999998,-0.035949707000000004,84.145035,186.76335,107.15267,2019-09-09 13:59:01,0.0
921.0,0.13531494,-0.008117675999999999,-0.016418457,82.65649,194.46565,111.908394,2019-09-09 13:59:01,0.0
922.0,0.12530518,-0.008850098,-0.010192871,68.20611,193.89313,115.70992,2019-09-09 13:59:01,0.0
923.0,0.11621094,-0.017822266,0.02355957,48.656490000000005,135.68703,116.8855,2019-09-09 13:59:01,0.0
924.0,0.12554932,-0.027038574,0.010437011999999999,31.389313,82.44275,109.94656,2019-09-09 13:59:01,0.0
925.0,0.11798096,-0.028686523,-0.0010375977,37.198475,44.312977000000004,95.73283,2019-09-09 13:59:01,0.0
926.0,0.13031006,-0.005004883,-0.024291992000000002,12.091603,27.755726,68.62595,2019-09-09 13:59:01,0.0
927.0,0.113342285,0.0053100586,-0.03491211,41.717556,58.450382,63.9771,2019-09-09 13:59:01,0.0
928.0,0.10723877,0.021362305,-0.038269042999999996,18.259542,40.351147,40.954197,2019-09-09 13:59:01,0.0
929.0,0.123535156,0.015563965,-0.04095459,-28.099237,66.29008,24.030535,2019-09-09 13:59:01,0.0
930.0,0.13323975,-0.011413574,-0.03363037,-75.061066,60.0,4.221374,2019-09-09 13:59:01,0.0
931.0,0.13244629,-0.02557373,-0.013366699,-97.381676,43.435116,-22.465649,2019-09-09 13:59:01,0.0
932.0,0.14501953,-0.019897461,-0.013977051,-108.55725,1.519084,-51.068703,2019-09-09 13:59:02,0.0
933.0,0.13867188,-0.049865723,0.015625,-47.427483,-19.847328,-78.87786,2019-09-09 13:59:02,0.0
934.0,0.14147949,-0.042114257999999995,0.01928711,-9.931297,-115.07633,-99.54961999999999,2019-09-09 13:59:02,0.0
935.0,0.1293335,-0.03741455,0.024658202999999997,58.900764,-151.06107,-118.87786000000001,2019-09-09 13:59:02,0.0
936.0,0.12957764,-0.020080566,0.00091552734,88.26717,-196.75572,-114.65648999999999,2019-09-09 13:59:02,0.0
937.0,0.12518310000000002,0.00012207031000000001,-0.014282227,99.96183,-168.21375,-99.496185,2019-09-09 13:59:02,0.0
938.0,0.12017822,0.017822266,-0.016296387,62.78626,-127.137405,-77.03053,2019-09-09 13:59:02,0.0
939.0,0.11920166,0.03540039,-0.025756836,-17.183207,-75.47328,-47.08397,2019-09-09 13:59:02,0.0
940.0,0.1262207,0.02557373,-0.021850586,-102.25954399999999,-33.992367,-18.389313,2019-09-09 13:59:02,0.0
941.0,0.117126465,0.009216309,-0.019165039,-151.83206,-1.519084,-5.4503818,2019-09-09 13:59:02,0.0
942.0,0.12640381,-0.0053710938,-0.013793945,-189.98473,24.374046,1.1984733,2019-09-09 13:59:02,0.0
943.0,0.12438965,-0.033691406,-0.003112793,-182.0229,43.954197,-9.351144999999999,2019-09-09 13:59:02,0.0
944.0,0.13085938,-0.049194336,0.009521484,-144.87787,17.389313,-30.961832,2019-09-09 13:59:02,0.0
945.0,0.13134766,-0.059509277,0.014953613000000001,-88.67175,-10.770992,-50.961834,2019-09-09 13:59:02,0.0
946.0,0.12591553,-0.047973632999999995,0.024169922000000003,-31.038168,-50.702290000000005,-66.68701999999999,2019-09-09 13:59:02,0.0
947.0,0.11584473,-0.03479004,0.013244628999999999,8.732824,-74.816795,-72.03053,2019-09-09 13:59:02,0.0
948.0,0.12322998,-0.033447266,0.008728027,43.038166,-95.44275,-73.89313,2019-09-09 13:59:02,0.0
949.0,0.14398193,-0.02166748,-0.0028686523,56.190838,-97.46565,-67.80153,2019-09-09 13:59:02,0.0
950.0,0.15905762,-0.0134887695,-0.010498047,44.83206,-72.44275,-51.633587,2019-09-09 13:59:02,0.0
951.0,0.17877197,-0.025817871000000003,-0.02178955,29.793894,-56.419846,-34.687022999999996,2019-09-09 13:59:02,0.0
952.0,0.18432617,-0.011474608999999998,-0.018127441,28.587785999999998,4.4503818,-20.541985,2019-09-09 13:59:02,0.0
953.0,0.14123535,-0.019165039,-0.0010986328,21.076335999999998,49.419846,2.7099237,2019-09-09 13:59:02,0.0
954.0,0.13909912,-0.025146484,-0.0008544922000000001,22.786259,11.725191,15.015267000000001,2019-09-09 13:59:02,0.0
955.0,0.18560791,-0.021972656,-0.016906738,55.954197,38.732826,24.007633,2019-09-09 13:59:02,0.0
956.0,0.16558838,-0.017822266,-0.028442382999999998,56.732826,124.65648999999999,51.778625,2019-09-09 13:59:02,0.0
957.0,0.14721679999999998,-0.018493652,-0.029968262000000002,63.244274,144.32825,70.29008,2019-09-09 13:59:02,0.0
958.0,0.13470459,-0.012878418,-0.034240723,75.41221999999999,170.81679,89.9313,2019-09-09 13:59:02,0.0
959.0,0.13000488,-0.0068969727,-0.029846191,66.908394,180.72519,106.00764,2019-09-09 13:59:02,0.0
960.0,0.13153076,0.001953125,-0.019958496000000003,45.664124,187.9313,121.20611000000001,2019-09-09 13:59:02,0.0
961.0,0.12658691,-0.004028320300000001,-0.011047363000000001,20.854961,179.8626,133.33588,2019-09-09 13:59:02,0.0
962.0,0.11785889,-0.006286621,-0.00793457,-2.3664122000000005,165.29007,138.87787,2019-09-09 13:59:02,0.0
963.0,0.113220215,-0.024658202999999997,-0.0026855469,-6.7480917,132.70228999999998,137.03053,2019-09-09 13:59:02,0.0
964.0,0.11407471,-0.028503418,-0.013366699,-1.7862595000000001,104.20611,116.71756,2019-09-09 13:59:02,0.0
965.0,0.10760498,-0.030883789,-0.007629394499999999,20.854961,82.23664000000001,94.69466,2019-09-09 13:59:03,0.0
966.0,0.11291504,-0.021118164,-0.007751465,49.229008,61.55725,69.70992,2019-09-09 13:59:03,0.0
967.0,0.11468506,-0.011352538999999998,-0.012756348,57.53435,38.91603,48.694656,2019-09-09 13:59:03,0.0
968.0,0.11315918,0.0034790040000000004,-0.022888184,28.152671999999995,29.801527,27.725191,2019-09-09 13:59:03,0.0
969.0,0.121276855,0.0044555664,-0.0053100586,-6.80916,29.984734000000003,10.374044999999999,2019-09-09 13:59:03,0.0
970.0,0.12817383,-0.01159668,0.007629394499999999,-19.717558,-6.4885497,-18.709923,2019-09-09 13:59:03,0.0
971.0,0.12426758,-0.028259277000000003,0.0021972656,-56.0,-39.496179999999995,-81.816795,2019-09-09 13:59:03,0.0
972.0,0.10632324,-0.023071289,0.016174316,-47.10687,-93.01527,-111.64886000000001,2019-09-09 13:59:03,0.0
973.0,0.12573242,-0.011291503999999999,0.0020751953,-41.08397,-92.51908,-128.83969,2019-09-09 13:59:03,0.0
974.0,0.13909912,-0.011413574,0.004699707,-47.82443,-119.35113999999999,-136.76335,2019-09-09 13:59:03,0.0
975.0,0.16351318,-0.010131836,-0.015625,-53.21374,-117.48092,-136.0,2019-09-09 13:59:03,0.0
976.0,0.15631104,-0.006713866999999999,-0.010009766,-76.25954399999999,-106.14503500000001,-121.19084,2019-09-09 13:59:03,0.0
977.0,0.14331055,-0.010925293,-0.007873535,-91.24428,-94.38931,-106.69466000000001,2019-09-09 13:59:03,0.0
978.0,0.13604736,-0.008544922,-0.011779785,-93.91603,-86.496185,-96.862595,2019-09-09 13:59:03,0.0
979.0,0.13208008,-0.012939453,-0.012634277,-108.099236,-79.37405,-84.9313,2019-09-09 13:59:03,0.0
980.0,0.13446045,-0.02166748,-0.012939453,-108.50381499999999,-64.56489,-79.54961999999999,2019-09-09 13:59:03,0.0
981.0,0.140625,-0.029968262000000002,-0.005004883,-89.16794,-63.045803,-82.62595,2019-09-09 13:59:03,0.0
982.0,0.14544678,-0.039916992000000005,-0.009338379,-69.80153,-65.07633,-89.78626,2019-09-09 13:59:03,0.0
983.0,0.14202881,-0.033935547,0.004211426,-43.717556,-69.79389,-95.32061,2019-09-09 13:59:03,0.0
984.0,0.14038086,-0.036132812,0.010009766,-24.335878,-78.92367,-98.78626,2019-09-09 13:59:03,0.0
985.0,0.12664795,-0.024719237999999998,0.014892578,-8.114504,-85.87786,-93.70229,2019-09-09 13:59:03,0.0
986.0,0.13684082,-0.027038574,0.012329102,-3.2519082999999998,-98.145035,-87.92367,2019-09-09 13:59:03,0.0
987.0,0.16027832,-0.028259277000000003,-0.0014038085999999999,-3.7404580000000003,-91.32825,-72.0458,2019-09-09 13:59:03,0.0
988.0,0.168396,-0.0345459,6.1035155999999994e-05,0.19847329,-56.40458,-47.16794,2019-09-09 13:59:03,0.0
989.0,0.16766357,-0.042053223,-0.0068969727,9.091603,-49.297709999999995,-21.48855,2019-09-09 13:59:03,0.0
990.0,0.18383789,-0.01928711,-0.012390136999999999,37.946564,-7.8702292,0.7633588000000001,2019-09-09 13:59:03,0.0
991.0,0.14038086,-0.012878418,-0.0026245116999999997,40.480915,58.77099200000001,31.206106,2019-09-09 13:59:03,0.0
992.0,0.15032959,-0.015930176,-0.009277344,39.183205,42.709922999999996,53.427482999999995,2019-09-09 13:59:03,0.0
993.0,0.16619873,-0.024719237999999998,-0.026733398,-0.24427481,84.51908,73.91603,2019-09-09 13:59:03,0.0
994.0,0.17285156,-0.021240234,-0.050720215,55.969467,164.99237,93.183205,2019-09-09 13:59:03,0.0
995.0,0.13769531,-0.023864746000000003,-0.04083252,78.0458,204.36641,108.53435,2019-09-09 13:59:03,0.0
996.0,0.14910889,-0.020202637,-0.042907715,107.03817,213.12977999999998,118.175575,2019-09-09 13:59:03,0.0
997.0,0.1552124,-0.0079956055,-0.0357666,117.41221999999999,235.52672,128.96184,2019-09-09 13:59:03,0.0
998.0,0.15216064,-0.0053100586,-0.023620605,109.67175,232.9084,138.71756000000002,2019-09-09 13:59:03,0.0
999.0,0.1439209,0.0034790040000000004,-0.005554199,72.45038000000001,208.54962,153.9771,2019-09-09 13:59:03,0.0
1000.0,0.13146973,-0.01171875,0.0044555664,31.770992,166.7481,162.08397,2019-09-09 13:59:03,0.0
1001.0,0.13702393,-0.022888184,-0.0028076171999999997,25.984734,116.47328,153.64885,2019-09-09 13:59:03,0.0
1002.0,0.13873291,0.016357422,-0.016906738,26.519083000000002,46.160305,121.816795,2019-09-09 13:59:03,0.0
1003.0,0.11547851599999999,0.026794434,-0.04724121,-17.519083,123.137405,122.45801499999999,2019-09-09 13:59:04,0.0
1004.0,0.09240723,0.014526367,-0.01763916,-1.351145,71.94655999999999,81.65649,2019-09-09 13:59:04,0.0
1005.0,0.09564209,-0.0021972656,-0.024475097999999997,-19.900763,77.21374,46.458015,2019-09-09 13:59:04,0.0
1006.0,0.11077881,-0.005676269499999999,-0.02508545,-66.137405,48.458015,9.755725,2019-09-09 13:59:04,0.0
1007.0,0.12579346,-0.024169922000000003,-0.023071289,-76.0,36.290077000000004,-22.213741,2019-09-09 13:59:04,0.0
1008.0,0.12536621,-0.024841309,-0.011169433999999999,-59.572517000000005,14.969465,-71.58015400000001,2019-09-09 13:59:04,0.0
1009.0,0.14910889,-0.0211792,0.0006103515599999999,-54.9771,-55.656490000000005,-100.16794,2019-09-09 13:59:04,0.0
1010.0,0.12658691,-0.038635254,0.023620605,7.19084,-89.0,-116.816795,2019-09-09 13:59:04,0.0
1011.0,0.14349365,-0.026428222999999997,0.007507324,59.900764,-167.64122,-145.16794,2019-09-09 13:59:04,0.0
1012.0,0.15032959,-0.012145996000000001,0.0006713867,94.28244000000001,-177.82443,-146.67938,2019-09-09 13:59:04,0.0
1013.0,0.14654541,-6.1035155999999994e-05,-0.009216309,81.137405,-186.9313,-127.83206000000001,2019-09-09 13:59:04,0.0
1014.0,0.14935303,0.012878418,-0.014831543,17.473282,-142.17557,-103.19847,2019-09-09 13:59:04,0.0
1015.0,0.14227295,0.01940918,-0.020019531,-82.39695,-101.824425,-67.175575,2019-09-09 13:59:04,0.0
1016.0,0.14141846,0.012939453,-0.024169922000000003,-138.80916000000002,-62.076336,-42.74046,2019-09-09 13:59:04,0.0
1017.0,0.13708496,0.0056152343999999995,-0.020568848,-192.70993,-31.57252,-25.877863,2019-09-09 13:59:04,0.0
1018.0,0.13555908,-0.015686035,-0.01586914,-224.96947000000003,-16.770992,-23.42748,2019-09-09 13:59:04,0.0
1019.0,0.13299560000000002,-0.040771484,-0.012329102,-209.35115,-12.755725,-48.389313,2019-09-09 13:59:04,0.0
1020.0,0.14642334,-0.061584473,-0.0015869141,-167.69466,-15.664123000000002,-79.183205,2019-09-09 13:59:04,0.0
1021.0,0.15722656,-0.05999756,-0.0007934570299999999,-115.900764,-50.343509999999995,-109.0458,2019-09-09 13:59:04,0.0
1022.0,0.14056396,-0.058044434000000006,0.008422852,-48.389313,-65.41984599999999,-132.07634,2019-09-09 13:59:04,0.0
1023.0,0.12414551,-0.046203613,0.010009766,1.610687,-93.05344000000001,-138.12213,2019-09-09 13:59:04,0.0
1024.0,0.13055419999999998,-0.033569336,0.009033203,28.778625,-114.59541999999999,-122.08397,2019-09-09 13:59:04,0.0
1025.0,0.15270996,-0.030456543,0.00048828125,31.366413,-117.87786000000001,-97.76335999999999,2019-09-09 13:59:04,0.0
1026.0,0.16113281,-0.01965332,-0.007690429699999999,11.961832000000001,-83.84733,-60.412212,2019-09-09 13:59:04,0.0
1027.0,0.1618042,-0.02154541,-0.012451172,-5.2900763,-42.427483,-19.755726,2019-09-09 13:59:04,0.0
1028.0,0.16070557,-0.020080566,-0.009277344,-10.030535,-13.488548999999999,14.877863,2019-09-09 13:59:04,0.0
1029.0,0.1687622,-0.011779785,-0.018676758,0.5648854999999999,16.183207,38.343509999999995,2019-09-09 13:59:04,0.0
1030.0,0.13171387,-0.018432617,0.0052490233999999995,-2.4351146,73.47328,63.81679499999999,2019-09-09 13:59:04,0.0
1031.0,0.13116455,-0.034606934,-0.0071411133,15.091603,37.885498,67.175575,2019-09-09 13:59:04,0.0
1032.0,0.16998291,-0.037109375,-0.02331543,64.43511,78.099236,66.824425,2019-09-09 13:59:04,0.0
1033.0,0.15557861,-0.049682617000000005,-0.041381836,73.32061,103.770996,67.51908,2019-09-09 13:59:04,0.0
1034.0,0.15118408,-0.04046631,-0.039794922,132.62596000000002,142.15266,66.25191,2019-09-09 13:59:04,0.0
1035.0,0.14929199,-0.021362305,-0.034240723,148.51144,161.07634,67.9542,2019-09-09 13:59:04,0.0
1036.0,0.14361572,-0.006591797,-0.025939941,160.12213,167.3435,72.83206,2019-09-09 13:59:04,0.0
1037.0,0.13946533,0.00091552734,-0.024536132999999998,134.89313,165.73282,89.091606,2019-09-09 13:59:04,0.0
1038.0,0.13739014,0.009094238000000001,-0.008239746,98.10687,161.73282,111.099236,2019-09-09 13:59:04,0.0
1039.0,0.14019775,0.00091552734,-0.013183594,48.381679999999996,147.7939,128.44275,2019-09-09 13:59:05,0.0
1040.0,0.14221191,-0.018859863,-0.015014648,25.099237,137.1145,133.57253,2019-09-09 13:59:05,0.0
1041.0,0.15039062,-0.01776123,-0.030090332,22.251910000000002,123.9771,129.38931000000002,2019-09-09 13:59:05,0.0
1042.0,0.14312744,0.008178711,-0.04626465,17.015266,136.07634,117.40458000000001,2019-09-09 13:59:05,0.0
1043.0,0.10723877,0.012390136999999999,-0.024169922000000003,5.259542,125.89313,100.37405,2019-09-09 13:59:05,0.0
1044.0,0.10076904,0.0008544922000000001,-0.02722168,-30.549618,111.25954399999999,75.824425,2019-09-09 13:59:05,0.0
1045.0,0.11383057,-0.015258788999999998,-0.015991211,-54.82443000000001,88.40458000000001,46.908398,2019-09-09 13:59:05,0.0
1046.0,0.10443115,-0.023925781,-0.007080078,-69.16794,56.15266999999999,14.068703,2019-09-09 13:59:05,0.0
1047.0,0.11151123,-0.025268555,0.0014648438,-25.122137,5.526717700000001,-28.328245000000003,2019-09-09 13:59:05,0.0
1048.0,0.12884521,-0.032226562,-0.0026855469,-28.786259,-51.839695,-58.687022999999996,2019-09-09 13:59:05,0.0
1049.0,0.11169433599999999,-0.028015137000000002,0.008178711,22.167938,-79.01527,-82.16794,2019-09-09 13:59:05,0.0
1050.0,0.11157226599999999,-0.017211914,0.006591797,50.15267,-125.229004,-100.89313,2019-09-09 13:59:05,0.0
1051.0,0.12261963,-0.010192871,0.0024414061999999998,60.46565,-139.03816,-111.83206000000001,2019-09-09 13:59:05,0.0
1052.0,0.13934326,-0.0017700195,0.0012207030999999999,41.366413,-149.49618999999998,-111.66412,2019-09-09 13:59:05,0.0
1053.0,0.14758301,-0.0020141601999999997,0.0007934570299999999,26.015266,-144.12978,-111.61068999999999,2019-09-09 13:59:05,0.0
1054.0,0.1593628,0.0028686523,0.0021972656,-19.656488,-127.79388999999999,-95.503815,2019-09-09 13:59:05,0.0
1055.0,0.15289307,0.008972168,-0.0016479492000000002,-76.58778000000001,-105.36641000000002,-74.67175,2019-09-09 13:59:05,0.0
1056.0,0.14337158,0.005737304699999999,-0.007080078,-102.83969,-85.03817,-58.83206,2019-09-09 13:59:05,0.0
1057.0,0.13452148,-0.002380371,-0.00579834,-125.60305,-67.96947,-44.85496,2019-09-09 13:59:05,0.0
1058.0,0.13055419999999998,-0.0134887695,-0.004028320300000001,-120.96183,-54.610687,-41.282444,2019-09-09 13:59:05,0.0
1059.0,0.13269043,-0.02960205,0.0017700195,-110.40458000000001,-49.076336,-43.709922999999996,2019-09-09 13:59:05,0.0
1060.0,0.13623047,-0.021484375,-0.0009765625,-85.70992,-48.946564,-50.89313,2019-09-09 13:59:05,0.0
1061.0,0.12432861,-0.028198242000000002,0.0015869141,-54.114502,-49.618320000000004,-60.22900799999999,2019-09-09 13:59:05,0.0
1062.0,0.13238525,-0.017028809,0.006164551,-36.46565,-56.25954,-65.54961999999999,2019-09-09 13:59:05,0.0
1063.0,0.13391113,-0.016174316,0.010253906,-30.587785999999998,-60.137405,-65.68701999999999,2019-09-09 13:59:05,0.0
1064.0,0.13360596,-0.016113281,0.0053100586,-33.068703,-67.20611,-61.22900799999999,2019-09-09 13:59:05,0.0
1065.0,0.15484619,-0.024475097999999997,-0.0009765625,-28.0,-70.70992,-56.923664,2019-09-09 13:59:05,0.0
1066.0,0.15716553,-0.026245117000000002,-0.0006103515599999999,-29.709923,-52.84733000000001,-48.137405,2019-09-09 13:59:05,0.0
1067.0,0.1708374,-0.030029297000000003,-0.006652831999999999,-17.992367,-51.526720000000005,-35.16794,2019-09-09 13:59:05,0.0
1068.0,0.18054199,-0.03552246,0.0024414061999999998,7.2137402999999996,-25.473282,-21.145039,2019-09-09 13:59:05,0.0
1069.0,0.1519165,-0.020446777,0.012145996000000001,22.992367,-5.59542,0.55725193,2019-09-09 13:59:05,0.0
1070.0,0.12530518,-0.014343261999999999,0.00982666,29.847328000000005,17.450382,22.335878,2019-09-09 13:59:05,0.0
1071.0,0.13488770000000003,-0.022521972999999997,-0.001159668,36.580154,15.702291,37.923664,2019-09-09 13:59:05,0.0
1072.0,0.16241455,-0.027404785,-0.015563965,52.587788,40.419846,50.435116,2019-09-09 13:59:05,0.0
1073.0,0.15338135,-0.024353027000000003,-0.03149414,78.54961999999999,128.0916,66.65649,2019-09-09 13:59:05,0.0
1074.0,0.14575195,-0.020385742,-0.033813477,93.12214,151.84734,81.07633,2019-09-09 13:59:06,0.0
1075.0,0.1519165,-0.009460449000000001,-0.028808594,93.27481,181.90076000000002,91.29771,2019-09-09 13:59:06,0.0
1076.0,0.14837646,-0.0053100586,-0.019348145,82.9542,195.29771000000002,109.32825,2019-09-09 13:59:06,0.0
1077.0,0.14672852,0.003540039,-0.0065307617,51.099236,190.87022,126.50381499999999,2019-09-09 13:59:06,0.0
1078.0,0.13787842,0.002380371,-0.0036621094,19.274809,181.44275,143.0,2019-09-09 13:59:06,0.0
1079.0,0.13061523,-0.01361084,0.0048828125,7.969465700000001,141.9084,145.71756000000002,2019-09-09 13:59:06,0.0
1080.0,0.12890625,-0.018737793,-0.005554199,14.687023000000002,120.58778000000001,137.80916000000002,2019-09-09 13:59:06,0.0
1081.0,0.13928223,-0.005432129,-0.12677002,49.679390000000005,64.96947,103.58015400000001,2019-09-09 13:59:06,0.0
1082.0,0.10760498,0.011047363000000001,-0.029052734,48.12214,124.908394,86.862595,2019-09-09 13:59:06,0.0
1083.0,0.093688965,0.02166748,-0.01373291,25.541985,82.48092,55.16030500000001,2019-09-09 13:59:06,0.0
1084.0,0.097473145,0.012207031,-0.018371582,-22.007633,86.69466,32.358779999999996,2019-09-09 13:59:06,0.0
1085.0,0.115722656,0.002380371,-0.015563965,-76.32061,59.419846,5.0305343,2019-09-09 13:59:06,0.0
1086.0,0.11846924,-0.013305663999999998,-0.008178711,-90.061066,40.381679999999996,-26.847328000000005,2019-09-09 13:59:06,0.0
1087.0,0.121032715,-0.023925781,0.018920898000000002,-76.221375,-27.93893,-63.16794,2019-09-09 13:59:06,0.0
1088.0,0.14880371,-0.02709961,-0.009460449000000001,-64.60305,-66.8855,-95.19084000000001,2019-09-09 13:59:06,0.0
1089.0,0.113220215,-0.024353027000000003,0.008056641,-22.702289999999998,-99.67939,-115.87786000000001,2019-09-09 13:59:06,0.0
1090.0,0.11767578,-0.01965332,0.0010375977,-9.167939,-142.61068999999998,-131.18321,2019-09-09 13:59:06,0.0
1091.0,0.13647461,-0.017700195,-0.005004883,-19.229008,-153.21375,-137.80916000000002,2019-09-09 13:59:06,0.0
1092.0,0.15649414,-0.018371582,-0.015014648,-22.160304999999997,-163.8626,-134.99237,2019-09-09 13:59:06,0.0
1093.0,0.16619873,-0.0048217773,-0.020141601999999998,-30.045801,-141.0229,-122.84733,2019-09-09 13:59:06,0.0
1094.0,0.15045166,-0.0007324219,-0.028930664,-73.78626,-124.12213999999999,-95.39695,2019-09-09 13:59:06,0.0
1095.0,0.13861084,0.0020751953,-0.020141601999999998,-102.221375,-71.00764000000001,-66.63359,2019-09-09 13:59:06,0.0
1096.0,0.13134766,0.006958008000000001,-0.018188476999999998,-133.74046,-55.78626,-43.633587,2019-09-09 13:59:06,0.0
1097.0,0.13745117,0.00024414062000000002,-0.02154541,-158.73282,-32.007633,-19.755726,2019-09-09 13:59:06,0.0
1098.0,0.12615967,-0.019226074,-0.016296387,-170.15266,-16.297710000000002,-9.80916,2019-09-09 13:59:06,0.0
1099.0,0.13165283,-0.030761719,-0.012390136999999999,-155.0,-14.580152499999999,-15.015267000000001,2019-09-09 13:59:06,0.0
1100.0,0.13916016,-0.046020507999999995,-0.0072631836,-134.96947,-11.183207000000001,-30.290077,2019-09-09 13:59:06,0.0
1101.0,0.13726807,-0.046447754,-0.008422852,-105.45038000000001,-2.4122138,-48.671757,2019-09-09 13:59:06,0.0
1102.0,0.12249756,-0.041992188,0.007019043000000001,-69.9771,-30.549618,-63.53435,2019-09-09 13:59:06,0.0
1103.0,0.11755371,-0.033325195,0.0078125,-58.48855,-45.007633,-70.0229,2019-09-09 13:59:06,0.0
1104.0,0.13354492,-0.03857422,0.0008544922000000001,-41.099236,-63.923664,-67.68701999999999,2019-09-09 13:59:06,0.0
1105.0,0.14349365,-0.034179688,-0.004028320300000001,-26.305344,-64.98473,-59.809162,2019-09-09 13:59:06,0.0
1106.0,0.159729,-0.034362792999999996,-0.004211426,-17.213741,-72.778625,-44.351147,2019-09-09 13:59:06,0.0
1107.0,0.18786621,-0.038085938,-0.014831543,-0.007633588,-56.35878,-26.221375,2019-09-09 13:59:06,0.0
1108.0,0.17260742,-0.027404785,-0.0017089844000000001,25.137404999999998,-20.587785999999998,-2.4885497,2019-09-09 13:59:07,0.0
1109.0,0.12347412,-0.016296387,0.008911133,39.519085,23.076335999999998,25.946566,2019-09-09 13:59:07,0.0
1110.0,0.10906982400000001,-0.016540527,0.0064697266000000005,27.946565999999997,9.580152499999999,50.809162,2019-09-09 13:59:07,0.0
1111.0,0.16394043,-0.019470215,-0.017578125,42.55725,15.335876999999998,66.48092,2019-09-09 13:59:07,0.0
1112.0,0.17761229999999997,-0.01965332,-0.042236328,73.05344000000001,122.51145,89.40458000000001,2019-09-09 13:59:07,0.0
1113.0,0.14013672,-0.016784668,-0.02935791,87.83969,149.32062,104.229004,2019-09-09 13:59:07,0.0
1114.0,0.15093994,-0.011657715,-0.033447266,108.0229,176.54962,111.48855,2019-09-09 13:59:07,0.0
1115.0,0.14770508,-0.0036010741999999997,-0.026306152000000003,111.20611000000001,201.26718,119.03817,2019-09-09 13:59:07,0.0
1116.0,0.14508057,0.00390625,-0.018066406,101.98473,203.53435,125.74045600000001,2019-09-09 13:59:07,0.0
1117.0,0.14099121,0.0037841796999999997,-0.0029296875,67.175575,191.98473,133.68703,2019-09-09 13:59:07,0.0
1118.0,0.13421631,-0.010498047,0.010131836,36.251907,160.72519,134.70993,2019-09-09 13:59:07,0.0
1119.0,0.12414551,-0.01751709,0.0032348633000000003,30.450382,120.8855,123.824425,2019-09-09 13:59:07,0.0
1120.0,0.1239624,-0.016296387,-0.00390625,20.534351,98.51908,106.58015400000001,2019-09-09 13:59:07,0.0
1121.0,0.11999512,0.006042480500000001,-0.02947998,0.6183206,78.99235999999999,87.381676,2019-09-09 13:59:07,0.0
1122.0,0.09906006,0.0065307617,-0.016052246000000003,16.694656,94.64121999999999,67.175575,2019-09-09 13:59:07,0.0
1123.0,0.10473633,0.010131836,-0.019470215,-12.442748,70.54961999999999,47.84733,2019-09-09 13:59:07,0.0
1124.0,0.11077881,-0.0017089844000000001,-0.015197753999999999,-47.23664,72.36641,22.236639999999998,2019-09-09 13:59:07,0.0
1125.0,0.123168945,-0.020874023000000002,-0.012207031,-51.656490000000005,66.01527,-12.648855000000001,2019-09-09 13:59:07,0.0
1126.0,0.109313965,-0.022766112999999998,0.018981934,-44.244274,13.564885,-48.496179999999995,2019-09-09 13:59:07,0.0
1127.0,0.13000488,-0.018676758,-0.005737304699999999,-53.38168,-36.770992,-81.19084000000001,2019-09-09 13:59:07,0.0
1128.0,0.13214111,-0.021240234,0.0006103515599999999,-32.572517,-46.290077000000004,-105.44275,2019-09-09 13:59:07,0.0
1129.0,0.12805176,-0.0079956055,0.012268066000000001,-24.435114000000002,-80.458015,-126.45801499999999,2019-09-09 13:59:07,0.0
1130.0,0.12609863,-0.0067749023,0.021728516,-36.320609999999995,-99.73283,-130.66412,2019-09-09 13:59:07,0.0
1131.0,0.14300537,-0.001953125,0.0037841796999999997,-58.87786,-115.9542,-130.29007,2019-09-09 13:59:07,0.0
1132.0,0.15319824,-0.005554199,-0.012451172,-85.496185,-99.74045600000001,-121.9542,2019-09-09 13:59:07,0.0
1133.0,0.16003418,-0.006958008000000001,-0.015808105,-106.20611000000001,-77.229004,-107.30533999999999,2019-09-09 13:59:07,0.0
1134.0,0.16064453,-0.018127441,-0.0049438477,-112.03053,-58.961833999999996,-95.83206,2019-09-09 13:59:07,0.0
1135.0,0.14746094,-0.005676269499999999,-0.0032348633000000003,-127.56488999999999,-52.931297,-84.64121999999999,2019-09-09 13:59:07,0.0
1136.0,0.13574219,-0.014892578,-0.0020141601999999997,-141.7481,-43.10687,-73.96947,2019-09-09 13:59:07,0.0
1137.0,0.13323975,-0.02178955,-0.007446289,-147.09923999999998,-35.648853,-71.00764000000001,2019-09-09 13:59:07,0.0
1138.0,0.12530518,-0.02960205,-0.008972168,-145.16794,-24.816793,-66.35114,2019-09-09 13:59:07,0.0
1139.0,0.13348389,-0.037963867000000005,-0.0048217773,-123.94656,-25.244274,-71.0,2019-09-09 13:59:07,0.0
1140.0,0.13500977,-0.041259766,-0.0006103515599999999,-100.03053,-26.312977000000004,-77.137405,2019-09-09 13:59:07,0.0
1141.0,0.1361084,-0.035827637,0.003540039,-75.98473,-34.961834,-78.48855,2019-09-09 13:59:07,0.0
1142.0,0.12426758,-0.032348632999999995,0.0013427734,-74.74809,-33.809162,-71.83969,2019-09-09 13:59:07,0.0
1143.0,0.11987305,-0.035095215,0.0009765625,-74.76335999999999,-39.93893,-62.190838,2019-09-09 13:59:07,0.0
1144.0,0.13891602,-0.030761719,-0.010070800999999999,-74.21374,-36.610687,-47.748093,2019-09-09 13:59:07,0.0
1145.0,0.14361572,-0.024719237999999998,0.004272461,-69.80153,-24.038168,-28.70229,2019-09-09 13:59:07,0.0
1146.0,0.14819336,-0.027404785,-0.0037231445,-78.37405,-21.152672,-5.5343513,2019-09-09 13:59:08,0.0
1147.0,0.15203857,-0.031066895,-0.0006103515599999999,-75.57252,-9.977099,15.244275,2019-09-09 13:59:08,0.0
1148.0,0.17761229999999997,-0.025268555,-0.002319336,-56.40458,-7.5114503,33.885498,2019-09-09 13:59:08,0.0
1149.0,0.14569092,-0.0126953125,0.01574707,-36.778625,15.717557000000001,49.473279999999995,2019-09-09 13:59:08,0.0
1150.0,0.10961914,-0.020568848,0.026977539,-18.068703,11.236641,62.015266000000004,2019-09-09 13:59:08,0.0
1151.0,0.11694336,-0.022033691,0.014709473,-1.1603054,12.076336,72.31298000000001,2019-09-09 13:59:08,0.0
1152.0,0.13702393,-0.022338867000000002,0.009277344,42.16794,28.595419,75.59541999999999,2019-09-09 13:59:08,0.0
1153.0,0.14147949,-0.02178955,0.012878418,93.42748,43.687022999999996,78.83969,2019-09-09 13:59:08,0.0
1154.0,0.15057373,-0.012207031,0.00024414062000000002,130.67175,63.938930000000006,82.32061,2019-09-09 13:59:08,0.0
1155.0,0.1663208,0.0007934570299999999,-0.005554199,134.56488000000002,88.19084000000001,87.64121999999999,2019-09-09 13:59:08,0.0
1156.0,0.16418457,0.013000488000000001,-0.008544922,116.27481,118.51908,99.63359,2019-09-09 13:59:08,0.0
1157.0,0.14752197,0.018554688,-0.0020751953,82.69466,134.49618999999998,112.85496499999999,2019-09-09 13:59:08,0.0
1158.0,0.1451416,0.016418457,0.0053100586,49.328243,134.35878,117.07633,2019-09-09 13:59:08,0.0
1159.0,0.12915039,0.0022583008,0.0049438477,26.610687,123.40458000000001,115.0458,2019-09-09 13:59:08,0.0
1160.0,0.10949707,0.0008544922000000001,0.005432129,11.061069,108.64886000000001,112.21373999999999,2019-09-09 13:59:08,0.0
1161.0,0.11157226599999999,-0.0075683593999999995,-0.002319336,8.748092,94.55725,97.31298000000001,2019-09-09 13:59:08,0.0
1162.0,0.09942627,-0.011108398,0.00390625,1.1145038999999999,80.80915999999999,80.51908,2019-09-09 13:59:08,0.0
1163.0,0.09533691400000001,-0.0068359375,0.005065918,10.641221,66.44275,53.938930000000006,2019-09-09 13:59:08,0.0
1164.0,0.091796875,-0.014587402,0.0048828125,1.1755725000000001,46.809162,29.267176,2019-09-09 13:59:08,0.0
1165.0,0.08874512,-0.012390136999999999,0.002319336,-13.145039,36.793890000000005,3.465649,2019-09-09 13:59:08,0.0
1166.0,0.09698486,-0.012878418,0.00390625,-21.175573,15.763359,-24.717558,2019-09-09 13:59:08,0.0
1167.0,0.10534668,-0.010559082,0.007690429699999999,-42.137405,2.6183207000000004,-49.992367,2019-09-09 13:59:08,0.0
1168.0,0.11022949,-0.007873535,0.009399414,-51.206109999999995,-21.786259,-72.1145,2019-09-09 13:59:08,0.0
1169.0,0.1451416,-0.015563965,-0.01586914,-71.45038000000001,-46.564884,-99.28244000000001,2019-09-09 13:59:08,0.0
1170.0,0.1831665,-0.02355957,-0.012634277,-75.908394,-38.267174,-122.05344,2019-09-09 13:59:08,0.0
1171.0,0.17309570000000002,-0.021972656,0.015075683999999999,-69.84733,-66.36641,-135.15266,2019-09-09 13:59:08,0.0
1172.0,0.14990234,-0.015258788999999998,0.030883789,-74.48092,-103.9771,-137.12213,2019-09-09 13:59:08,0.0
1173.0,0.13189697,-0.008544922,0.021850586,-69.32061,-123.67175,-126.35878000000001,2019-09-09 13:59:08,0.0
1174.0,0.13238525,-0.009765625,0.0044555664,-49.229008,-122.770996,-111.37405,2019-09-09 13:59:08,0.0
1175.0,0.144104,-0.0038452148,-0.0028076171999999997,-41.679390000000005,-95.01527,-85.52672,2019-09-09 13:59:08,0.0
1176.0,0.1416626,-0.012512207,0.0032348633000000003,-37.900764,-68.00764000000001,-65.56489,2019-09-09 13:59:08,0.0
1177.0,0.15661621,-0.009460449000000001,0.005859375,-30.480916999999998,-47.85496,-56.76336,2019-09-09 13:59:08,0.0
1178.0,0.15032959,0.0015869141,0.004211426,-41.198475,-22.900763,-38.801525,2019-09-09 13:59:08,0.0
1179.0,0.14178467,-0.0022583008,0.002319336,-59.71755600000001,-4.923664,-17.343512,2019-09-09 13:59:08,0.0
1180.0,0.12902832,-0.01586914,0.008911133,-65.19084000000001,4.2671757,-5.1603055,2019-09-09 13:59:08,0.0
1181.0,0.13171387,-0.006225586,0.014892578,-59.480915,4.2442746,2.572519,2019-09-09 13:59:09,-2.0
1182.0,0.11846924,-0.014953613000000001,0.019348145,-54.603054,4.847328,3.6412212999999998,2019-09-09 13:59:09,-2.0
1183.0,0.115722656,-0.016235351999999998,0.010314941,-34.503820000000005,6.7862597000000004,0.122137405,2019-09-09 13:59:09,-2.0
1184.0,0.11468506,-0.016357422,0.01373291,-19.145039,8.328244,-0.061068702,2019-09-09 13:59:09,-2.0
1185.0,0.11541748,-0.0072631836,0.016967773000000002,-21.351145000000002,10.969465,2.1755726,2019-09-09 13:59:09,-2.0
1186.0,0.11627197,0.0017089844000000001,0.019897461,-10.946565,8.282442999999999,5.8625956,2019-09-09 13:59:09,-2.0
1187.0,0.12506104,-0.0053100586,0.019104003999999997,-3.3969467000000004,8.603053,7.160305499999999,2019-09-09 13:59:09,-2.0
1188.0,0.122924805,-0.00592041,0.013549805,7.6870227,6.076336,9.0,2019-09-09 13:59:09,-2.0
1189.0,0.13562012,-0.0026245116999999997,0.009643555,14.0992365,15.305344,11.022901,2019-09-09 13:59:09,-2.0
1190.0,0.1361084,-0.003540039,0.009338379,16.832062,26.816793,15.984732999999999,2019-09-09 13:59:09,-2.0
1191.0,0.13146973,-0.0045166016,0.0041503906,6.2900763,33.08397,23.763360000000002,2019-09-09 13:59:09,-2.0
1192.0,0.12902832,-0.011047363000000001,0.0009765625,0.8702290000000001,42.526720000000005,30.595419,2019-09-09 13:59:09,-2.0
1193.0,0.13208008,-0.011657715,-0.00042724610000000003,4.5114503,43.946564,37.366413,2019-09-09 13:59:09,-2.0
1194.0,0.12384033,-0.012939453,-0.0016479492000000002,9.755725,44.84733,44.229008,2019-09-09 13:59:09,-2.0
1195.0,0.120910645,-0.01373291,0.00018310547,10.358779,43.496179999999995,47.78626,2019-09-09 13:59:09,-2.0
1196.0,0.12683105,-0.016235351999999998,-0.0017089844000000001,11.633588,41.091602,47.641220000000004,2019-09-09 13:59:09,-2.0
