measurement,Acc_X,Acc_Y,Acc_Z,Gyr_X,Gyr_Y,Gyr_Z,Time(hh:mm:ss),Label
1616.0,-0.14520264,0.01751709,0.016357422,-31.25191,-17.793894,42.770992,2019-09-07 13:11:49,20.0
1617.0,-0.15692139,-0.005432129,0.036987305,-56.12214,-59.62595400000001,36.335876,2019-09-07 13:11:49,20.0
1618.0,-0.14715576,0.02130127,0.0029907227,-38.85496,-69.618324,48.358779999999996,2019-09-07 13:11:49,20.0
1619.0,-0.13085938,0.04748535,0.015380858999999998,-105.618324,-72.229004,65.21374,2019-09-07 13:11:49,20.0
1620.0,-0.15484619,-0.022949219,-0.012023926,-171.62596000000002,-74.78626,29.290077,2019-09-07 13:11:49,20.0
1621.0,-0.11389160000000002,-0.07098389,-0.044189453,-14.0992365,-122.36641000000002,61.35878,2019-09-07 13:11:49,20.0
1622.0,-0.09606933599999999,-0.0021972656,-0.012084961000000002,125.14503500000001,24.213741,48.297709999999995,2019-09-07 13:11:49,20.0
1623.0,-0.13269043,0.032409667999999996,-0.002380371,-29.450382,-47.885498,30.969465000000003,2019-09-07 13:11:49,20.0
1624.0,-0.09686279,0.0036010741999999997,-0.026489257999999998,-63.954197,-11.832061,19.648854999999998,2019-09-07 13:11:49,20.0
1625.0,-0.12731934,0.035095215,0.029663086,-93.59541999999999,-12.282442999999999,10.282442999999999,2019-09-07 13:11:49,20.0
1626.0,-0.12634277,-0.018554688,-0.009765625,-161.92366,-41.099236,-2.4198472,2019-09-07 13:11:49,20.0
1627.0,-0.11016846,-0.050720215,-0.026367188,-82.15267,-52.206109999999995,7.099236500000001,2019-09-07 13:11:49,20.0
1628.0,-0.11547851599999999,-0.01928711,0.012329102,113.03053,41.12214,10.305344,2019-09-07 13:11:49,20.0
1629.0,-0.14184570000000002,0.02508545,0.014404297,82.30534,-35.114502,26.793894,2019-09-07 13:11:49,20.0
1630.0,-0.11846924,0.01361084,0.023742676,73.816795,-6.053435299999999,6.816794,2019-09-07 13:11:49,20.0
1631.0,-0.12072754,0.0134887695,0.031921387,53.81679499999999,20.93893,-6.8549619999999996,2019-09-07 13:11:49,20.0
1632.0,-0.10961914,0.010925293,0.020324707,30.259542,32.366413,-19.152672,2019-09-07 13:11:49,20.0
1633.0,-0.11816406,0.004272461,0.017028809,20.549618,40.519085,-27.526718,2019-09-07 13:11:49,20.0
1634.0,-0.11529541,0.0049438477,0.01574707,10.358779,48.12214,-31.946565999999997,2019-09-07 13:11:49,20.0
1635.0,-0.12158203,0.00592041,0.022277832,1.3206106000000002,52.053436,-35.801525,2019-09-07 13:11:49,20.0
1636.0,-0.12762451,0.0020751953,0.024291992000000002,0.6335878,57.15266999999999,-38.793890000000005,2019-09-07 13:11:49,20.0
1637.0,-0.13079834,0.004272461,0.014160156,1.9465648999999998,65.10687,-36.961834,2019-09-07 13:11:49,20.0
1638.0,-0.13574219,0.010620117,0.018432617,7.2519083,63.610687,-36.44275,2019-09-07 13:11:49,20.0
1639.0,-0.12701416,0.008605957,0.017578125,8.305344,54.053436,-33.0229,2019-09-07 13:11:49,20.0
1640.0,-0.1282959,0.0029907227,0.020080566,12.305344,45.946564,-28.549618,2019-09-07 13:11:49,20.0
1641.0,-0.1282959,0.009399414,0.015258788999999998,14.206107000000001,35.160305,-21.465649,2019-09-07 13:11:49,20.0
1642.0,-0.12457275400000001,0.009460449000000001,0.013244628999999999,11.564885,27.12977,-18.10687,2019-09-07 13:11:49,20.0
1643.0,-0.12463379,0.010131836,0.009887695,9.641221,24.48855,-13.877863,2019-09-07 13:11:49,20.0
1644.0,-0.13183594,0.011962891000000002,0.008422852,0.47328246,20.343512,-9.297709,2019-09-07 13:11:49,20.0
1645.0,-0.14160156,0.019836426,0.011108398,-6.236641400000001,8.122137,-4.3587785000000006,2019-09-07 13:11:49,20.0
1646.0,-0.12628174,0.0115356445,0.009643555,-10.412213000000001,1.9160305,-5.366412,2019-09-07 13:11:49,20.0
1647.0,-0.1338501,0.014343261999999999,0.008850098,-10.488549,2.0992367,-3.7099237,2019-09-07 13:11:49,20.0
1648.0,-0.13531494,0.008300781,0.0063476562,-9.229008,1.2290076,-2.0076337,2019-09-07 13:11:49,20.0
1649.0,-0.13391113,0.009155273,0.0073242188,-7.442748,-1.259542,1.7786259999999998,2019-09-07 13:11:49,20.0
1650.0,-0.1338501,0.006958008000000001,0.00970459,-4.778626,-5.0610685,4.6183205,2019-09-07 13:11:49,20.0
1651.0,-0.12908936,0.012207031,0.010009766,-4.9770994,-8.984733,8.335877,2019-09-07 13:11:50,20.0
1652.0,-0.12896729,0.0115356445,0.005737304699999999,-5.1755724,-8.961832000000001,11.206107000000001,2019-09-07 13:11:50,20.0
1653.0,-0.12200928,0.0053710938,0.009277344,-2.6641220000000003,-11.21374,14.519084,2019-09-07 13:11:50,20.0
1654.0,-0.11669922,0.010864258,0.0079956055,-4.3206105,-14.534351000000001,18.236639999999998,2019-09-07 13:11:50,20.0
1655.0,-0.12268066400000001,0.012023926,0.006652831999999999,-0.122137405,-15.076335999999998,18.954199,2019-09-07 13:11:50,20.0
1656.0,-0.11975098,0.006042480500000001,0.003540039,-1.8778626,-20.221375,17.671754999999997,2019-09-07 13:11:50,20.0
1657.0,-0.12170410000000002,0.007446289,0.006042480500000001,3.3587787000000002,-20.587785999999998,16.641222,2019-09-07 13:11:50,20.0
1658.0,-0.11956787,0.0056152343999999995,0.005004883,3.9160306000000005,-21.251910000000002,12.679389,2019-09-07 13:11:50,20.0
1659.0,-0.113220215,0.005432129,0.010009766,10.167939,-19.809160000000002,12.732824,2019-09-07 13:11:50,20.0
1660.0,-0.10882568,0.0040893555,0.0087890625,13.992367000000002,-15.419847500000001,7.236641400000001,2019-09-07 13:11:50,20.0
1661.0,-0.10870361,0.0045776367,0.01171875,17.809160000000002,-13.954199,3.0458016,2019-09-07 13:11:50,20.0
1662.0,-0.10247803,0.0041503906,0.017028809,17.503817,-17.763360000000002,-1.9389313000000001,2019-09-07 13:11:50,20.0
1663.0,-0.090026855,0.002380371,0.010437011999999999,25.259542,-21.091601999999998,-6.1984735,2019-09-07 13:11:50,20.0
1664.0,-0.07696533,0.007507324,0.012023926,23.641222,-21.015266,-4.7175574000000005,2019-09-07 13:11:50,20.0
1665.0,-0.072753906,0.0015869141,0.018981934,29.290077,-25.923664000000002,-4.5648856,2019-09-07 13:11:50,20.0
1666.0,-0.07250976599999999,0.0063476562,0.012512207,36.770992,-17.977098,-8.305344,2019-09-07 13:11:50,20.0
1667.0,-0.07531738,0.006225586,0.011169433999999999,37.671757,-3.7175572,-11.145039,2019-09-07 13:11:50,20.0
1668.0,-0.08129883,0.0068969727,0.0037841796999999997,35.038166,-1.9770991999999998,-19.48855,2019-09-07 13:11:50,20.0
1669.0,-0.11651611,0.014038086000000002,-0.016723633,36.664124,54.18320500000001,-37.839695,2019-09-07 13:11:50,20.0
1670.0,-0.20019531,0.03503418,-0.002380371,-1.610687,64.58778000000001,-62.549618,2019-09-07 13:11:50,20.0
1671.0,-0.24731445,0.018981934,0.017089844,-24.465649,57.870228000000004,-88.21374,2019-09-07 13:11:50,20.0
1672.0,-0.1807251,0.025268555,0.04248047,-24.458015,60.076336,-81.08397,2019-09-07 13:11:50,20.0
1673.0,-0.15551758,0.018310547,0.022705077999999997,-20.389313,73.496185,-52.374046,2019-09-07 13:11:50,20.0
1674.0,-0.15686035,-0.0048828125,0.007751465,-51.129771999999996,65.68701999999999,-5.7480917,2019-09-07 13:11:50,20.0
1675.0,-0.14666748,-0.017150878999999997,0.013916016000000002,-44.519085,33.755726,43.89313,2019-09-07 13:11:50,20.0
1676.0,-0.12506104,-0.0010986328,0.019714355,-32.85496,8.961832000000001,68.503815,2019-09-07 13:11:50,20.0
1677.0,-0.11071777,0.006713866999999999,0.014038086000000002,-19.473282,-2.6183207000000004,63.84733000000001,2019-09-07 13:11:50,20.0
1678.0,-0.12615967,0.009216309,0.013122558999999999,-18.526718,-18.786259,54.053436,2019-09-07 13:11:50,20.0
1679.0,-0.09295654,0.0036621094,0.018310547,5.4274807,-36.908398,25.908398000000002,2019-09-07 13:11:50,20.0
1680.0,-0.08050537,0.010437011999999999,0.032287598,14.480916,-16.839695000000003,14.267176000000001,2019-09-07 13:11:50,20.0
1681.0,-0.083496094,0.008300781,0.03302002,-4.396946400000001,-0.40458015,9.030535,2019-09-07 13:11:50,20.0
1682.0,-0.07391357400000001,0.004333496,0.03869629,-38.816795,1.8549619,6.1603055,2019-09-07 13:11:50,20.0
1683.0,-0.070251465,0.0006103515599999999,0.029663086,-54.732826,6.152672,6.114504,2019-09-07 13:11:50,20.0
1684.0,-0.08654785,0.005432129,0.01739502,-59.015266000000004,28.435114000000002,0.35877863,2019-09-07 13:11:50,20.0
1685.0,-0.111816406,0.0036621094,0.015380858999999998,-58.15266999999999,24.312977,-2.6488549999999997,2019-09-07 13:11:50,20.0
1686.0,-0.122924805,0.00012207031000000001,0.0036621094,-56.580154,-17.458015,-0.022900764,2019-09-07 13:11:51,20.0
1687.0,-0.13061523,0.008422852,-0.012939453,-32.702290000000005,-19.51145,10.625955000000001,2019-09-07 13:11:51,20.0
1688.0,-0.18273926,0.008544922,-0.0178833,-24.007633,5.7480917,11.435115,2019-09-07 13:11:51,20.0
1689.0,-0.23425293,-0.0030517578000000003,-0.021972656,-42.076336,-42.129771999999996,13.839695,2019-09-07 13:11:51,20.0
1690.0,-0.22357178,-0.005737304699999999,-0.036621094,-11.893129,-80.16031,18.793894,2019-09-07 13:11:51,20.0
1691.0,-0.21661377,0.00579834,-0.014526367,6.6183205,-56.755726,4.8625956,2019-09-07 13:11:51,20.0
1692.0,-0.17895508,0.0134887695,-0.008483886999999999,29.931296999999997,-57.603054,-5.931298,2019-09-07 13:11:51,20.0
1693.0,-0.14361572,0.018432617,0.008544922,34.496179999999995,-17.580153,-9.496183,2019-09-07 13:11:51,20.0
1694.0,-0.11462402,0.011108398,0.013000488000000001,34.603054,12.335877,-17.114504,2019-09-07 13:11:51,20.0
1695.0,-0.09375,0.011108398,0.024230957,11.473283,41.46565,-28.57252,2019-09-07 13:11:51,20.0
1696.0,-0.07952881,0.009521484,0.030151367000000002,-7.412214,53.35878,-39.679390000000005,2019-09-07 13:11:51,20.0
1697.0,-0.06927489999999999,0.0107421875,0.024536132999999998,-26.816793,68.94655999999999,-47.961834,2019-09-07 13:11:51,20.0
1698.0,-0.080566406,0.004211426,0.026123047000000003,-27.29771,69.56489,-58.030533,2019-09-07 13:11:51,20.0
1699.0,-0.072265625,0.003112793,0.02355957,-15.320610999999998,58.335876,-67.28244000000001,2019-09-07 13:11:51,20.0
1700.0,-0.06311035,0.0007324219,0.020568848,6.038168,38.778625,-67.862595,2019-09-07 13:11:51,20.0
1701.0,-0.07055664,0.001953125,0.002380371,37.12214,24.816793,-64.938934,2019-09-07 13:11:51,20.0
1702.0,-0.08581543,0.0072021483999999995,-0.0072021483999999995,66.67175,39.251907,-61.549618,2019-09-07 13:11:51,20.0
1703.0,-0.09277344,0.013916016000000002,0.007385254,67.12977,2.5267177000000003,-44.770992,2019-09-07 13:11:51,20.0
1704.0,-0.08660889,0.014587402,0.002746582,53.083969999999994,-35.603054,-27.480916999999998,2019-09-07 13:11:51,20.0
1705.0,-0.12066650400000001,0.0119018555,-0.035095215,58.22900799999999,17.48855,-17.595419,2019-09-07 13:11:51,20.0
1706.0,-0.25097656,0.019897461,-0.007629394499999999,77.12214,72.496185,-14.022901000000001,2019-09-07 13:11:51,20.0
1707.0,-0.2902832,0.015136719,0.005676269499999999,69.25954399999999,-69.618324,8.160305000000001,2019-09-07 13:11:51,20.0
1708.0,-0.12451172,0.037353516,0.038024902,85.84733,-29.57252,16.908398000000002,2019-09-07 13:11:51,20.0
1709.0,-0.21069336,0.035583496,0.043151855,46.85496,82.19847,27.42748,2019-09-07 13:11:51,20.0
1710.0,-0.19085693,0.005859375,0.048583984000000004,-45.961834,23.648854999999998,50.992367,2019-09-07 13:11:51,20.0
1711.0,-0.12072754,-0.0138549805,0.035583496,-99.48092,35.137405,68.091606,2019-09-07 13:11:51,20.0
1712.0,-0.10479736,-0.022033691,0.013916016000000002,-123.80153,7.664122,94.36641,2019-09-07 13:11:51,20.0
1713.0,-0.09954834,-0.016845703,-0.00390625,-83.34351,4.6183205,81.76335999999999,2019-09-07 13:11:51,20.0
1714.0,-0.10534668,-0.013366699,0.014404297,-43.328243,-12.763359,64.62595,2019-09-07 13:11:51,20.0
1715.0,-0.10052489999999999,-0.008117675999999999,0.010681152,-14.458015,-54.78626,45.687022999999996,2019-09-07 13:11:51,20.0
1716.0,-0.078308105,-0.012145996000000001,0.01776123,13.290076000000001,-37.709922999999996,21.305344,2019-09-07 13:11:51,20.0
1717.0,-0.07580566400000001,-0.00024414062000000002,0.028930664,21.992367,-11.824428,3.648855,2019-09-07 13:11:51,20.0
1718.0,-0.07659912,0.005859375,0.037719727,-3.2824428,-1.0687023,-6.778625999999999,2019-09-07 13:11:51,20.0
1719.0,-0.08697510000000001,0.008605957,0.03869629,-49.076336,12.992367,-13.458015,2019-09-07 13:11:51,20.0
1720.0,-0.09936523400000001,-0.008972168,0.038879395,-77.69466,31.595419,-16.549618,2019-09-07 13:11:51,20.0
1721.0,-0.09844971,0.0014038085999999999,0.031433105,-88.47328,28.29771,-18.0,2019-09-07 13:11:52,20.0
1722.0,-0.09008789,-0.008483886999999999,0.021240234,-78.54961999999999,13.328244,-15.061069,2019-09-07 13:11:52,20.0
1723.0,-0.10205078,-0.0028076171999999997,-0.00793457,-42.129771999999996,24.358778,-13.59542,2019-09-07 13:11:52,20.0
1724.0,-0.14758301,-0.009277344,-0.023376465,-6.4885497,48.519085,-15.832060999999998,2019-09-07 13:11:52,20.0
1725.0,-0.20147705,0.0028686523,-0.034057617000000005,-14.946565,-9.343511999999999,-9.030535,2019-09-07 13:11:52,20.0
1726.0,-0.20861816,-0.004028320300000001,-0.027770996000000003,15.282442999999999,-63.923664,-2.1526718,2019-09-07 13:11:52,20.0
1727.0,-0.21569824,0.008544922,-0.045166015999999996,37.44275,-56.35878,0.14503817,2019-09-07 13:11:52,20.0
1728.0,-0.2678833,0.01763916,-0.023376465,35.06107,-55.656490000000005,-13.465648999999999,2019-09-07 13:11:52,20.0
1729.0,-0.21429443,0.019165039,0.009521484,48.549618,-51.480915,-27.541984999999997,2019-09-07 13:11:52,20.0
1730.0,-0.16326904,0.0126953125,0.026184082,51.633587,7.664122,-38.198475,2019-09-07 13:11:52,20.0
1731.0,-0.11016846,0.017333984,0.02935791,52.679390000000005,31.007633000000002,-33.137405,2019-09-07 13:11:52,20.0
1732.0,-0.08361816400000001,0.004699707,0.03894043,25.748089999999998,41.44275,-26.824427000000004,2019-09-07 13:11:52,20.0
1733.0,-0.064941406,-0.005554199,0.032409667999999996,-7.0229006,41.221375,-13.977098999999999,2019-09-07 13:11:52,20.0
1734.0,-0.05847168,-0.025390625,0.032104492000000005,-5.0610685,46.10687,0.03816794,2019-09-07 13:11:52,20.0
1735.0,-0.063964844,-0.019592285,0.022583007999999998,16.89313,33.885498,7.412214,2019-09-07 13:11:52,20.0
1736.0,-0.06317139,-0.013427733999999998,0.012207031,32.221375,4.6870227,6.0839696,2019-09-07 13:11:52,20.0
1737.0,-0.06872558599999999,-0.00982666,-0.0029296875,59.870228000000004,-10.656488000000001,-2.3587787000000002,2019-09-07 13:11:52,20.0
1738.0,-0.08496094,-0.0030517578000000003,-0.006652831999999999,92.35114,-21.900763,-14.603053,2019-09-07 13:11:52,20.0
1739.0,-0.09887695,0.001159668,-0.01727295,99.96947,-54.664124,-15.297709,2019-09-07 13:11:52,20.0
1740.0,-0.095581055,0.011413574,-0.011413574,107.92367,-79.778625,-15.893129,2019-09-07 13:11:52,20.0
1741.0,-0.09576416,0.016235351999999998,-0.004028320300000001,106.20611000000001,-81.45038000000001,-17.045801,2019-09-07 13:11:52,20.0
1742.0,-0.09094238,0.016479492,0.013427733999999998,95.36641,-93.27481,-21.809160000000002,2019-09-07 13:11:52,20.0
1743.0,-0.097717285,0.02166748,-0.013061523,101.66412,-90.824425,-28.030534999999997,2019-09-07 13:11:52,20.0
1744.0,-0.18286133,0.024475097999999997,0.003112793,115.23664,-19.305344,-50.46565,2019-09-07 13:11:52,20.0
1745.0,-0.20892334,0.036987305,0.015197753999999999,121.183205,-14.694656,-81.770996,2019-09-07 13:11:52,20.0
1746.0,-0.15386963,0.048217773,0.05615234400000001,89.94655999999999,80.9313,-109.24428,2019-09-07 13:11:52,20.0
1747.0,-0.13800049,0.06591797,0.049987792999999996,33.53435,136.64885,-110.50381499999999,2019-09-07 13:11:52,20.0
1748.0,-0.22186279999999997,0.039001465,0.025024414,-88.16794,216.40458999999998,-103.74809,2019-09-07 13:11:52,20.0
1749.0,-0.22570801,0.028930664,0.021240234,-215.90076000000002,227.26717999999997,-90.183205,2019-09-07 13:11:52,20.0
1750.0,-0.15502929999999998,0.007446289,0.00579834,-250.1374,131.54199,-52.9771,2019-09-07 13:11:52,20.0
1751.0,-0.109436035,-0.018798828,-0.0033569335999999996,-250.1374,53.931297,5.9007635,2019-09-07 13:11:52,20.0
1752.0,-0.113464355,-0.04168701,-0.002319336,-109.137405,60.37404599999999,25.725191,2019-09-07 13:11:52,20.0
1753.0,-0.09405517599999999,-0.044616699999999995,0.016540527,-12.351144999999999,2.129771,39.17557,2019-09-07 13:11:52,20.0
1754.0,-0.060791015999999996,-0.038330078,0.016479492,55.84733000000001,-26.167938,40.51145,2019-09-07 13:11:52,20.0
1755.0,-0.041748047,-0.010375977,0.036193848,51.0229,-13.145039,34.618320000000004,2019-09-07 13:11:53,20.0
1756.0,-0.045654297,-0.0020751953,0.048217773,17.145039,-7.763358599999999,25.549618,2019-09-07 13:11:53,20.0
1757.0,-0.07305908,0.0072631836,0.051879882999999995,-36.198475,18.557251,11.206107000000001,2019-09-07 13:11:53,20.0
1758.0,-0.09613037,0.014953613000000001,0.053833007999999995,-91.38931,6.0,-8.419847500000001,2019-09-07 13:11:53,20.0
1759.0,-0.09918213,0.016479492,0.039916992000000005,-128.2061,-27.015265999999997,-18.51145,2019-09-07 13:11:53,20.0
1760.0,-0.111450195,0.011108398,0.008605957,-136.80153,-9.725191,-35.328243,2019-09-07 13:11:53,20.0
1761.0,-0.16778564,0.009643555,-0.017089844,-126.50381499999999,30.778625,-49.290077000000004,2019-09-07 13:11:53,20.0
1762.0,-0.28228759999999997,0.006042480500000001,-0.050598145,-159.0458,-21.748089999999998,-48.297709999999995,2019-09-07 13:11:53,20.0
1763.0,-0.27520752,-0.024719237999999998,-0.06872558599999999,-88.92367,-172.83969,-19.076335999999998,2019-09-07 13:11:53,20.0
1764.0,-0.23583984,-0.014160156,-0.06945801,-26.480916999999998,-175.90076000000002,14.083969,2019-09-07 13:11:53,20.0
1765.0,-0.24176025,-0.030029297000000003,-0.043518065999999994,17.717558,-200.52671999999998,57.18320500000001,2019-09-07 13:11:53,20.0
1766.0,-0.15356445,-0.030761719,-0.014953613000000001,96.63359,-176.15266,100.061066,2019-09-07 13:11:53,20.0
1767.0,-0.1071167,-0.012573242,0.011291503999999999,151.35115,-109.37405,105.175575,2019-09-07 13:11:53,20.0
1768.0,-0.0881958,0.015380858999999998,0.017700195,159.33588,-59.427482999999995,115.816795,2019-09-07 13:11:53,20.0
1769.0,-0.07446289,0.025817871000000003,0.037353516,101.89313,-26.946565999999997,95.32061,2019-09-07 13:11:53,20.0
1770.0,-0.053100586,0.033447266,0.03491211,14.763359,-16.732824,67.938934,2019-09-07 13:11:53,20.0
1771.0,-0.042114257999999995,0.030456543,0.024597168,-39.862595,-19.89313,45.85496,2019-09-07 13:11:53,20.0
1772.0,-0.042114257999999995,0.020751953,0.017089844,-76.900764,-2.7328243,21.076335999999998,2019-09-07 13:11:53,20.0
1773.0,-0.054260254,0.010498047,0.0031738281,-87.381676,25.541985,-2.7404580000000003,2019-09-07 13:11:53,20.0
1774.0,-0.07971191400000001,-0.0033569335999999996,0.0029296875,-80.32061,4.6106873,-20.946566,2019-09-07 13:11:53,20.0
1775.0,-0.07183838,-0.0026855469,-0.0036621094,-64.47328,-39.458015,-30.374046000000003,2019-09-07 13:11:53,20.0
1776.0,-0.066467285,-0.016296387,-0.014038086000000002,-22.190839999999998,-30.274809,-38.076336,2019-09-07 13:11:53,20.0
1777.0,-0.09344482400000001,-0.014038086000000002,-0.05242919999999999,35.267174,24.89313,-46.725190000000005,2019-09-07 13:11:53,20.0
1778.0,-0.20025635,-0.0017089844000000001,-0.0099487305,119.778625,83.80915999999999,-65.60305,2019-09-07 13:11:53,20.0
1779.0,-0.24005127,0.009460449000000001,-0.012451172,89.41221999999999,-36.251907,-64.80153,2019-09-07 13:11:53,20.0
1780.0,-0.22473145,0.03753662,0.054870605,62.610687,77.44275,-97.41984599999999,2019-09-07 13:11:53,20.0
1781.0,-0.2515869,0.046020507999999995,0.07080078,33.603054,169.83969,-112.25191000000001,2019-09-07 13:11:53,20.0
1782.0,-0.18090820000000002,0.0119018555,0.07592773400000001,-57.862595,220.87787000000003,-105.89313,2019-09-07 13:11:53,20.0
1783.0,-0.12249756,-0.024108887000000002,0.05615234400000001,-124.28244,200.2061,-86.64886,2019-09-07 13:11:53,20.0
1784.0,-0.07073974599999999,-0.012756348,0.015014648,-156.48091000000002,121.41984599999999,-36.007633,2019-09-07 13:11:53,20.0
1785.0,-0.09204101599999999,-0.035217285,-0.033508300000000005,-109.16793999999999,176.3435,-27.740458,2019-09-07 13:11:53,20.0
1786.0,-0.13464355,-0.053588867000000005,-0.0075683593999999995,10.381680000000001,174.42747,-40.282444,2019-09-07 13:11:53,20.0
1787.0,-0.09509277,0.0028686523,0.012939453,133.47328000000002,64.503815,-76.67939,2019-09-07 13:11:53,20.0
1788.0,-0.09411621,0.028686523,0.029663086,104.183205,48.702290000000005,-96.496185,2019-09-07 13:11:53,20.0
1789.0,-0.09680176,0.038757323999999996,0.0435791,52.900764,55.55725,-100.381676,2019-09-07 13:11:53,20.0
1790.0,-0.12768555,0.038879395,0.06481933599999999,-26.213741,61.16030500000001,-104.183205,2019-09-07 13:11:53,20.0
1791.0,-0.1296997,0.031433105,0.05810547,-93.26717,9.167939,-87.57252,2019-09-07 13:11:53,20.0
1792.0,-0.10961914,0.025024414,0.04156494,-120.618324,4.4656487,-68.83969,2019-09-07 13:11:54,20.0
1793.0,-0.11663818,0.013061523,0.018554688,-120.74045600000001,-5.9694657,-38.503820000000005,2019-09-07 13:11:54,20.0
1794.0,-0.15783691,-0.0034790040000000004,-0.01977539,-109.45038000000001,1.7251908999999999,-4.7251905999999995,2019-09-07 13:11:54,20.0
1795.0,-0.22509766,-0.018981934,-0.04095459,-63.053436,-26.923664000000002,26.267176,2019-09-07 13:11:54,20.0
1796.0,-0.24340820000000005,-0.032409667999999996,-0.03503418,-5.5419846,-141.87787,76.778625,2019-09-07 13:11:54,20.0
1797.0,-0.18084717,-0.012756348,-0.06292724599999999,33.900764,-214.49618999999998,129.2061,2019-09-07 13:11:54,20.0
1798.0,-0.237854,0.008483886999999999,-0.058532715,60.61832,-153.89313,159.73282,2019-09-07 13:11:54,20.0
1799.0,-0.29620359999999996,0.006164551,-0.043762207000000004,35.76336,-250.1374,190.80916000000002,2019-09-07 13:11:54,20.0
1800.0,-0.21453857,-0.0031738281,-0.020080566,55.633587,-250.1374,200.45801,2019-09-07 13:11:54,20.0
1801.0,-0.16394043,0.01550293,0.008911133,47.969467,-197.49618999999998,185.36641,2019-09-07 13:11:54,20.0
1802.0,-0.12890625,0.023864746000000003,0.017944336,19.221375,-146.22137,179.32825,2019-09-07 13:11:54,20.0
1803.0,-0.11517334,0.018981934,0.013244628999999999,-19.465649,-95.33588,162.77100000000002,2019-09-07 13:11:54,20.0
1804.0,-0.11456299,0.008178711,0.008728027,-62.17556999999999,-70.71755999999999,151.18321,2019-09-07 13:11:54,20.0
1805.0,-0.109191895,-0.00024414062000000002,0.0007934570299999999,-90.770996,-56.221375,137.87022,2019-09-07 13:11:54,20.0
1806.0,-0.10223389,-0.008361816,-0.004272461,-96.0,-51.709922999999996,120.48855,2019-09-07 13:11:54,20.0
1807.0,-0.107910156,-0.013061523,-0.0026245116999999997,-84.67939,-56.580154,94.89313,2019-09-07 13:11:54,20.0
1808.0,-0.10888672,-0.020568848,-0.007751465,-55.77099200000001,-62.15266999999999,64.46565,2019-09-07 13:11:54,20.0
1809.0,-0.10076904,-0.024658202999999997,-0.0022583008,-10.534351,-67.07633,33.87786,2019-09-07 13:11:54,20.0
1810.0,-0.08123779,-0.020568848,-0.00091552734,29.534351,-66.9542,-0.08396947,2019-09-07 13:11:54,20.0
1811.0,-0.074401855,-0.012756348,0.012084961000000002,90.48092,-34.137405,-35.610687,2019-09-07 13:11:54,20.0
1812.0,-0.07458496,0.016174316,0.012451172,147.67175,-3.7480917000000002,-66.62595,2019-09-07 13:11:54,20.0
1813.0,-0.08831787,0.04638672,0.028076172000000003,173.99237,47.343509999999995,-95.64121999999999,2019-09-07 13:11:54,20.0
1814.0,-0.11749267599999999,0.08081055,0.06286621,108.63358999999998,40.290077000000004,-123.183205,2019-09-07 13:11:54,20.0
1815.0,-0.11920166,0.08135986,0.07092285,26.022902,53.633587,-132.54962,2019-09-07 13:11:54,20.0
1816.0,-0.12512207,0.06439209,0.056274414,-23.404581,79.16794,-126.48855,2019-09-07 13:11:54,20.0
1817.0,-0.12536621,0.055114746,0.046081542999999996,-38.969467,98.0458,-114.39695,2019-09-07 13:11:54,20.0
1818.0,-0.1362915,0.053344727,0.05615234400000001,-42.778625,106.91603,-108.74808999999999,2019-09-07 13:11:54,20.0
1819.0,-0.12475586,0.03564453,0.05810547,-33.198475,97.061066,-108.46565,2019-09-07 13:11:54,20.0
1820.0,-0.117248535,0.033813477,0.04748535,-1.1145038999999999,94.92367,-108.091606,2019-09-07 13:11:54,20.0
1821.0,-0.10894775400000001,0.030517577999999997,0.039001465,19.137404999999998,79.32825,-100.26717,2019-09-07 13:11:54,20.0
1822.0,-0.09173584,0.025268555,0.03503418,27.099237,58.587788,-94.35114,2019-09-07 13:11:54,20.0
1823.0,-0.07885742,0.026245117000000002,0.024291992000000002,34.274809999999995,61.312977000000004,-94.15267,2019-09-07 13:11:54,20.0
1824.0,-0.08526611,0.024475097999999997,0.030578612999999998,32.610687,67.25191,-88.65649,2019-09-07 13:11:54,20.0
1825.0,-0.0836792,0.027526855,0.04046631,17.48855,57.198475,-84.496185,2019-09-07 13:11:54,20.0
1826.0,-0.09014892599999999,0.017822266,0.03643799,0.41984734,61.679390000000005,-79.32825,2019-09-07 13:11:54,20.0
1827.0,-0.09631348,0.018981934,0.033203125,-2.778626,77.19084000000001,-76.59541999999999,2019-09-07 13:11:54,20.0
1828.0,-0.115722656,0.014892578,0.022644043,-6.5343513,56.916030000000006,-68.099236,2019-09-07 13:11:55,20.0
1829.0,-0.11193848,0.021057128999999997,0.018493652,0.129771,40.610687,-57.87786,2019-09-07 13:11:55,20.0
1830.0,-0.11547851599999999,0.012207031,0.009521484,11.335877,27.465649,-42.954197,2019-09-07 13:11:55,20.0
1831.0,-0.14526367,0.01586914,-0.0006103515599999999,21.931297,33.412212,-23.229008,2019-09-07 13:11:55,20.0
1832.0,-0.18328857,0.013427733999999998,-0.0018920898,15.396947,15.007632999999998,-0.015267176,2019-09-07 13:11:55,20.0
1833.0,-0.19946289,0.016113281,-0.01763916,8.145039,-13.465648999999999,22.206106,2019-09-07 13:11:55,20.0
1834.0,-0.2421875,0.009033203,-0.0015869141,-24.458015,-77.68701999999999,51.664124,2019-09-07 13:11:55,20.0
1835.0,-0.1821289,0.013000488000000001,0.0079956055,-34.870228000000004,-75.12214,64.34351,2019-09-07 13:11:55,20.0
1836.0,-0.17572021,-0.00048828125,0.0067749023,-40.778625,-49.335876,69.496185,2019-09-07 13:11:55,20.0
1837.0,-0.128479,-0.0024414061999999998,0.012207031,-46.687022999999996,-47.091602,76.0458,2019-09-07 13:11:55,20.0
1838.0,-0.10308838,-0.008422852,0.018066406,-47.91603,-25.091601999999998,72.73283,2019-09-07 13:11:55,20.0
1839.0,-0.09240723,0.00018310547,0.020019531,-55.549618,-21.770992,65.59541999999999,2019-09-07 13:11:55,20.0
1840.0,-0.08752441400000001,0.0025634766,0.022705077999999997,-59.67175699999999,-12.229008,52.183205,2019-09-07 13:11:55,20.0
1841.0,-0.08428955,0.0008544922000000001,0.031433105,-52.77099200000001,11.114504,38.427483,2019-09-07 13:11:55,20.0
1842.0,-0.08862305,0.0030517578000000003,0.023925781,-48.931297,-4.5725193,25.816793,2019-09-07 13:11:55,20.0
1843.0,-0.07598877,-0.0067749023,0.016723633,-41.358779999999996,-20.114504,13.351145,2019-09-07 13:11:55,20.0
1844.0,-0.06097412,-0.005432129,0.010192871,-24.06107,-29.633587,4.1221375,2019-09-07 13:11:55,20.0
1845.0,-0.07379150400000001,-0.0007324219,0.0032958984000000004,-1.7251908999999999,-29.87023,-6.5725193,2019-09-07 13:11:55,20.0
1846.0,-0.08520508,-0.010803223,-0.008178711,21.587785999999998,-29.160304999999997,-11.725191,2019-09-07 13:11:55,20.0
1847.0,-0.08557129,-0.0007324219,0.0007324219,43.900764,-39.305344,-11.580152499999999,2019-09-07 13:11:55,20.0
1848.0,-0.07318115,0.008239746,0.0025024414000000004,49.274809999999995,-57.603054,-12.137404,2019-09-07 13:11:55,20.0
1849.0,-0.083862305,0.00793457,-0.016174316,69.33588,-7.519083999999999,-25.534351,2019-09-07 13:11:55,20.0
1850.0,-0.15661621,0.010192871,6.1035155999999994e-05,94.54961999999999,36.526720000000005,-40.099236,2019-09-07 13:11:55,20.0
1851.0,-0.20281982,0.025390625,0.0007934570299999999,77.57252,6.1984735,-58.51145,2019-09-07 13:11:55,20.0
1852.0,-0.17993164,0.03881836,0.03717041,58.62595400000001,52.687022999999996,-74.145035,2019-09-07 13:11:55,20.0
1853.0,-0.24798584,0.042175292999999996,0.020751953,41.419846,123.59541999999999,-89.908394,2019-09-07 13:11:55,20.0
1854.0,-0.24304199,0.022521972999999997,0.036132812,-59.62595400000001,138.55725,-79.61069,2019-09-07 13:11:55,20.0
1855.0,-0.1796875,-0.006713866999999999,0.039245605,-150.10687,124.770996,-62.885498,2019-09-07 13:11:55,20.0
1856.0,-0.11761474599999999,-0.009643555,0.025695799999999998,-150.1145,86.79389,-18.305344,2019-09-07 13:11:55,20.0
1857.0,-0.088378906,-0.009399414,0.0067749023,-83.19084000000001,46.160305,7.9770994,2019-09-07 13:11:55,20.0
1858.0,-0.09136963,-0.01586914,0.014709473,-12.923664,62.251906999999996,10.053435,2019-09-07 13:11:55,20.0
1859.0,-0.09100342,-0.01953125,0.014465332,26.89313,17.320610000000002,7.19084,2019-09-07 13:11:55,20.0
1860.0,-0.07727051,-0.011169433999999999,0.023742676,44.21374,-17.89313,3.6259542000000002,2019-09-07 13:11:55,20.0
1861.0,-0.064331055,0.007629394499999999,0.03161621,61.045803,-15.465648999999999,-3.351145,2019-09-07 13:11:56,20.0
1862.0,-0.055541992000000005,0.016113281,0.039001465,44.954197,-0.20610687,-9.839694999999999,2019-09-07 13:11:56,20.0
1863.0,-0.070129395,0.0211792,0.044128417999999996,9.2595415,27.374046000000003,-14.183207000000001,2019-09-07 13:11:56,20.0
1864.0,-0.08264160000000001,0.013916016000000002,0.04522705,-29.404581,23.48855,-19.93893,2019-09-07 13:11:56,20.0
1865.0,-0.08648682,0.0146484375,0.030761719,-56.801525,15.984732999999999,-19.480917,2019-09-07 13:11:56,20.0
1866.0,-0.09893799,0.016357422,0.014221191000000001,-61.32824300000001,34.564884,-22.671754999999997,2019-09-07 13:11:56,20.0
1867.0,-0.14886475,0.016723633,-0.0032348633000000003,-67.30534,43.473279999999995,-19.221375,2019-09-07 13:11:56,20.0
1868.0,-0.22064209,0.009338379,-0.015075683999999999,-90.71755999999999,40.74046,-20.328245000000003,2019-09-07 13:11:56,20.0
1869.0,-0.25091553,-0.0014648438,-0.04168701,-79.39695,-52.541985,4.335878,2019-09-07 13:11:56,20.0
1870.0,-0.22790527,-0.0036621094,-0.06567383,-34.305344,-89.66412,31.396946000000003,2019-09-07 13:11:56,20.0
1871.0,-0.29492188,-0.014343261999999999,-0.05126953,-24.709923,-103.21374,50.694656,2019-09-07 13:11:56,20.0
1872.0,-0.23065186,-0.028198242000000002,-0.029724121000000003,27.442749,-166.60306,75.183205,2019-09-07 13:11:56,20.0
1873.0,-0.16894531,-0.0138549805,-0.0009765625,65.42748,-121.94656,78.74809,2019-09-07 13:11:56,20.0
1874.0,-0.1149292,0.007690429699999999,0.021850586,88.42748,-122.83206000000001,82.19847,2019-09-07 13:11:56,20.0
1875.0,-0.07269287,0.0115356445,0.03479004,80.74045600000001,-65.12977,79.57252,2019-09-07 13:11:56,20.0
1876.0,-0.060913086,0.014831543,0.030334472999999997,35.549618,-41.251907,67.34351,2019-09-07 13:11:56,20.0
1877.0,-0.06036377,0.007873535,0.022827148,-7.442748,-22.648854999999998,52.328243,2019-09-07 13:11:56,20.0
1878.0,-0.05847168,0.012817383,0.02142334,-35.82443,-8.068703,34.381679999999996,2019-09-07 13:11:56,20.0
1879.0,-0.051696777,0.0053100586,0.020690918,-58.984733999999996,-0.7557252,10.938931,2019-09-07 13:11:56,20.0
1880.0,-0.06500244,-0.006286621,0.015197753999999999,-61.206109999999995,-6.9389315,-13.824428,2019-09-07 13:11:56,20.0
1881.0,-0.06927489999999999,-0.0024414061999999998,0.012817383,-38.297709999999995,-6.9160304,-38.068703,2019-09-07 13:11:56,20.0
1882.0,-0.079956055,0.007507324,0.006286621,-3.465649,0.21374045,-57.343509999999995,2019-09-07 13:11:56,20.0
1883.0,-0.09173584,0.012145996000000001,0.012634277,38.137405,-2.8549618999999997,-65.19847,2019-09-07 13:11:56,20.0
1884.0,-0.08477783,0.025268555,0.022094727,54.74046,-28.801527,-64.26717,2019-09-07 13:11:56,20.0
1885.0,-0.07501221,0.026123047000000003,0.026062012000000002,46.25954,-23.725191,-58.946564,2019-09-07 13:11:56,20.0
1886.0,-0.091918945,0.027648926,0.010314941,47.045803,-2.6564887,-47.809162,2019-09-07 13:11:56,20.0
1887.0,-0.16113281,0.036376953,0.018676758,86.23664000000001,60.83969499999999,-48.038166,2019-09-07 13:11:56,20.0
1888.0,-0.23937988,0.06878662,0.047973632999999995,88.80153,21.977098,-47.389313,2019-09-07 13:11:56,20.0
1889.0,-0.14764404,0.07318115,0.07531738,56.862595,-1.9083970000000001,-29.580153000000003,2019-09-07 13:11:56,20.0
1890.0,-0.13824463,0.059936523,0.018188476999999998,28.541984999999997,55.068703,-15.7786255,2019-09-07 13:11:56,20.0
1891.0,-0.24981689999999998,0.046081542999999996,0.03277588,-17.564885999999998,72.061066,0.5496183000000001,2019-09-07 13:11:56,20.0
1892.0,-0.19403076,0.037353516,0.06677246,-51.305344,34.755726,33.312977000000004,2019-09-07 13:11:56,20.0
1893.0,-0.12792969,0.01373291,0.061462402,-86.21374,34.496179999999995,37.435116,2019-09-07 13:11:56,20.0
1894.0,-0.109558105,0.002380371,0.036071777,-55.198475,27.045801,41.114502,2019-09-07 13:11:56,20.0
1895.0,-0.103393555,0.0013427734,0.040222167999999996,-30.847328000000005,20.175573,42.412212,2019-09-07 13:11:56,20.0
1896.0,-0.097595215,-0.014404297,0.044006348,-15.267176000000001,3.0458016,35.93893,2019-09-07 13:11:56,20.0
1897.0,-0.07904053,-0.008666992,0.043395996,11.374044999999999,5.5801525000000005,21.404581,2019-09-07 13:11:56,20.0
1898.0,-0.06774902,0.011047363000000001,0.043884277,16.908398000000002,17.89313,0.40458015,2019-09-07 13:11:57,20.0
1899.0,-0.07055664,0.019470215,0.044555664,-13.061069,31.900763,-12.664123,2019-09-07 13:11:57,20.0
1900.0,-0.07189941400000001,0.015380858999999998,0.045654297,-44.946564,32.15267,-23.175573,2019-09-07 13:11:57,20.0
1901.0,-0.07464599599999999,0.0020751953,0.033691406,-63.633587,45.946564,-28.755726,2019-09-07 13:11:57,20.0
1902.0,-0.09045410000000001,-0.0014648438,0.040771484,-75.05344000000001,68.73283,-37.93893,2019-09-07 13:11:57,20.0
1903.0,-0.09448242,-0.0052490233999999995,0.04547119,-84.816795,49.381679999999996,-45.908398,2019-09-07 13:11:57,20.0
1904.0,-0.090026855,-0.013549805,0.036071777,-68.73283,37.396946,-46.564884,2019-09-07 13:11:57,20.0
1905.0,-0.09863281,-0.0033569335999999996,0.017822266,-25.770992,39.82443,-45.9771,2019-09-07 13:11:57,20.0
1906.0,-0.11889648400000001,0.0024414061999999998,-0.011291503999999999,4.3816795,50.702290000000005,-43.687022999999996,2019-09-07 13:11:57,20.0
1907.0,-0.19018555,0.012756348,-0.011657715,8.435115,99.83206,-44.526720000000005,2019-09-07 13:11:57,20.0
1908.0,-0.26629640000000004,0.00018310547,-0.017822266,-11.351144999999999,-6.6183205,-38.12214,2019-09-07 13:11:57,20.0
1909.0,-0.20196533,0.0041503906,-0.016906738,21.977098,-95.78626,-20.206106,2019-09-07 13:11:57,20.0
1910.0,-0.22180176,0.013244628999999999,-0.023864746000000003,29.458015000000003,-19.08397,-18.595419,2019-09-07 13:11:57,20.0
1911.0,-0.23913574,0.00592041,-0.017700195,26.969465000000003,-65.091606,-0.89312977,2019-09-07 13:11:57,20.0
1912.0,-0.16796875,-0.0032348633000000003,0.0067749023,39.229008,-48.46565,8.946565,2019-09-07 13:11:57,20.0
1913.0,-0.12384033,0.0015258789000000001,0.028503418,41.381679999999996,-2.1221373,9.503817,2019-09-07 13:11:57,20.0
1914.0,-0.09210205,0.013977051,0.03314209,27.08397,19.748089999999998,6.6412214999999994,2019-09-07 13:11:57,20.0
1915.0,-0.08245849599999999,0.006713866999999999,0.033325195,-10.175572,31.412214000000002,2.832061,2019-09-07 13:11:57,20.0
1916.0,-0.07684326,-0.0024414061999999998,0.02557373,-14.458015,54.28244399999999,-6.7175574000000005,2019-09-07 13:11:57,20.0
1917.0,-0.08227539,0.0029907227,0.023986816,-12.229008,50.290077000000004,-19.519083,2019-09-07 13:11:57,20.0
1918.0,-0.084472656,0.0018920898,0.02368164,-6.519083999999999,37.648853,-37.702290000000005,2019-09-07 13:11:57,20.0
1919.0,-0.08233642599999999,-0.0018920898,0.02178955,7.9847326,18.290077,-49.183205,2019-09-07 13:11:57,20.0
1920.0,-0.06829834,-0.0079956055,0.018859863,30.57252,-16.12977,-51.297709999999995,2019-09-07 13:11:57,20.0
1921.0,-0.05609131,-0.0048828125,0.01361084,57.893130000000006,-28.786259,-45.183205,2019-09-07 13:11:57,20.0
1922.0,-0.06964111,-0.0044555664,0.008239746,71.32825,-30.038168,-32.183205,2019-09-07 13:11:57,20.0
1923.0,-0.058532715,0.0031738281,0.011962891000000002,73.34351,-37.946564,-17.068703,2019-09-07 13:11:57,20.0
1924.0,-0.10961914,0.011230469,-0.034729004,84.26717,34.93893,4.9389315,2019-09-07 13:11:57,20.0
1925.0,-0.22320557,0.029174805,0.018127441,97.59541999999999,33.923664,-6.5801525,2019-09-07 13:11:57,20.0
1926.0,-0.26898193,0.02557373,0.014770508,33.541985,-72.34351,-5.6106873,2019-09-07 13:11:57,20.0
1927.0,-0.15240479,0.03387451,0.03363037,36.374046,-32.251907,-15.290076000000001,2019-09-07 13:11:57,20.0
1928.0,-0.20953369,0.042419434000000006,0.03137207,28.038168,72.137405,-13.824428,2019-09-07 13:11:57,20.0
1929.0,-0.22570801,0.0138549805,0.037231445,-61.83206,101.27481,-0.7633588000000001,2019-09-07 13:11:57,20.0
1930.0,-0.15875244,-0.013793945,0.048828125,-139.60306,126.62595,8.2595415,2019-09-07 13:11:57,20.0
1931.0,-0.113220215,-0.012268066000000001,0.03112793,-175.0916,100.07633,26.450382,2019-09-07 13:11:57,20.0
1932.0,-0.09680176,-0.014587402,0.009216309,-156.43511999999998,52.679390000000005,51.91603,2019-09-07 13:11:57,20.0
1933.0,-0.09722900400000001,-0.028381347999999997,0.012817383,-66.25954399999999,67.23664000000001,45.305344,2019-09-07 13:11:58,20.0
1934.0,-0.09918213,-0.025268555,0.019592285,-1.8931297999999999,29.328245000000003,33.190838,2019-09-07 13:11:58,20.0
1935.0,-0.06774902,-0.0041503906,0.023254395,19.93893,9.0992365,13.38168,2019-09-07 13:11:58,20.0
1936.0,-0.06506348,0.0126953125,0.03515625,-1.4732825,12.374044999999999,-7.3893127000000005,2019-09-07 13:11:58,20.0
1937.0,-0.050598145,0.014099121000000001,0.039123535,-48.885498,8.755725,-17.480917,2019-09-07 13:11:58,20.0
1938.0,-0.06677246,0.0012817383,0.035705566,-98.61069,20.557251,-21.0,2019-09-07 13:11:58,20.0
1939.0,-0.07708739999999999,0.0006713867,0.037231445,-119.96183,25.816793,-27.045801,2019-09-07 13:11:58,20.0
1940.0,-0.08850098,-0.0031738281,0.030517577999999997,-128.15266,6.1221375,-28.946565999999997,2019-09-07 13:11:58,20.0
1941.0,-0.09045410000000001,-0.004333496,0.011169433999999999,-108.51145,9.877863,-32.473279999999995,2019-09-07 13:11:58,20.0
1942.0,-0.12701416,-0.0010375977,-0.016174316,-72.80153,58.67175699999999,-33.526720000000005,2019-09-07 13:11:58,20.0
1943.0,-0.20690918,0.007385254,-0.006713866999999999,-70.48855,31.305344,-36.381679999999996,2019-09-07 13:11:58,20.0
1944.0,-0.2553711,-0.008850098,-0.03277588,-47.839695,-36.664124,-18.625954,2019-09-07 13:11:58,20.0
1945.0,-0.22869873,0.0008544922000000001,-0.016784668,12.816792999999999,-104.56489,9.122137,2019-09-07 13:11:58,20.0
1946.0,-0.22192383,0.0072631836,-0.036804199999999995,12.801527,-97.96947,31.10687,2019-09-07 13:11:58,20.0
1947.0,-0.24383545,-0.008911133,-0.03466797,14.557251999999998,-119.35113999999999,58.091602,2019-09-07 13:11:58,20.0
1948.0,-0.19891357,-0.013366699,-0.016296387,42.580154,-119.69466000000001,80.28244000000001,2019-09-07 13:11:58,20.0
1949.0,-0.16174316,0.00048828125,-0.0063476562,62.52672,-91.08397,87.03053,2019-09-07 13:11:58,20.0
1950.0,-0.11688232400000001,0.010131836,0.007751465,56.76336,-77.70992,86.175575,2019-09-07 13:11:58,20.0
1951.0,-0.08764648400000001,0.018005371000000003,0.024963378999999997,28.80916,-36.74046,72.1145,2019-09-07 13:11:58,20.0
1952.0,-0.07104492,0.016052246000000003,0.025024414,-10.961832000000001,-19.954199,53.0229,2019-09-07 13:11:58,20.0
1953.0,-0.06335449,0.0032958984000000004,0.019714355,-27.0,0.48091602,34.587788,2019-09-07 13:11:58,20.0
1954.0,-0.06292724599999999,0.004272461,0.019042969,-31.526718,17.961832,11.541985,2019-09-07 13:11:58,20.0
1955.0,-0.062194824,0.008483886999999999,0.02178955,-41.038166,18.358778,-4.114504,2019-09-07 13:11:58,20.0
1956.0,-0.047973632999999995,0.0045776367,0.026184082,-46.923664,9.549619,-20.267176,2019-09-07 13:11:58,20.0
1957.0,-0.045837402,-0.0012817383,0.021362305,-34.610687,-0.27480915,-31.61832,2019-09-07 13:11:58,20.0
1958.0,-0.05090332,-0.00579834,-0.0018920898,-8.183207000000001,10.664123,-39.984734,2019-09-07 13:11:58,20.0
1959.0,-0.07189941400000001,-0.0072631836,-0.0032958984000000004,30.244274,28.961832,-46.335876,2019-09-07 13:11:58,20.0
1960.0,-0.076049805,0.0012207030999999999,0.0115356445,42.87786,-2.0076337,-43.503820000000005,2019-09-07 13:11:58,20.0
1961.0,-0.06799316400000001,0.0021362305,0.00091552734,45.198475,-27.503816999999998,-43.603054,2019-09-07 13:11:58,20.0
1962.0,-0.08300781,0.007751465,-0.030639648,75.73283,63.961833999999996,-49.053436,2019-09-07 13:11:58,20.0
1963.0,-0.21392822,0.02130127,0.00030517577999999995,128.17557,133.90076000000002,-73.24428,2019-09-07 13:11:58,20.0
1964.0,-0.31530762,0.031066895,6.1035155999999994e-05,25.717558,23.274809,-87.91603,2019-09-07 13:11:58,20.0
1965.0,-0.19244385,0.034057617000000005,0.059020996,47.809162,71.92367,-108.0687,2019-09-07 13:11:58,20.0
1966.0,-0.26287842,0.05224609400000001,0.026306152000000003,40.648853,157.89313,-106.381676,2019-09-07 13:11:58,20.0
1967.0,-0.25,0.0051879883,0.037597656,-77.84733,106.20611000000001,-67.64886,2019-09-07 13:11:58,20.0
1968.0,-0.16131592,-0.03173828,0.022094727,-111.79388999999999,95.091606,-30.625953999999997,2019-09-07 13:11:59,20.0
1969.0,-0.10504150400000001,-0.037109375,0.0211792,-83.73283,49.931297,20.244274,2019-09-07 13:11:59,20.0
1970.0,-0.08227539,-0.016784668,0.005859375,-22.42748,49.206109999999995,36.08397,2019-09-07 13:11:59,20.0
1971.0,-0.09613037,-0.00793457,0.019897461,35.25954,53.099236,31.816793,2019-09-07 13:11:59,20.0
1972.0,-0.09692383,-0.0041503906,0.022216797000000003,67.091606,1.2137405,28.656488,2019-09-07 13:11:59,20.0
1973.0,-0.07318115,0.0044555664,0.020263672,74.59541999999999,-20.183207,7.625953999999999,2019-09-07 13:11:59,20.0
1974.0,-0.06555176,0.023620605,0.031066895,54.50382,-19.404581,-14.824428,2019-09-07 13:11:59,20.0
1975.0,-0.05432129,0.025634766,0.03515625,7.2824425999999995,-10.465649,-23.656488,2019-09-07 13:11:59,20.0
1976.0,-0.062683105,0.015258788999999998,0.03955078,-36.648853,13.076336,-29.671754999999997,2019-09-07 13:11:59,20.0
1977.0,-0.08465576,0.014038086000000002,0.046081542999999996,-63.9771,38.51145,-39.633587,2019-09-07 13:11:59,20.0
1978.0,-0.09924316400000001,0.0068969727,0.03869629,-84.23664000000001,11.694656,-35.412212,2019-09-07 13:11:59,20.0
1979.0,-0.08892822,0.0007324219,0.012756348,-74.39695,-9.175572,-21.740458,2019-09-07 13:11:59,20.0
1980.0,-0.12249756,0.0045776367,-0.012023926,-41.9771,28.450382,-12.274809,2019-09-07 13:11:59,20.0
1981.0,-0.19134521,0.008911133,-0.00982666,-41.091602,62.061069999999994,-4.809159999999999,2019-09-07 13:11:59,20.0
1982.0,-0.27337646,-0.0045776367,-0.044189453,-57.893130000000006,-50.099236,19.877863,2019-09-07 13:11:59,20.0
1983.0,-0.21765137,-0.015014648,-0.045959473,-16.396946,-149.62596000000002,51.114502,2019-09-07 13:11:59,20.0
1984.0,-0.23010254,-0.0034790040000000004,-0.04541015599999999,6.190840000000001,-95.48092,60.870228000000004,2019-09-07 13:11:59,20.0
1985.0,-0.26812744,-0.010070800999999999,-0.022949219,7.6412214999999994,-145.8855,73.23664000000001,2019-09-07 13:11:59,20.0
1986.0,-0.17584229,0.0010375977,0.006164551,42.0,-118.65648999999999,71.458015,2019-09-07 13:11:59,20.0
1987.0,-0.13653564,0.010559082,0.026550293,40.89313,-64.229004,62.083969999999994,2019-09-07 13:11:59,20.0
1988.0,-0.101623535,0.01727295,0.024291992000000002,41.587788,-30.671754999999997,50.526720000000005,2019-09-07 13:11:59,20.0
1989.0,-0.07196045,0.006652831999999999,0.02722168,8.748092,-6.900763499999999,39.23664,2019-09-07 13:11:59,20.0
1990.0,-0.06597900400000001,0.005004883,0.026489257999999998,-31.740458,1.8854961,25.396946,2019-09-07 13:11:59,20.0
1991.0,-0.05291748,0.0063476562,0.02130127,-45.625954,15.641221,13.870229,2019-09-07 13:11:59,20.0
1992.0,-0.061584473,0.011779785,0.019714355,-52.114502,40.702290000000005,-2.8931298,2019-09-07 13:11:59,20.0
1993.0,-0.071777344,-0.0014648438,0.021057128999999997,-52.984733999999996,27.633587,-13.862596,2019-09-07 13:11:59,20.0
1994.0,-0.06677246,-0.009216309,0.01586914,-48.190838,-10.19084,-17.099237,2019-09-07 13:11:59,20.0
1995.0,-0.056884765999999996,-0.0073242188,0.00024414062000000002,-17.099237,-21.885496,-24.099237,2019-09-07 13:11:59,20.0
1996.0,-0.06817627,-0.007873535,-0.010131836,31.419846999999997,-1.1374046,-27.213741,2019-09-07 13:11:59,20.0
1997.0,-0.089904785,-0.0015258789000000001,-0.0048828125,64.42748,-8.755725,-24.389313,2019-09-07 13:11:59,20.0
1998.0,-0.08453369,0.0009765625,0.0028076171999999997,65.900764,-40.419846,-18.969465,2019-09-07 13:11:59,20.0
1999.0,-0.09124756,0.0051879883,-0.01763916,80.36641,-23.664122,-19.396946,2019-09-07 13:11:59,20.0
2000.0,-0.17602539,0.015014648,-0.013366699,119.60305,74.70992,-38.641220000000004,2019-09-07 13:11:59,20.0
2001.0,-0.27264404,0.024963378999999997,-0.017456055,57.23664,-0.2519084,-55.221375,2019-09-07 13:11:59,20.0
2002.0,-0.18347168,0.032226562,0.04498291,75.44275,28.244274,-77.091606,2019-09-07 13:11:59,20.0
2003.0,-0.15771484,0.045898438,0.042297363,61.099236,104.58778000000001,-83.39695,2019-09-07 13:11:59,20.0
2004.0,-0.21142578,0.02758789,0.022949219,-23.923664000000002,141.70228999999998,-72.16031,2019-09-07 13:12:00,20.0
2005.0,-0.18652344,-0.005065918,0.01776123,-107.66412,124.900764,-52.59542,2019-09-07 13:12:00,20.0
2006.0,-0.13305664,-0.01776123,0.012268066000000001,-129.28243999999998,103.099236,-21.931297,2019-09-07 13:12:00,20.0
2007.0,-0.11242676,-0.0115356445,0.00579834,-96.15267,63.82443000000001,-0.5038168,2019-09-07 13:12:00,20.0
2008.0,-0.10119629,-0.005859375,0.010925293,-34.198475,65.183205,-0.83206105,2019-09-07 13:12:00,20.0
2009.0,-0.11456299,-0.016418457,0.01776123,15.526717000000001,36.519085,-4.3511453,2019-09-07 13:12:00,20.0
2010.0,-0.09088135,-0.0078125,0.019836426,67.19084000000001,11.931297,-12.206107000000001,2019-09-07 13:12:00,20.0
2011.0,-0.08117676,0.007629394499999999,0.024230957,92.183205,16.748089999999998,-23.755726,2019-09-07 13:12:00,20.0
2012.0,-0.07983398400000001,0.023254395,0.033081055,71.854965,18.366413,-29.259542,2019-09-07 13:12:00,20.0
2013.0,-0.08374023400000001,0.019897461,0.039245605,22.213741,21.702289999999998,-31.51145,2019-09-07 13:12:00,20.0
2014.0,-0.09661865,0.016784668,0.03479004,-19.137404999999998,24.229008,-33.114502,2019-09-07 13:12:00,20.0
2015.0,-0.11529541,0.016052246000000003,0.024902344,-38.14504,52.160305,-35.648853,2019-09-07 13:12:00,20.0
2016.0,-0.15612793,0.01953125,0.022277832,-67.69466,26.152672,-34.427483,2019-09-07 13:12:00,20.0
2017.0,-0.13964844,0.0020751953,0.020446777,-67.64121999999999,-0.5954198,-23.145039,2019-09-07 13:12:00,20.0
2018.0,-0.11743164,-0.0010375977,0.007629394499999999,-28.183207,-22.480917,-4.7862597000000004,2019-09-07 13:12:00,20.0
2019.0,-0.13189697,-0.003967285,-0.008850098,5.015267400000001,-3.3358779999999997,12.770992,2019-09-07 13:12:00,20.0
2020.0,-0.17053223,0.013061523,-0.0043945312,13.793892999999999,-14.977098999999999,30.351145000000002,2019-09-07 13:12:00,20.0
2021.0,-0.21044922,0.014892578,-0.011657715,8.267176,-37.458015,42.839695,2019-09-07 13:12:00,20.0
2022.0,-0.20819092,0.0146484375,0.00048828125,1.9236640999999999,-85.854965,47.870228000000004,2019-09-07 13:12:00,20.0
2023.0,-0.15765381,0.017700195,-0.008605957,-4.190840000000001,-85.41984599999999,56.51145,2019-09-07 13:12:00,20.0
2024.0,-0.18188477,0.019104003999999997,-0.005859375,-21.305344,-64.65649,54.12214,2019-09-07 13:12:00,20.0
2025.0,-0.1762085,0.013305663999999998,-0.0063476562,-46.526720000000005,-71.43511,50.618320000000004,2019-09-07 13:12:00,20.0
2026.0,-0.16247559,0.005432129,0.00390625,-50.725190000000005,-51.809162,49.435116,2019-09-07 13:12:00,20.0
2027.0,-0.13287354,0.0072631836,0.008666992,-53.343509999999995,-39.450382,44.931297,2019-09-07 13:12:00,20.0
2028.0,-0.11547851599999999,0.0115356445,0.0071411133,-56.274809999999995,-27.099237,38.007633,2019-09-07 13:12:00,20.0
2029.0,-0.09216308599999999,0.0061035156000000005,0.008666992,-57.274809999999995,-20.419847,34.84733,2019-09-07 13:12:00,20.0
2030.0,-0.09643555,0.008361816,0.009216309,-57.778625,-20.557251,32.564884,2019-09-07 13:12:00,20.0
2031.0,-0.08905029,-0.0021362305,0.008178711,-44.46565,-13.954199,27.312977000000004,2019-09-07 13:12:00,20.0
2032.0,-0.09387207,0.0021362305,0.010131836,-29.25191,-7.465648700000001,21.625954,2019-09-07 13:12:00,20.0
2033.0,-0.10211182,0.0126953125,0.006958008000000001,-25.328245000000003,-12.984733,16.824427,2019-09-07 13:12:00,20.0
2034.0,-0.109313965,0.0028686523,0.0052490233999999995,-17.702289999999998,-12.374044999999999,10.511451,2019-09-07 13:12:00,20.0
2035.0,-0.11059569999999999,0.002380371,0.008178711,-5.9389315,-16.786259,6.9465647,2019-09-07 13:12:00,20.0
2036.0,-0.10894775400000001,-0.00030517577999999995,-0.0016479492000000002,6.0,-13.488548999999999,2.5801528,2019-09-07 13:12:00,20.0
2037.0,-0.13720703,0.008605957,0.0040893555,16.580153,-5.1297708,-1.3435115,2019-09-07 13:12:00,20.0
2038.0,-0.14575195,-0.0017089844000000001,0.004333496,19.961832,-6.9389315,-11.526717,2019-09-07 13:12:00,20.0
2039.0,-0.1673584,0.011169433999999999,-0.023925781,28.992366999999998,22.534351,-28.06107,2019-09-07 13:12:00,20.0
2040.0,-0.16699219,0.012084961000000002,0.013244628999999999,20.137404999999998,-10.870229,-36.419846,2019-09-07 13:12:01,-2.0
2041.0,-0.12017822,0.01184082,-0.002380371,29.19084,52.587788,-50.946564,2019-09-07 13:12:01,-2.0
2042.0,-0.17437744,0.005981445300000001,0.033691406,5.0992365,65.24428,-49.076336,2019-09-07 13:12:01,-2.0
2043.0,-0.12182617,0.00042724610000000003,0.036376953,-12.679389,65.34351,-44.21374,2019-09-07 13:12:01,-2.0
2044.0,-0.1182251,-0.0014038085999999999,0.02545166,-17.656488,90.61069,-32.274809999999995,2019-09-07 13:12:01,-2.0
2045.0,-0.13702393,-0.0014648438,0.014343261999999999,-19.290077,71.19847,-20.977098,2019-09-07 13:12:01,-2.0
2046.0,-0.12463379,-0.008605957,0.0053100586,-26.900763,43.908398,-12.862596,2019-09-07 13:12:01,-2.0
2047.0,-0.11627197,-0.019165039,-0.00042724610000000003,-23.38168,18.335878,-8.984733,2019-09-07 13:12:01,-2.0
2048.0,-0.10882568,-0.010681152,-0.0067749023,20.236639999999998,14.725191,-14.175572,2019-09-07 13:12:01,-2.0
2049.0,-0.10974121,-0.010864258,0.0015258789000000001,57.419846,21.961832,-26.480916999999998,2019-09-07 13:12:01,-2.0
2050.0,-0.11505127,0.004028320300000001,0.0071411133,67.48092,16.625954,-36.419846,2019-09-07 13:12:01,-2.0
2051.0,-0.11553955,0.016540527,0.018920898000000002,62.748093000000004,14.274809,-46.76336,2019-09-07 13:12:01,-2.0
2052.0,-0.111328125,0.02557373,0.025024414,38.53435,22.503817,-60.893130000000006,2019-09-07 13:12:01,-2.0
2053.0,-0.118652344,0.019714355,0.029174805,0.36641222,33.923664,-69.64886,2019-09-07 13:12:01,-2.0
2054.0,-0.10577392599999999,0.014953613000000001,0.023498535,-32.045803,48.15267,-76.57252,2019-09-07 13:12:01,-2.0
2055.0,-0.11279297,0.014221191000000001,0.015930176,-51.0,70.221375,-80.99235999999999,2019-09-07 13:12:01,-2.0
2056.0,-0.13427734,0.01586914,0.019042969,-62.64122,86.07633,-83.16794,2019-09-07 13:12:01,-2.0
2057.0,-0.14318848,0.01776123,0.017456055,-69.74809,82.64121999999999,-83.9313,2019-09-07 13:12:01,-2.0
2058.0,-0.15856934,0.023864746000000003,-0.006042480500000001,-68.72519,86.59541999999999,-78.816795,2019-09-07 13:12:01,-2.0
2059.0,-0.20501709,0.020812988,0.0053710938,-93.183205,83.05344000000001,-77.32825,2019-09-07 13:12:01,-2.0
2060.0,-0.20007324,0.010559082,0.011352538999999998,-92.83206,15.2213745,-55.870228000000004,2019-09-07 13:12:01,-2.0
2061.0,-0.14215088,0.017028809,0.01940918,-97.05344000000001,-41.045803,-25.877863,2019-09-07 13:12:01,-2.0
2062.0,-0.10491943,0.016845703,-0.00018310547,-100.27481,-51.48855,2.2671757,2019-09-07 13:12:01,-2.0
2063.0,-0.13854979999999997,0.01928711,-0.014404297,-112.94656,-39.519085,16.282442,2019-09-07 13:12:01,-2.0
2064.0,-0.16955566,0.018371582,-0.029968262000000002,-133.7481,-96.381676,35.9771,2019-09-07 13:12:01,-2.0
2065.0,-0.15985107,0.012573242,-0.039611816,-141.70993,-144.12213,44.717556,2019-09-07 13:12:01,-2.0
2066.0,-0.15490723,0.008117675999999999,-0.03643799,-144.00763,-180.38168000000002,53.76336,2019-09-07 13:12:01,-2.0
2067.0,-0.14880371,0.0045776367,-0.029968262000000002,-133.26718,-202.75572,64.71755999999999,2019-09-07 13:12:01,-2.0
2068.0,-0.15722656,-0.0065307617,-0.01159668,-102.12977,-196.0,81.56489,2019-09-07 13:12:01,-2.0
2069.0,-0.16571045,-0.012207031,-0.009033203,-55.23664,-196.55725,99.76335999999999,2019-09-07 13:12:01,-2.0
2070.0,-0.1459961,-0.012512207,-0.007751465,2.4961832000000004,-171.85497,123.01527,2019-09-07 13:12:01,-2.0
2071.0,-0.14379883,0.003112793,-0.012390136999999999,47.335876,-140.0916,139.78625,2019-09-07 13:12:01,-2.0
2072.0,-0.14251709,0.018371582,-0.012451172,59.648853,-117.53435,143.93893,2019-09-07 13:12:01,-2.0
2073.0,-0.13476562,0.0234375,-0.016662598,49.801525,-97.51145,136.92366,2019-09-07 13:12:01,-2.0
2074.0,-0.12341308599999999,0.024291992000000002,-0.015625,23.351145000000002,-83.80915999999999,121.8855,2019-09-07 13:12:01,-2.0
2075.0,-0.11328125,0.026062012000000002,-0.010437011999999999,-16.541985,-71.67175,102.07633,2019-09-07 13:12:02,-2.0
2076.0,-0.113220215,0.015808105,-0.014709473,-44.503820000000005,-55.59542,77.33588,2019-09-07 13:12:02,-2.0
2077.0,-0.1038208,0.010681152,-0.006652831999999999,-54.587788,-40.610687,56.71755600000001,2019-09-07 13:12:02,-2.0
2078.0,-0.10095215,0.010009766,0.0014648438,-57.30534399999999,-20.503817,35.48855,2019-09-07 13:12:02,-2.0
2079.0,-0.10321045,0.0013427734,-0.0026855469,-53.030533,11.030535,13.870229,2019-09-07 13:12:02,-2.0
2080.0,-0.13146973,0.0006103515599999999,-0.0072021483999999995,-31.160304999999997,58.40458,-11.091603,2019-09-07 13:12:02,-2.0
2081.0,-0.13537598,0.0020751953,0.009399414,-22.770992,82.67939,-34.656490000000005,2019-09-07 13:12:02,-2.0
2082.0,-0.1161499,-0.0010375977,0.039367676000000004,-30.091602,129.58778,-65.51145,2019-09-07 13:12:02,-2.0
2083.0,-0.10076904,-0.012939453,0.04888916,-38.778625,159.06107,-81.38931,2019-09-07 13:12:02,-2.0
2084.0,-0.09320068,-0.010253906,0.0043945312,-11.511451,201.37403999999998,-94.33588,2019-09-07 13:12:02,-2.0
2085.0,-0.14184570000000002,-0.019226074,-0.018554688,0.8702290000000001,242.78625,-109.32061000000002,2019-09-07 13:12:02,-2.0
2086.0,-0.1875,-0.01739502,-0.010620117,-13.717557000000001,204.0458,-121.79388999999999,2019-09-07 13:12:02,-2.0
2087.0,-0.19781494,-0.021362305,-0.0041503906,-12.297709,148.37403999999998,-118.07633,2019-09-07 13:12:02,-2.0
2088.0,-0.190979,-0.017944336,0.00036621094,15.9007635,138.09923999999998,-112.091606,2019-09-07 13:12:02,-2.0
2089.0,-0.17791748,-0.006164551,0.010253906,58.076336,104.41984599999999,-93.63359,2019-09-07 13:12:02,-2.0
2090.0,-0.15826416,-0.004638672,0.017822266,65.80153,82.36641,-71.69466,2019-09-07 13:12:02,-2.0
2091.0,-0.12915039,-0.016723633,0.023925781,65.32061,72.74809,-51.908398,2019-09-07 13:12:02,-2.0
2092.0,-0.12615967,-0.0107421875,0.021728516,65.47328,66.778625,-32.419846,2019-09-07 13:12:02,-2.0
2093.0,-0.12719727,-0.0040893555,0.015014648,64.33588,61.900764,-20.908398000000002,2019-09-07 13:12:02,-2.0
2094.0,-0.12591553,-0.005493164,0.009521484,65.67175,41.06107,-14.694656,2019-09-07 13:12:02,-2.0
2095.0,-0.12878418,0.0037231445,0.00042724610000000003,66.45038000000001,28.10687,-13.045800999999999,2019-09-07 13:12:02,-2.0
2096.0,-0.13201904,0.0115356445,0.00030517577999999995,67.71755999999999,9.21374,-14.717557000000001,2019-09-07 13:12:02,-2.0
2097.0,-0.13555908,0.018066406,0.009643555,55.992367,-6.9923663000000005,-14.412213000000001,2019-09-07 13:12:02,-2.0
2098.0,-0.13256836,0.020507812,0.0078125,45.93893,-8.076336,-10.450381,2019-09-07 13:12:02,-2.0
2099.0,-0.13568115,0.00970459,0.014404297,31.770992,-6.091603299999999,-6.3053436,2019-09-07 13:12:02,-2.0
2100.0,-0.14337158,0.014038086000000002,0.01159668,11.7786255,-8.847328,-1.351145,2019-09-07 13:12:02,-2.0
2101.0,-0.13708496,0.018981934,0.0061035156000000005,-0.2519084,-11.732824,12.106871,2019-09-07 13:12:02,-2.0
2102.0,-0.14892578,0.01977539,-0.0036010741999999997,-17.61832,0.045801528,23.267176,2019-09-07 13:12:02,-2.0
2103.0,-0.16064453,0.023132324,-0.0043945312,-41.412212,-8.923664,32.17557,2019-09-07 13:12:02,-2.0
2104.0,-0.15563965,0.019226074,0.0036010741999999997,-65.8855,-14.320610999999998,37.14504,2019-09-07 13:12:02,-2.0
2105.0,-0.11950683599999999,0.017089844,0.011291503999999999,-88.80915999999999,-32.549618,44.541985,2019-09-07 13:12:02,-2.0
2106.0,-0.13000488,0.022216797000000003,-0.0015258789000000001,-109.89313,-13.534351000000001,45.404579999999996,2019-09-07 13:12:02,-2.0
2107.0,-0.15106201,0.022705077999999997,-0.010009766,-135.18321,-35.992367,51.320609999999995,2019-09-07 13:12:02,-2.0
2108.0,-0.14526367,0.012023926,-0.018920898000000002,-148.67175,-69.64121999999999,60.76336,2019-09-07 13:12:02,-2.0
2109.0,-0.13616943,0.008483886999999999,-0.019958496000000003,-144.64885,-87.45038000000001,66.99235999999999,2019-09-07 13:12:03,-2.0
2110.0,-0.13513184,-0.0017089844000000001,-0.0211792,-136.14503,-95.503815,73.175575,2019-09-07 13:12:03,-2.0
2111.0,-0.13830566,-0.012512207,-0.013793945,-106.45038000000001,-101.145035,77.35114,2019-09-07 13:12:03,-2.0
2112.0,-0.14654541,-0.006042480500000001,-0.0126953125,-70.824425,-101.25954399999999,84.381676,2019-09-07 13:12:03,-2.0
2113.0,-0.13934326,-0.011962891000000002,-0.0015869141,-30.900763,-97.32061,86.19847,2019-09-07 13:12:03,-2.0
2114.0,-0.13690186,-0.001159668,0.0029296875,-4.366412,-88.10687,84.221375,2019-09-07 13:12:03,-2.0
2115.0,-0.12048339999999998,0.010314941,-0.0020141601999999997,18.580153,-82.67175,83.58778000000001,2019-09-07 13:12:03,-2.0
2116.0,-0.12194824,0.012329102,-0.005676269499999999,18.175573,-69.67939,73.68701999999999,2019-09-07 13:12:03,-2.0
2117.0,-0.11096191400000001,0.010986328,-0.009643555,5.7480917,-66.78626,66.80915999999999,2019-09-07 13:12:03,-2.0
2118.0,-0.09954834,0.013671875,-0.008361816,-2.3587787000000002,-56.290077000000004,54.106869999999994,2019-09-07 13:12:03,-2.0
2119.0,-0.10589599599999999,0.006225586,-0.0021972656,-14.702291,-44.89313,41.83206,2019-09-07 13:12:03,-2.0
2120.0,-0.10491943,0.0008544922000000001,0.0040893555,-23.007633,-23.259542,23.908398000000002,2019-09-07 13:12:03,-2.0
2121.0,-0.10980224599999999,-0.00030517577999999995,0.008117675999999999,-17.648854999999998,-0.259542,1.6183206,2019-09-07 13:12:03,-2.0
2122.0,-0.11773682,0.007019043000000001,0.012268066000000001,-15.358779,26.91603,-21.641222,2019-09-07 13:12:03,-2.0
2123.0,-0.11456299,-0.0018920898,0.01751709,-11.038167999999999,43.53435,-44.923664,2019-09-07 13:12:03,-2.0
2124.0,-0.1270752,0.001159668,0.0014648438,-2.5114503,77.96947,-66.75572,2019-09-07 13:12:03,-2.0
2125.0,-0.15820312,0.0036010741999999997,0.009521484,1.2671756,99.71755999999999,-93.16794,2019-09-07 13:12:03,-2.0
2126.0,-0.15368652,0.005859375,-6.1035155999999994e-05,8.748092,102.41221999999999,-105.84733,2019-09-07 13:12:03,-2.0
2127.0,-0.16351318,-0.0010375977,0.013549805,18.770992,111.39695,-118.31298000000001,2019-09-07 13:12:03,-2.0
2128.0,-0.13665771,0.006042480500000001,0.014587402,38.816795,92.9771,-109.908394,2019-09-07 13:12:03,-2.0
2129.0,-0.12402344,0.012817383,0.012939453,35.74046,94.67175,-97.099236,2019-09-07 13:12:03,-2.0
2130.0,-0.1274414,0.0079956055,0.006286621,29.76336,79.41221999999999,-77.70229,2019-09-07 13:12:03,-2.0
2131.0,-0.1451416,0.007019043000000001,-0.006591797,9.877863,65.43511,-52.893130000000006,2019-09-07 13:12:03,-2.0
2132.0,-0.14685059,-0.006225586,-0.0107421875,2.221374,29.06107,-27.557251,2019-09-07 13:12:03,-2.0
2133.0,-0.14080810000000002,-0.009338379,-0.005432129,3.9541983999999997,10.167939,-9.916031,2019-09-07 13:12:03,-2.0
2134.0,-0.12677002,-0.0020751953,-0.0045776367,26.183207,2.6183207000000004,-1.3129771000000001,2019-09-07 13:12:03,-2.0
2135.0,-0.13476562,-0.001159668,0.0052490233999999995,42.625954,-5.671755999999999,1.7633588,2019-09-07 13:12:03,-2.0
2136.0,-0.12445068,0.0020751953,0.011474608999999998,62.137405,-4.5725193,-2.793893,2019-09-07 13:12:03,-2.0
2137.0,-0.11853027,0.014953613000000001,0.023132324,65.16031,5.2442746,-12.961832000000001,2019-09-07 13:12:03,-2.0
2138.0,-0.11071777,0.020507812,0.020874023000000002,47.198475,15.19084,-26.74809,2019-09-07 13:12:03,-2.0
2139.0,-0.10998535,0.018493652,0.0234375,14.160305,32.160305,-41.267174,2019-09-07 13:12:03,-2.0
2140.0,-0.10461426,0.011047363000000001,0.016479492,-16.396946,42.725190000000005,-51.23664,2019-09-07 13:12:03,-2.0
2141.0,-0.10296631,0.018005371000000003,0.018737793,-34.770992,49.17557,-53.068703,2019-09-07 13:12:03,-2.0
2142.0,-0.11193848,0.014709473,0.003112793,-43.007633,59.137405,-55.14504,2019-09-07 13:12:03,-2.0
2143.0,-0.14337158,0.007507324,0.005737304699999999,-50.48855,57.69465600000001,-49.656490000000005,2019-09-07 13:12:03,-2.0
2144.0,-0.15832520000000003,0.009887695,0.004028320300000001,-50.587788,41.435116,-39.198475,2019-09-07 13:12:04,-2.0
2145.0,-0.14782715,-0.00024414062000000002,0.0065307617,-39.496179999999995,17.778625,-21.992367,2019-09-07 13:12:04,-2.0
2146.0,-0.13824463,-0.001953125,0.004760742,-20.793894,9.694656,-1.9083970000000001,2019-09-07 13:12:04,-2.0
2147.0,-0.1515503,0.0056152343999999995,-0.009643555,-16.503817,15.839695,15.625955,2019-09-07 13:12:04,-2.0
2148.0,-0.16131592,0.00012207031000000001,0.008239746,-20.335878,-21.290077,29.404581,2019-09-07 13:12:04,-2.0
2149.0,-0.12921143,0.003540039,0.005432129,-15.977098999999999,-29.358778000000004,41.656490000000005,2019-09-07 13:12:04,-2.0
2150.0,-0.11840819999999999,0.018371582,0.016601562,-24.923664000000002,-25.519083,46.595420000000004,2019-09-07 13:12:04,-2.0
2151.0,-0.10675049,0.018005371000000003,0.010314941,-43.351147,-38.770992,49.732826,2019-09-07 13:12:04,-2.0
2152.0,-0.12261963,0.021118164,0.003540039,-69.40458000000001,-26.267176,44.16794,2019-09-07 13:12:04,-2.0
2153.0,-0.14086914,0.021240234,-0.005493164,-97.229004,-44.458015,38.954197,2019-09-07 13:12:04,-2.0
2154.0,-0.14691162,0.0119018555,-0.008483886999999999,-106.74045600000001,-53.679390000000005,29.91603,2019-09-07 13:12:04,-2.0
2155.0,-0.14935303,0.015808105,-0.0087890625,-106.72519,-63.76336,27.206106,2019-09-07 13:12:04,-2.0
2156.0,-0.13769531,0.011169433999999999,-0.008117675999999999,-101.29771,-64.66412,23.664122,2019-09-07 13:12:04,-2.0
2157.0,-0.1453247,0.011962891000000002,-0.0099487305,-87.1145,-60.78626,27.038168,2019-09-07 13:12:04,-2.0
2158.0,-0.13952637,0.0072021483999999995,-0.00592041,-78.9542,-64.27481,33.78626,2019-09-07 13:12:04,-2.0
2159.0,-0.12939453,0.013427733999999998,-0.0072631836,-67.34351,-63.85496,41.519085,2019-09-07 13:12:04,-2.0
2160.0,-0.13055419999999998,0.014526367,-0.008605957,-62.900764,-61.64122,50.526720000000005,2019-09-07 13:12:04,-2.0
2161.0,-0.13458252,0.01586914,-0.008422852,-54.267174,-60.572517000000005,56.77099200000001,2019-09-07 13:12:04,-2.0
2162.0,-0.12164307,0.015319824,-0.011657715,-45.992367,-61.480915,59.114502,2019-09-07 13:12:04,-2.0
2163.0,-0.1171875,0.011108398,-0.011230469,-41.51145,-59.12214,61.633587,2019-09-07 13:12:04,-2.0
2164.0,-0.1161499,0.0020751953,-0.006958008000000001,-30.114503999999997,-55.46565,59.77099200000001,2019-09-07 13:12:04,-2.0
2165.0,-0.10717773400000001,0.0036010741999999997,-0.0053100586,-19.610687,-43.85496,54.35878,2019-09-07 13:12:04,-2.0
2166.0,-0.10205078,0.008728027,-0.004638672,-2.8778627,-31.57252,44.282444,2019-09-07 13:12:04,-2.0
2167.0,-0.10784912,0.013916016000000002,0.004028320300000001,-1.9541985,-10.770992,32.10687,2019-09-07 13:12:04,-2.0
2168.0,-0.11102295,0.018005371000000003,0.0064086914,-3.3893129999999996,9.633588,16.587785999999998,2019-09-07 13:12:04,-2.0
2169.0,-0.110839844,0.016357422,0.0087890625,-13.664123000000002,31.992366999999998,-0.36641222,2019-09-07 13:12:04,-2.0
2170.0,-0.12011719,0.017211914,0.014587402,-33.694656,57.16794,-18.183207,2019-09-07 13:12:04,-2.0
2171.0,-0.115112305,0.008850098,0.018859863,-55.778625,76.503815,-34.274809999999995,2019-09-07 13:12:04,-2.0
2172.0,-0.13476562,0.009216309,0.01184082,-69.69466,89.35114,-46.23664,2019-09-07 13:12:04,-2.0
2173.0,-0.13653564,0.0021972656,0.0010375977,-62.709922999999996,98.42748,-53.53435,2019-09-07 13:12:04,-2.0
2174.0,-0.15942383,-0.0036010741999999997,-0.0036010741999999997,-43.603054,113.37405,-64.73283,2019-09-07 13:12:04,-2.0
2175.0,-0.1529541,-0.018859863,0.012207031,-24.847328,92.96947,-65.87023,2019-09-07 13:12:04,-2.0
2176.0,-0.13726807,-0.01965332,0.004638672,6.7557254,95.45038000000001,-61.946564,2019-09-07 13:12:04,-2.0
2177.0,-0.14398193,-0.018371582,0.015014648,39.17557,99.15267,-59.961833999999996,2019-09-07 13:12:04,-2.0
2178.0,-0.12243652,-0.006958008000000001,0.0234375,59.48855,70.31298000000001,-50.610687,2019-09-07 13:12:04,-2.0
2179.0,-0.11352539,-0.00390625,0.014892578,67.816795,61.71755600000001,-42.83206,2019-09-07 13:12:04,-2.0
2180.0,-0.12145996,0.0031738281,0.016296387,71.91603,84.94655999999999,-41.664124,2019-09-07 13:12:04,-2.0
2181.0,-0.13964844,0.008361816,0.011047363000000001,40.89313,56.480915,-36.587788,2019-09-07 13:12:04,-2.0
2182.0,-0.15270996,0.010009766,0.013977051,16.48855,35.954197,-31.358778000000004,2019-09-07 13:12:05,-2.0
2183.0,-0.15631104,0.010559082,0.0031738281,9.351144999999999,18.526718,-27.89313,2019-09-07 13:12:05,-2.0
2184.0,-0.13916016,0.004638672,0.008605957,6.664122,1.8244275,-16.48855,2019-09-07 13:12:05,-2.0
2185.0,-0.12982178,-0.0073242188,0.012023926,10.374044999999999,-12.564885,-2.0687022,2019-09-07 13:12:05,-2.0
2186.0,-0.11773682,-0.008972168,0.014404297,24.42748,-17.053434,9.297709,2019-09-07 13:12:05,-2.0
2187.0,-0.11840819999999999,0.0034179688000000002,0.008728027,38.23664,-13.763359,18.91603,2019-09-07 13:12:05,-2.0
2188.0,-0.10626221,0.00592041,0.010864258,43.17557,-9.389313000000001,21.450382,2019-09-07 13:12:05,-2.0
2189.0,-0.11431885,0.0119018555,0.010131836,33.923664,-7.5801525,22.694656,2019-09-07 13:12:05,-2.0
2190.0,-0.113342285,0.018554688,0.008361816,11.931297,-10.328244,16.633587,2019-09-07 13:12:05,-2.0
2191.0,-0.11370849599999999,0.016723633,0.010192871,-6.1603055,-12.137404,11.641221,2019-09-07 13:12:05,-2.0
2192.0,-0.11578369,0.013000488000000001,0.011779785,-15.40458,-11.366412,7.4274807,2019-09-07 13:12:05,-2.0
2193.0,-0.11291504,0.0075683593999999995,0.0071411133,-13.946565,-8.954199000000001,8.641221,2019-09-07 13:12:05,-2.0
2194.0,-0.12005615,0.008666992,0.0068969727,-16.297710000000002,-2.3358779999999997,12.954199000000001,2019-09-07 13:12:05,-2.0
2195.0,-0.13165283,0.0045776367,0.0053710938,-16.625954,2.7251909,11.587786999999999,2019-09-07 13:12:05,-2.0
2196.0,-0.13653564,0.0036010741999999997,0.005065918,-19.038168,5.076336,14.442748000000002,2019-09-07 13:12:05,-2.0
2197.0,-0.14465332,-0.0028076171999999997,0.0048217773,-19.679389999999998,2.3206108,14.160305,2019-09-07 13:12:05,-2.0
2198.0,-0.14593506,-0.0018310547,0.009216309,-10.946565,1.3435115,11.396947,2019-09-07 13:12:05,-2.0
2199.0,-0.14007568,0.008422852,0.0018920898,-14.480916,9.274809,13.198473000000002,2019-09-07 13:12:05,-2.0
2200.0,-0.14465332,0.006958008000000001,0.005493164,-22.343512,11.923664,11.984733,2019-09-07 13:12:05,-2.0
2201.0,-0.15509033,0.0071411133,0.010375977,-28.839695000000003,14.717557000000001,9.053435,2019-09-07 13:12:05,-2.0
2202.0,-0.12939453,0.010070800999999999,0.017578125,-33.656490000000005,4.5496182,7.3893127000000005,2019-09-07 13:12:05,-2.0
2203.0,-0.105285645,0.002319336,0.014404297,-33.526720000000005,-0.16793893,7.8702292,2019-09-07 13:12:05,-2.0
2204.0,-0.09820557,0.005004883,0.010070800999999999,-35.679390000000005,-3.923664,11.610686999999999,2019-09-07 13:12:05,-2.0
2205.0,-0.10437012,-0.00024414062000000002,0.00579834,-33.389313,13.442748000000002,12.083969,2019-09-07 13:12:05,-2.0
2206.0,-0.13146973,0.0107421875,0.0045776367,-47.290077000000004,0.099236645,12.435115,2019-09-07 13:12:05,-2.0
2207.0,-0.14807129,0.005859375,0.00012207031000000001,-58.931297,-21.152672,10.198473,2019-09-07 13:12:05,-2.0
2208.0,-0.15063477,0.012084961000000002,-0.0036621094,-65.1145,-27.961832,3.961832,2019-09-07 13:12:05,-2.0
2209.0,-0.14562988,0.013122558999999999,-0.0036010741999999997,-64.381676,-37.908398,5.015267400000001,2019-09-07 13:12:05,-2.0
2210.0,-0.14013672,0.011047363000000001,-0.0051879883,-50.21374,-40.030533,11.015267,2019-09-07 13:12:05,-2.0
2211.0,-0.13513184,0.009216309,-0.0036010741999999997,-37.595420000000004,-41.770992,19.335878,2019-09-07 13:12:05,-2.0
2212.0,-0.1149292,0.005126953,-0.003540039,-21.274809,-38.931297,30.664121999999995,2019-09-07 13:12:05,-2.0
2213.0,-0.11108398400000001,0.007446289,-0.0053710938,-7.465648700000001,-34.610687,39.0,2019-09-07 13:12:05,-2.0
2214.0,-0.11236572,0.007385254,-0.00042724610000000003,-24.152672,-25.244274,35.816795,2019-09-07 13:12:05,-2.0
2215.0,-0.10858154,0.0053100586,0.0021972656,-17.969465,-21.801527,25.007633,2019-09-07 13:12:06,-2.0
2216.0,-0.109313965,0.003540039,0.0036010741999999997,-12.824428,-9.656488000000001,14.557251999999998,2019-09-07 13:12:06,-2.0
2217.0,-0.10748291,0.007507324,0.0071411133,-5.0610685,6.6106872999999995,-1.3969465,2019-09-07 13:12:06,-2.0
2218.0,-0.10998535,0.0064697266000000005,0.012878418,-0.8549618,21.557251,-14.068703,2019-09-07 13:12:06,-2.0
2219.0,-0.11199951,0.006958008000000001,0.010559082,1.3129771000000001,33.320609999999995,-24.87023,2019-09-07 13:12:06,-2.0
2220.0,-0.12438965,0.008422852,0.0079956055,-1.0076336,52.82443000000001,-42.778625,2019-09-07 13:12:06,-2.0
2221.0,-0.13262939999999998,0.0034790040000000004,0.015136719,-6.603053599999999,59.916030000000006,-52.778625,2019-09-07 13:12:06,-2.0
2222.0,-0.13067627,0.002746582,0.018737793,-10.725191,60.312977000000004,-60.572517000000005,2019-09-07 13:12:06,-2.0
2223.0,-0.13549805,-0.004211426,0.011169433999999999,-0.89312977,66.05344000000001,-58.801525,2019-09-07 13:12:06,-2.0
2224.0,-0.14642334,0.00024414062000000002,-0.0020141601999999997,13.839695,63.64122,-57.244274,2019-09-07 13:12:06,-2.0
2225.0,-0.16894531,-0.0036621094,0.0018920898,25.786259,65.19084000000001,-54.46565,2019-09-07 13:12:06,-2.0
2226.0,-0.15582275,0.0005493164,0.004333496,46.83206,30.992366999999998,-44.343509999999995,2019-09-07 13:12:06,-2.0
2227.0,-0.14398193,0.008300781,0.0087890625,65.229004,44.748093,-40.748093,2019-09-07 13:12:06,-2.0
2228.0,-0.12200928,0.005981445300000001,0.020385742,65.69466,16.557251,-29.557251,2019-09-07 13:12:06,-2.0
2229.0,-0.09490967,0.004333496,0.019470215,61.30534399999999,4.259542,-21.236639999999998,2019-09-07 13:12:06,-2.0
2230.0,-0.09014892599999999,0.006164551,0.0115356445,55.77099200000001,35.25954,-20.419847,2019-09-07 13:12:06,-2.0
2231.0,-0.12298584,0.017944336,0.010009766,33.82443,30.580153000000003,-16.442749,2019-09-07 13:12:06,-2.0
2232.0,-0.13665771,0.013977051,0.0020141601999999997,4.2290077,9.946565,-12.106871,2019-09-07 13:12:06,-2.0
2233.0,-0.14562988,0.0119018555,-0.0007934570299999999,-11.122137,-8.992367,-6.0992365,2019-09-07 13:12:06,-2.0
2234.0,-0.14660645,0.0037231445,-0.0017089844000000001,-11.748092,-24.992367,6.4885497,2019-09-07 13:12:06,-2.0
2235.0,-0.14227295,0.002380371,0.004638672,-0.83206105,-29.23664,20.992367,2019-09-07 13:12:06,-2.0
2236.0,-0.13616943,-0.0010375977,0.005126953,12.519084,-33.076336,35.78626,2019-09-07 13:12:06,-2.0
2237.0,-0.12042236,-0.00048828125,0.0068969727,18.412214000000002,-27.557251,46.10687,2019-09-07 13:12:06,-2.0
2238.0,-0.11401367,0.0034179688000000002,0.011108398,22.0,-23.290077,49.290077000000004,2019-09-07 13:12:06,-2.0
2239.0,-0.10772705,0.0005493164,0.012390136999999999,15.244275,-19.076335999999998,45.381679999999996,2019-09-07 13:12:06,-2.0
2240.0,-0.10821533,0.006591797,0.014465332,4.7557254,-10.541985,34.793890000000005,2019-09-07 13:12:06,-2.0
2241.0,-0.11035156,0.005126953,0.013122558999999999,-13.045800999999999,-15.854961,25.045801,2019-09-07 13:12:06,-2.0
2242.0,-0.10858154,0.0026245116999999997,0.011413574,-9.496183,-6.4198474999999995,10.068703,2019-09-07 13:12:06,-2.0
2243.0,-0.12066650400000001,-0.0045166016,0.015991211,-8.198473,-3.0076337000000004,2.091603,2019-09-07 13:12:06,-2.0
2244.0,-0.11462402,-0.0045776367,0.015319824,-4.5419846,1.5801526000000001,-4.183206,2019-09-07 13:12:06,-2.0
2245.0,-0.11029053,-0.003967285,0.013366699,3.7404580000000003,10.030535,-7.5801525,2019-09-07 13:12:06,-2.0
2246.0,-0.10626221,0.0010375977,0.021972656,12.236641,26.053434,-9.595419999999999,2019-09-07 13:12:06,-2.0
2247.0,-0.12170410000000002,0.0017700195,0.031311035,22.389313,34.91603,-11.328244,2019-09-07 13:12:06,-2.0
2248.0,-0.14776611,0.018005371000000003,0.04144287,30.70229,30.366413,-6.6183205,2019-09-07 13:12:06,-2.0
2249.0,-0.16088867,0.03692627,0.029663086,36.335876,2.076336,11.770992,2019-09-07 13:12:06,-2.0
2250.0,-0.168396,0.056030273,0.03668213,2.221374,-49.541985,41.53435,2019-09-07 13:12:06,-2.0
2251.0,-0.17932129,0.06866455,0.057922363,30.595419,-87.29771,92.62595,2019-09-07 13:12:07,-2.0
2252.0,-0.17230225,0.08551025400000001,0.07342529,75.89313,-111.38931000000001,138.90076000000002,2019-09-07 13:12:07,-2.0
2253.0,-0.17907715,0.14959717,0.10192871,105.08397,-104.39695,175.1145,2019-09-07 13:12:07,-2.0
2254.0,-0.19085693,0.20733643,0.09777832,45.755726,-110.183205,195.1145,2019-09-07 13:12:07,-2.0
2255.0,-0.18103027,0.17034912,0.08514404,-67.48092,-139.70228999999998,236.06107000000003,2019-09-07 13:12:07,-2.0
2256.0,-0.16595459,0.14294434,0.085876465,-48.671757,-149.0687,250.12977999999998,2019-09-07 13:12:07,-2.0
2257.0,-0.14624023,0.13757324,0.05810547,-21.763360000000002,-127.87786000000001,250.12977999999998,2019-09-07 13:12:07,-2.0
2258.0,-0.11767578,0.1362915,0.040527344,-4.8778625,-124.908394,250.12977999999998,2019-09-07 13:12:07,-2.0
2259.0,-0.11773682,0.12060547,0.029541016,13.465648999999999,-110.03053,250.12977999999998,2019-09-07 13:12:07,-2.0
2260.0,-0.076171875,0.08526611,0.019165039,40.480915,-99.65649,250.12977999999998,2019-09-07 13:12:07,-2.0
2261.0,-0.037963867000000005,0.09136963,0.005737304699999999,88.824425,-50.793890000000005,250.12977999999998,2019-09-07 13:12:07,-2.0
2262.0,-0.024719237999999998,0.104003906,0.008239746,64.34351,-31.25191,250.12977999999998,2019-09-07 13:12:07,-2.0
2263.0,-0.0033569335999999996,0.08081055,-0.006652831999999999,48.190838,-4.221374,250.12977999999998,2019-09-07 13:12:07,-2.0
2264.0,0.013793945,0.062072754,-0.005432129,63.16794,-0.46564886,250.12977999999998,2019-09-07 13:12:07,-2.0
2265.0,0.019104003999999997,0.059204099999999996,0.0029296875,79.27481,41.496179999999995,247.0458,2019-09-07 13:12:07,-2.0
2266.0,0.012512207,0.02545166,0.010009766,113.51145,62.47328,202.38931000000002,2019-09-07 13:12:07,-2.0
2267.0,0.013366699,0.019348145,-0.005065918,143.51144,43.099236,167.12213,2019-09-07 13:12:07,-2.0
2268.0,0.02532959,0.026550293,0.013183594,165.09923999999998,44.46565,132.00763,2019-09-07 13:12:07,-2.0
2269.0,0.030761719,0.040771484,0.013244628999999999,189.82443,48.15267,87.83969,2019-09-07 13:12:07,-2.0
2270.0,0.013061523,0.07635498,0.03967285,119.58778000000001,73.19847,49.572517,2019-09-07 13:12:07,-2.0
2271.0,0.03564453,0.008361816,0.057800292999999996,36.725190000000005,-44.519085,20.122137,2019-09-07 13:12:07,-2.0
2272.0,0.08465576,0.028747559,0.026306152000000003,82.69466,-98.76335999999999,9.427481,2019-09-07 13:12:07,-2.0
2273.0,0.115722656,0.04071045,0.0017700195,97.67939,-42.641220000000004,-0.52671754,2019-09-07 13:12:07,-2.0
2274.0,0.11193848,0.05242919999999999,0.017456055,104.35114,10.557252,-2.8549618999999997,2019-09-07 13:12:07,-2.0
2275.0,0.1071167,0.05645752,0.035705566,53.862595,-13.366412,-1.3358778999999998,2019-09-07 13:12:07,-2.0
2276.0,0.11999512,0.017150878999999997,0.028808594,54.71755600000001,-4.5038165999999995,-10.541985,2019-09-07 13:12:07,-2.0
2277.0,0.12097168,0.038208007999999995,0.033935547,60.51145,0.022900764,-22.641222,2019-09-07 13:12:07,-2.0
2278.0,0.10461426,0.06640625,0.032348632999999995,43.625954,16.022902,-45.229008,2019-09-07 13:12:07,-2.0
2279.0,0.09875488,0.043884277,0.018188476999999998,-15.961832000000001,-22.89313,-28.030534999999997,2019-09-07 13:12:07,-2.0
2280.0,0.10046387,0.06536865,0.048950195,-117.0,-16.10687,-32.229008,2019-09-07 13:12:07,-2.0
2281.0,0.09613037,0.024963378999999997,0.042541504,-170.9771,-24.709923,-37.74046,2019-09-07 13:12:07,-2.0
2282.0,0.06518555,0.012634277,0.04473877,-158.71756000000002,-29.099237,-63.198475,2019-09-07 13:12:07,-2.0
2283.0,0.061279297,0.028564452999999997,0.030883789,-174.0687,-42.389313,-95.96183,2019-09-07 13:12:07,-2.0
2284.0,0.058044434000000006,0.03967285,0.03277588,-214.17557000000002,-36.274809999999995,-138.31297,2019-09-07 13:12:07,-2.0
2285.0,0.04949951,0.03918457,0.03845215,-250.1374,-12.450381,-185.21375,2019-09-07 13:12:07,-2.0
2286.0,0.040771484,0.030212402000000003,0.04541015599999999,-250.1374,-0.16793893,-242.18321,2019-09-07 13:12:07,-2.0
2287.0,0.037353516,0.028503418,0.019165039,-250.1374,18.694656,-250.1374,2019-09-07 13:12:08,0.0
2288.0,0.003112793,0.021911621000000003,-0.004028320300000001,-250.1374,113.27481,-250.1374,2019-09-07 13:12:08,0.0
2289.0,-0.035888672,0.016479492,0.0005493164,-208.48856,220.48091000000002,-250.1374,2019-09-07 13:12:08,0.0
2290.0,-0.07922363,0.032165527,0.031799316,-95.12214,250.12977999999998,-250.1374,2019-09-07 13:12:08,0.0
2291.0,-0.12915039,0.11730957,0.08148193,-167.84734,250.12977999999998,-250.1374,2019-09-07 13:12:08,0.0
2292.0,-0.12683105,0.119628906,0.07501221,-250.1374,250.12977999999998,-250.1374,2019-09-07 13:12:08,0.0
2293.0,-0.10052489999999999,0.039123535,0.0012207030999999999,-250.1374,250.12977999999998,-250.1374,2019-09-07 13:12:08,0.0
2294.0,-0.15612793,-0.06384277,-0.07904053,-250.1374,250.12977999999998,-217.6565,2019-09-07 13:12:08,0.0
2295.0,-0.26586914,-0.072387695,-0.1282959,50.030533,250.12977999999998,-166.60306,2019-09-07 13:12:08,0.0
2296.0,-0.44744873,-0.041931152,-0.109313965,123.26717,250.12977999999998,-117.84733,2019-09-07 13:12:08,0.0
2297.0,-0.4932251,-0.030212402000000003,-0.028137207,250.12977999999998,250.12977999999998,-62.954197,2019-09-07 13:12:08,0.0
2298.0,-0.34783936,0.044189453,0.052734375,250.12977999999998,250.12977999999998,-108.0458,2019-09-07 13:12:08,0.0
2299.0,-0.18841553,0.10424805,0.018371582,250.12977999999998,77.94655999999999,-63.946564,2019-09-07 13:12:08,0.0
2300.0,-0.07653808599999999,0.044189453,-0.0014038085999999999,-31.57252,85.94655999999999,-26.534351,2019-09-07 13:12:08,0.0
2301.0,-0.103515625,-0.04083252,-0.027404785,-7.1984735,148.38168000000002,-8.816792999999999,2019-09-07 13:12:08,0.0
2302.0,-0.1381836,-0.03100586,0.00091552734,51.08397,138.45801,43.320609999999995,2019-09-07 13:12:08,0.0
2303.0,-0.14770508,-0.037475586,-0.042907715,79.175575,62.572517000000005,91.66412,2019-09-07 13:12:08,0.0
2304.0,-0.15667725,-0.006652831999999999,-0.027404785,170.84734,17.923664000000002,97.46565,2019-09-07 13:12:08,0.0
2305.0,-0.16143799,0.034423828,0.014526367,214.39694,-48.862595,90.59541999999999,2019-09-07 13:12:08,0.0
2306.0,-0.12768555,0.079589844,0.05517578,108.72519,-65.0458,27.442749,2019-09-07 13:12:08,0.0
2307.0,-0.13201904,0.07092285,0.05731201,14.114504,-40.770992,-2.4503817999999997,2019-09-07 13:12:08,0.0
2308.0,-0.14990234,0.04168701,0.049194336,-78.175575,-11.687023,-22.877863,2019-09-07 13:12:08,0.0
2309.0,-0.15551758,0.023071289,0.030029297000000003,-128.19847,8.862596,-24.93893,2019-09-07 13:12:08,0.0
2310.0,-0.16052246,0.010559082,0.006164551,-152.53435,13.374045,-8.053435,2019-09-07 13:12:08,0.0
2311.0,-0.15075684,-0.0010375977,-0.006958008000000001,-139.16031,-12.068703,21.656488,2019-09-07 13:12:08,0.0
2312.0,-0.1605835,-0.009155273,-0.015563965,-91.0,-30.587785999999998,46.396946,2019-09-07 13:12:08,0.0
2313.0,-0.14428711,0.005981445300000001,-0.007629394499999999,-77.221375,-70.33588,66.60305,2019-09-07 13:12:08,0.0
2314.0,-0.109436035,0.030944824,-0.0064697266000000005,-113.03053,-77.061066,65.87023,2019-09-07 13:12:08,0.0
2315.0,-0.13446045,0.020935059,-0.020996094,-148.6565,-90.37405,55.35878,2019-09-07 13:12:08,0.0
2316.0,-0.159729,0.019592285,-0.020812988,-166.89313,-122.175575,52.137405,2019-09-07 13:12:08,0.0
2317.0,-0.17218018,0.006713866999999999,-0.024963378999999997,-164.51908999999998,-144.17557,49.396946,2019-09-07 13:12:08,0.0
2318.0,-0.16815186,-0.0022583008,-0.022705077999999997,-141.0458,-158.0229,50.76336,2019-09-07 13:12:08,0.0
2319.0,-0.16064453,0.0018310547,-0.014099121000000001,-105.70228999999999,-150.9771,57.389313,2019-09-07 13:12:08,0.0
2320.0,-0.14709473,-0.00982666,-0.011047363000000001,-68.229004,-137.66412,72.0,2019-09-07 13:12:08,0.0
2321.0,-0.14129639,-0.007080078,-0.00579834,-33.709922999999996,-117.51908,84.41984599999999,2019-09-07 13:12:08,0.0
2322.0,-0.13787842,-0.0051879883,-0.009399414,5.053435299999999,-104.35878000000001,98.908394,2019-09-07 13:12:09,0.0
2323.0,-0.1293335,0.01159668,-0.0049438477,21.290077,-95.62595,108.96183,2019-09-07 13:12:09,0.0
2324.0,-0.12432861,0.01965332,-0.0015869141,11.984733,-83.76335999999999,103.63359,2019-09-07 13:12:09,0.0
2325.0,-0.11859131,0.02368164,-0.0072021483999999995,-13.19084,-77.51908,94.137405,2019-09-07 13:12:09,0.0
2326.0,-0.11230469,0.007019043000000001,-0.01574707,-37.91603,-82.03817,84.53435,2019-09-07 13:12:09,0.0
2327.0,-0.1003418,-0.008728027,-0.019226074,-37.114502,-83.03053,71.25954399999999,2019-09-07 13:12:09,0.0
2328.0,-0.08905029,-0.014831543,-0.013427733999999998,-13.870229,-48.954197,50.870228000000004,2019-09-07 13:12:09,0.0
2329.0,-0.10656738,-0.008422852,0.016662598,3.9389312000000007,-7.8244276,24.450382,2019-09-07 13:12:09,0.0
2330.0,-0.12841797,-0.00012207031000000001,0.020019531,6.236641400000001,8.465649,-2.3282442000000003,2019-09-07 13:12:09,0.0
2331.0,-0.11383057,0.0068359375,0.019104003999999997,14.358779,46.83206,-32.305344,2019-09-07 13:12:09,0.0
2332.0,-0.11798096,-0.0007934570299999999,0.0138549805,21.503817,79.63359,-61.061069999999994,2019-09-07 13:12:09,0.0
2333.0,-0.12866211,-0.002319336,0.0014648438,34.335876,109.39695,-84.94655999999999,2019-09-07 13:12:09,0.0
2334.0,-0.14117432,-0.007629394499999999,0.008911133,39.78626,121.34351000000001,-103.458015,2019-09-07 13:12:09,0.0
2335.0,-0.11883545,-0.0107421875,-0.0010375977,53.061069999999994,126.33588,-111.28244,2019-09-07 13:12:09,0.0
2336.0,-0.14178467,-0.0048828125,0.0021972656,76.9542,151.47328000000002,-123.23664,2019-09-07 13:12:09,0.0
2337.0,-0.15832520000000003,0.005126953,0.006713866999999999,82.32825,152.21375,-131.33588,2019-09-07 13:12:09,0.0
2338.0,-0.17456055,0.01550293,0.0064697266000000005,78.099236,150.91603,-132.8855,2019-09-07 13:12:09,0.0
2339.0,-0.17950439999999998,0.015136719,0.009155273,69.47328,143.28243999999998,-124.66412,2019-09-07 13:12:09,0.0
2340.0,-0.15942383,0.016357422,0.010131836,57.28244399999999,122.25191000000001,-114.29008,2019-09-07 13:12:09,0.0
2341.0,-0.13476562,0.010803223,0.0099487305,43.08397,104.854965,-96.25191,2019-09-07 13:12:09,0.0
2342.0,-0.12915039,0.001953125,0.008239746,43.25954,101.62595,-76.862595,2019-09-07 13:12:09,0.0
2343.0,-0.12817383,-0.0012207030999999999,0.008056641,50.15267,86.32825,-57.893130000000006,2019-09-07 13:12:09,0.0
2344.0,-0.12725830000000002,0.0037231445,0.011291503999999999,59.15266999999999,76.25954399999999,-48.603054,2019-09-07 13:12:09,0.0
2345.0,-0.13311768,0.008728027,0.01159668,65.73283,59.49618,-39.618320000000004,2019-09-07 13:12:09,0.0
2346.0,-0.13677979,0.015625,0.013671875,66.0,48.053436,-34.74046,2019-09-07 13:12:09,0.0
2347.0,-0.13421631,0.010620117,0.01727295,50.770992,35.381679999999996,-35.473279999999995,2019-09-07 13:12:09,0.0
2348.0,-0.13250732,0.022521972999999997,0.013671875,44.007633,30.351145000000002,-30.25191,2019-09-07 13:12:09,0.0
2349.0,-0.13647461,0.024780273,0.012268066000000001,31.641221999999996,34.717556,-25.213741,2019-09-07 13:12:09,0.0
2350.0,-0.16052246,0.020080566,0.00970459,11.335877,28.854961,-12.519084,2019-09-07 13:12:09,0.0
2351.0,-0.15393066,0.0134887695,0.007690429699999999,-1.0839695,11.793892999999999,2.557252,2019-09-07 13:12:09,0.0
2352.0,-0.15991211,0.018249512,0.0022583008,-4.6946564,13.832060999999998,16.328245000000003,2019-09-07 13:12:09,0.0
2353.0,-0.15039062,0.016906738,0.0065307617,-18.564885999999998,-10.450381,37.84733,2019-09-07 13:12:09,0.0
2354.0,-0.16217041,0.013916016000000002,0.0087890625,-27.396946000000003,1.9236640999999999,45.160305,2019-09-07 13:12:09,0.0
2355.0,-0.15502929999999998,0.010192871,0.0211792,-53.114502,-31.687022999999996,51.48855,2019-09-07 13:12:09,0.0
2356.0,-0.12390137,0.018920898000000002,0.013122558999999999,-71.59541999999999,-37.702290000000005,55.801525,2019-09-07 13:12:09,0.0
2357.0,-0.14105225,0.025939941,0.007629394499999999,-107.0687,-33.770992,50.908398,2019-09-07 13:12:10,0.0
2358.0,-0.15789795,0.02545166,-0.00042724610000000003,-141.38168000000002,-71.26717,44.770992,2019-09-07 13:12:10,0.0
2359.0,-0.14520264,0.01763916,-0.014160156,-168.81679,-94.57252,44.129771999999996,2019-09-07 13:12:10,0.0
2360.0,-0.14257812,0.019348145,-0.026000977,-178.38931000000002,-111.51908,44.870228000000004,2019-09-07 13:12:10,0.0
2361.0,-0.13500977,0.0025634766,-0.023803711,-182.96184,-136.27481,48.656490000000005,2019-09-07 13:12:10,0.0
2362.0,-0.13543701,-0.0007934570299999999,-0.01763916,-147.35878,-135.30534,54.53435,2019-09-07 13:12:10,0.0
2363.0,-0.13775635,-0.008117675999999999,-0.012939453,-112.15267,-134.61831999999998,64.51145,2019-09-07 13:12:10,0.0
2364.0,-0.13757324,-0.008117675999999999,-0.015075683999999999,-68.62595,-133.15266,76.32825,2019-09-07 13:12:10,0.0
2365.0,-0.13067627,-0.00036621094,-0.003967285,-20.229008,-120.42748,82.70992,2019-09-07 13:12:10,0.0
2366.0,-0.12780762,0.0065307617,-0.004333496,10.450381,-105.96183,82.57252,2019-09-07 13:12:10,0.0
2367.0,-0.12670898,0.016967773000000002,-0.0061035156000000005,15.488548999999999,-97.00764000000001,79.29008,2019-09-07 13:12:10,0.0
2368.0,-0.12896729,0.020812988,-0.0087890625,10.557252,-79.72519,69.03053,2019-09-07 13:12:10,0.0
2369.0,-0.11895752,0.014953613000000001,-0.016906738,-11.954199000000001,-71.83206,58.083969999999994,2019-09-07 13:12:10,0.0
2370.0,-0.113464355,-0.018981934,-0.031311035,9.832061,-58.419846,44.427483,2019-09-07 13:12:10,0.0
2371.0,-0.11761474599999999,-0.020751953,-0.026184082,54.0,-28.23664,31.351145000000002,2019-09-07 13:12:10,0.0
2372.0,-0.1383667,0.0068969727,-0.012268066000000001,71.41221999999999,-15.183207000000001,8.893129,2019-09-07 13:12:10,0.0
2373.0,-0.1282959,0.022949219,0.0018920898,64.48855,12.671756,-19.923664000000002,2019-09-07 13:12:10,0.0
2374.0,-0.13165283,0.030212402000000003,0.0032348633000000003,52.923664,50.10687,-50.809162,2019-09-07 13:12:10,0.0
2375.0,-0.12597656,0.030517577999999997,0.016296387,14.19084,68.34351,-75.16794,2019-09-07 13:12:10,0.0
2376.0,-0.1239624,0.013000488000000001,0.008239746,-37.435116,107.71756,-95.51145,2019-09-07 13:12:10,0.0
2377.0,-0.13757324,0.0029907227,0.012939453,-69.137405,124.51908,-104.79389,2019-09-07 13:12:10,0.0
2378.0,-0.12628174,-0.008300781,0.013977051,-83.824425,132.19083999999998,-99.91603,2019-09-07 13:12:10,0.0
2379.0,-0.14263916,-0.001159668,0.0064086914,-56.732826,131.41222,-92.75572,2019-09-07 13:12:10,0.0
2380.0,-0.14349365,-0.015197753999999999,0.00042724610000000003,0.114503816,119.70992,-78.21374,2019-09-07 13:12:10,0.0
2381.0,-0.13067627,-0.012573242,0.0053100586,52.564884,99.10687,-63.62595400000001,2019-09-07 13:12:10,0.0
2382.0,-0.119628906,-0.016662598,0.0006713867,86.68701999999999,85.41984599999999,-54.061069999999994,2019-09-07 13:12:10,0.0
2383.0,-0.119628906,-0.010192871,0.0028686523,116.76336,83.03053,-47.038166,2019-09-07 13:12:10,0.0
2384.0,-0.12048339999999998,0.0037841796999999997,0.0107421875,120.07633,74.03053,-49.08397,2019-09-07 13:12:10,0.0
2385.0,-0.12756348,0.018005371000000003,0.011108398,96.67175,67.28244000000001,-52.687022999999996,2019-09-07 13:12:10,0.0
2386.0,-0.13012695,0.023742676,0.016601562,68.78626,69.94655999999999,-65.96947,2019-09-07 13:12:10,0.0
2387.0,-0.13757324,0.024780273,0.014526367,35.541985,68.87786,-74.091606,2019-09-07 13:12:10,0.0
2388.0,-0.13415527,0.020263672,0.01965332,8.770992,75.08397,-75.40458000000001,2019-09-07 13:12:10,0.0
2389.0,-0.13500977,0.013183594,0.014587402,0.08396947,73.59541999999999,-68.65649,2019-09-07 13:12:10,0.0
2390.0,-0.14880371,0.011413574,0.009765625,-0.15267175,77.30534,-63.290077000000004,2019-09-07 13:12:10,0.0
2391.0,-0.16241455,0.013549805,0.012512207,0.65648854,66.01527,-51.900764,2019-09-07 13:12:10,0.0
2392.0,-0.168396,0.020629883,0.009094238000000001,-5.5038165999999995,56.702290000000005,-36.725190000000005,2019-09-07 13:12:10,0.0
2393.0,-0.17919922,0.027832031,0.008117675999999999,-13.526717000000001,37.580154,-21.358778,2019-09-07 13:12:11,0.0
2394.0,-0.18164062,0.024475097999999997,0.013366699,-33.78626,22.099237,-4.40458,2019-09-07 13:12:11,0.0
2395.0,-0.16760254,0.011962891000000002,0.018066406,-50.931297,-23.08397,18.122137,2019-09-07 13:12:11,0.0
2396.0,-0.12878418,0.0079956055,0.010498047,-60.938930000000006,-43.23664,36.045803,2019-09-07 13:12:11,0.0
2397.0,-0.1437378,0.017944336,6.1035155999999994e-05,-66.41984599999999,-45.709922999999996,45.419846,2019-09-07 13:12:11,0.0
2398.0,-0.15423584,0.017700195,-0.004211426,-80.458015,-92.35114,57.78626,2019-09-07 13:12:11,0.0
2399.0,-0.13800049,0.016418457,-0.011413574,-97.12214,-131.96184,72.40458000000001,2019-09-07 13:12:11,0.0
2400.0,-0.13232422,0.015991211,-0.01550293,-104.41221999999999,-141.14503,74.19084000000001,2019-09-07 13:12:11,0.0
2401.0,-0.1350708,0.002380371,-0.013122558999999999,-115.29008,-159.46565,82.41984599999999,2019-09-07 13:12:11,0.0
2402.0,-0.13854979999999997,0.004760742,-0.009765625,-96.9313,-153.74046,89.38931,2019-09-07 13:12:11,0.0
2403.0,-0.13909912,-0.006042480500000001,-0.006652831999999999,-75.58778000000001,-147.21375,98.64121999999999,2019-09-07 13:12:11,0.0
2404.0,-0.13012695,-0.002746582,-0.0043945312,-51.603054,-133.70993,102.60305,2019-09-07 13:12:11,0.0
2405.0,-0.13635254,0.009277344,-0.00390625,-33.007633,-118.38931000000001,105.80916,2019-09-07 13:12:11,0.0
2406.0,-0.13659668,0.022094727,-0.00579834,-29.954199,-101.94655999999999,98.12977,2019-09-07 13:12:11,0.0
2407.0,-0.13531494,0.0072631836,-0.023254395,-37.190838,-93.51145,86.57252,2019-09-07 13:12:11,0.0
2408.0,-0.119140625,-0.017028809,-0.03503418,-21.435114000000002,-92.824425,71.54961999999999,2019-09-07 13:12:11,0.0
2409.0,-0.10424805,-0.016479492,-0.034423828,-22.305344,-83.87786,53.038166000000004,2019-09-07 13:12:11,0.0
2410.0,-0.10876465,-0.012634277,-0.025878906,13.793892999999999,-33.717556,21.847328,2019-09-07 13:12:11,0.0
2411.0,-0.12921143,0.009338379,-0.014831543,39.76336,-29.526718,-2.4732822999999997,2019-09-07 13:12:11,0.0
2412.0,-0.11077881,0.021606445,-0.0021362305,43.908398,4.2824425999999995,-27.0,2019-09-07 13:12:11,0.0
2413.0,-0.13800049,0.016540527,-0.006591797,57.946564,58.862595,-57.18320500000001,2019-09-07 13:12:11,0.0
2414.0,-0.13531494,0.01776123,0.016296387,42.51145,90.58015400000001,-78.47328,2019-09-07 13:12:11,0.0
2415.0,-0.10839844,0.011169433999999999,0.008300781,7.0152674,118.83206000000001,-89.32061,2019-09-07 13:12:11,0.0
2416.0,-0.16174316,-0.0032348633000000003,0.012573242,-10.618319999999999,162.57253,-108.15267,2019-09-07 13:12:11,0.0
2417.0,-0.14953613,0.0010375977,0.010437011999999999,-30.641221999999996,163.96947,-104.29771,2019-09-07 13:12:11,0.0
2418.0,-0.14910889,0.008972168,0.0037841796999999997,-36.549618,171.1145,-105.73283,2019-09-07 13:12:11,0.0
2419.0,-0.14691162,-0.009033203,-0.00390625,3.3740457999999998,140.43511999999998,-90.19847,2019-09-07 13:12:11,0.0
2420.0,-0.12841797,-0.013244628999999999,-0.0036010741999999997,50.46565,105.908394,-69.48855,2019-09-07 13:12:11,0.0
2421.0,-0.12158203,-0.012573242,-0.009460449000000001,69.15267,78.20611,-53.450382,2019-09-07 13:12:11,0.0
2422.0,-0.117370605,-0.016296387,-0.006164551,100.54961999999999,76.70992,-40.931297,2019-09-07 13:12:11,0.0
2423.0,-0.11370849599999999,0.0017700195,-0.0017089844000000001,123.48092,71.900764,-36.84733,2019-09-07 13:12:11,0.0
2424.0,-0.13006592,0.014221191000000001,-0.0009765625,114.83968999999999,57.351147,-32.595420000000004,2019-09-07 13:12:11,0.0
2425.0,-0.14202881,0.027526855,0.003540039,88.70992,48.641220000000004,-43.541985,2019-09-07 13:12:11,0.0
2426.0,-0.14251709,0.03137207,0.017150878999999997,54.931297,38.725190000000005,-54.190838,2019-09-07 13:12:11,0.0
2427.0,-0.12341308599999999,0.030395507999999998,0.02508545,25.236639999999998,42.839695,-61.85496,2019-09-07 13:12:11,0.0
2428.0,-0.12194824,0.024658202999999997,0.01977539,4.8396945,61.656490000000005,-61.755726,2019-09-07 13:12:11,0.0
2429.0,-0.13415527,0.020812988,0.014465332,-23.274809,74.91603,-58.77099200000001,2019-09-07 13:12:12,0.0
2430.0,-0.14239502,0.013977051,0.011230469,-39.603054,69.30534,-52.358779999999996,2019-09-07 13:12:12,0.0
2431.0,-0.14996338,0.016235351999999998,0.009399414,-36.221375,71.51145,-45.221375,2019-09-07 13:12:12,0.0
2432.0,-0.17987060000000002,0.027954102,0.0020141601999999997,-49.267174,72.938934,-29.25191,2019-09-07 13:12:12,0.0
2433.0,-0.1828003,0.008850098,0.024780273,-66.63359,13.259541500000001,-18.48855,2019-09-07 13:12:12,0.0
2434.0,-0.15539551,0.013305663999999998,0.007873535,-60.603054,-1.5954198999999998,1.961832,2019-09-07 13:12:12,0.0
2435.0,-0.17285156,0.0126953125,0.0045776367,-60.267174,-33.312977000000004,14.732823999999999,2019-09-07 13:12:12,0.0
2436.0,-0.16418457,0.010986328,-0.015258788999999998,-67.40458000000001,-81.07633,35.389313,2019-09-07 13:12:12,0.0
2437.0,-0.16265869,0.010375977,-0.022460938,-70.36641,-122.183205,54.244274,2019-09-07 13:12:12,0.0
2438.0,-0.13262939999999998,0.01361084,-0.024414062,-95.54961999999999,-161.67175,69.23664000000001,2019-09-07 13:12:12,0.0
2439.0,-0.12854004,0.007690429699999999,-0.02355957,-109.64886000000001,-174.58778,79.67175,2019-09-07 13:12:12,0.0
2440.0,-0.14080810000000002,0.007446289,-0.020507812,-128.35878,-187.06107,86.1145,2019-09-07 13:12:12,0.0
2441.0,-0.12884521,-0.015686035,-0.0072631836,-132.00763,-207.15266,97.0458,2019-09-07 13:12:12,0.0
2442.0,-0.13946533,-0.01586914,0.0,-40.0,-164.68703,96.31298000000001,2019-09-07 13:12:12,0.0
2443.0,-0.13793945,0.010070800999999999,0.0056152343999999995,-1.2519083999999998,-156.22137,114.96947,2019-09-07 13:12:12,0.0
2444.0,-0.13745117,0.006164551,0.0,3.351145,-125.98473,109.00764,2019-09-07 13:12:12,0.0
2445.0,-0.13739014,0.016662598,-0.0075683593999999995,-0.519084,-106.29008,96.89313,2019-09-07 13:12:12,0.0
2446.0,-0.12152099599999999,-0.005432129,-0.029174805,-4.0839696000000005,-99.458015,78.57252,2019-09-07 13:12:12,0.0
2447.0,-0.10430908,-0.018066406,-0.03375244,24.664122,-90.38931,64.0687,2019-09-07 13:12:12,0.0
2448.0,-0.11352539,-0.009765625,-0.040771484,54.48855,-62.15266999999999,42.137405,2019-09-07 13:12:12,0.0
2449.0,-0.12512207,0.0032348633000000003,-0.014404297,76.51145,-53.22900799999999,19.992367,2019-09-07 13:12:12,0.0
2450.0,-0.1149292,0.01159668,-0.011474608999999998,86.98473,-25.641222,-8.641221,2019-09-07 13:12:12,0.0
2451.0,-0.16595459,0.02532959,-0.012390136999999999,92.71755999999999,26.503816999999998,-43.137405,2019-09-07 13:12:12,0.0
2452.0,-0.14031982,0.032409667999999996,0.01751709,43.137405,43.25954,-71.12977,2019-09-07 13:12:12,0.0
2453.0,-0.1515503,0.027770996000000003,0.03363037,-16.496183,109.20611000000001,-107.31298000000001,2019-09-07 13:12:12,0.0
2454.0,-0.11462402,0.020141601999999998,0.033203125,-59.587788,133.78625,-115.85496499999999,2019-09-07 13:12:12,0.0
2455.0,-0.11663818,0.006225586,0.0017089844000000001,-82.36641,153.32825,-104.67175,2019-09-07 13:12:12,0.0
2456.0,-0.12738037,-0.013000488000000001,-0.016723633,-70.0687,160.43511999999998,-92.19084000000001,2019-09-07 13:12:12,0.0
2457.0,-0.13378906,-0.014587402,-0.018981934,-43.519085,135.2061,-77.29771,2019-09-07 13:12:12,0.0
2458.0,-0.13311768,-0.018676758,-0.012878418,-14.320610999999998,120.0458,-71.46565,2019-09-07 13:12:12,0.0
2459.0,-0.12921143,-0.02319336,-0.0079956055,45.793890000000005,109.96947,-70.37405,2019-09-07 13:12:12,0.0
2460.0,-0.13653564,-0.0087890625,-0.0015258789000000001,104.70992,101.908394,-71.59541999999999,2019-09-07 13:12:12,0.0
2461.0,-0.13128662,0.009338379,0.00091552734,125.221375,92.36641,-77.59541999999999,2019-09-07 13:12:12,0.0
2462.0,-0.14099121,0.023803711,0.007507324,125.824425,94.25954399999999,-88.183205,2019-09-07 13:12:12,0.0
2463.0,-0.15252686,0.030822753999999997,0.017150878999999997,86.29008,97.94655999999999,-99.87023,2019-09-07 13:12:13,0.0
2464.0,-0.15179443,0.032714844,0.030822753999999997,33.801525,102.0,-107.20611000000001,2019-09-07 13:12:13,0.0
2465.0,-0.137146,0.020935059,0.030090332,-3.5267177000000003,104.816795,-104.99236,2019-09-07 13:12:13,0.0
2466.0,-0.11804199,0.02545166,0.018798828,-24.641222,109.183205,-91.34351,2019-09-07 13:12:13,0.0
2467.0,-0.14849854,0.014587402,0.014404297,-40.9771,115.07633,-77.824425,2019-09-07 13:12:13,0.0
2468.0,-0.16320801,0.005004883,0.00036621094,-41.137405,82.98473,-54.038166000000004,2019-09-07 13:12:13,0.0
2469.0,-0.17089844,0.0068359375,-0.0045776367,-31.053434000000003,60.045803,-28.335878000000005,2019-09-07 13:12:13,0.0
2470.0,-0.20452881,0.0025024414000000004,0.00390625,-29.160304999999997,46.366413,-8.015267,2019-09-07 13:12:13,0.0
2471.0,-0.16827393,0.0028686523,0.011108398,-17.89313,-64.48855,25.06107,2019-09-07 13:12:13,0.0
2472.0,-0.14593506,0.0010375977,0.00036621094,-4.8778625,-38.358779999999996,44.198475,2019-09-07 13:12:13,0.0
2473.0,-0.15441895,0.010620117,0.0017700195,-12.580152499999999,-94.71755999999999,69.58778000000001,2019-09-07 13:12:13,0.0
2474.0,-0.15020752,0.0045166016,-0.013427733999999998,-20.984734,-110.30533999999999,85.938934,2019-09-07 13:12:13,0.0
2475.0,-0.16235352,0.013061523,-0.018981934,-43.931297,-150.00763,101.45038000000001,2019-09-07 13:12:13,0.0
2476.0,-0.15039062,0.01586914,-0.024169922000000003,-68.32061,-188.62596000000002,107.48092,2019-09-07 13:12:13,0.0
2477.0,-0.13665771,0.0041503906,-0.020385742,-88.25191,-199.33588,114.50381499999999,2019-09-07 13:12:13,0.0
2478.0,-0.13684082,0.008361816,-0.012451172,-92.137405,-195.85497,117.08397,2019-09-07 13:12:13,0.0
2479.0,-0.13183594,-0.003112793,-0.0014038085999999999,-81.62595,-186.26718,119.36641000000002,2019-09-07 13:12:13,0.0
2480.0,-0.13000488,-0.002746582,0.0065307617,-50.793890000000005,-155.15266,117.65648999999999,2019-09-07 13:12:13,0.0
2481.0,-0.12634277,0.0071411133,0.0061035156000000005,-30.038168,-125.25954399999999,111.51145,2019-09-07 13:12:13,0.0
2482.0,-0.121276855,0.011108398,0.0049438477,-17.145039,-96.70229,101.42748,2019-09-07 13:12:13,0.0
2483.0,-0.12280273400000001,0.017089844,-0.0048217773,-19.755726,-77.145035,88.48855,2019-09-07 13:12:13,0.0
2484.0,-0.119628906,0.014221191000000001,-0.0072021483999999995,-32.274809999999995,-66.618324,71.32825,2019-09-07 13:12:13,0.0
2485.0,-0.11840819999999999,0.012512207,-0.0146484375,-38.114502,-56.51145,50.946564,2019-09-07 13:12:13,0.0
2486.0,-0.11669922,-0.00042724610000000003,-0.016845703,-33.23664,-44.648853,33.78626,2019-09-07 13:12:13,0.0
2487.0,-0.10321045,0.00048828125,-0.007446289,11.022901,-22.832062,5.7938933,2019-09-07 13:12:13,0.0
2488.0,-0.13201904,-6.1035155999999994e-05,-0.008605957,36.10687,20.328245000000003,-16.786259,2019-09-07 13:12:13,0.0
2489.0,-0.14233398,0.013793945,-0.0008544922000000001,52.870228000000004,36.839695,-42.78626,2019-09-07 13:12:13,0.0
2490.0,-0.1484375,0.011779785,0.01751709,41.137405,87.15267,-75.07633,2019-09-07 13:12:13,0.0
2491.0,-0.13659668,0.011474608999999998,0.036987305,28.816793,120.16793999999999,-97.68701999999999,2019-09-07 13:12:13,0.0
2492.0,-0.11755371,0.010925293,0.026123047000000003,16.839695000000003,146.96947,-111.824425,2019-09-07 13:12:13,0.0
2493.0,-0.14093018,-0.0007324219,-0.0036010741999999997,20.709923,160.23665,-112.229004,2019-09-07 13:12:13,0.0
2494.0,-0.14849854,-0.013183594,-0.009887695,27.969465000000003,143.06107,-102.66412,2019-09-07 13:12:13,0.0
2495.0,-0.13256836,-0.010131836,-0.008117675999999999,32.793890000000005,120.20611000000001,-91.03817,2019-09-07 13:12:13,0.0
2496.0,-0.12597656,-0.014526367,-0.00036621094,48.015266,112.43511000000001,-83.1145,2019-09-07 13:12:13,0.0
2497.0,-0.12506104,-0.009399414,0.0024414061999999998,86.84733,113.58015400000001,-82.71755999999999,2019-09-07 13:12:13,0.0
2498.0,-0.13989258,0.009216309,-0.0017700195,103.80153,98.63359,-84.73283,2019-09-07 13:12:13,0.0
2499.0,-0.13201904,0.015930176,0.0048217773,104.70229,94.01527,-94.32825,2019-09-07 13:12:14,0.0
2500.0,-0.14807129,0.027770996000000003,0.008728027,92.27481,102.55725,-106.938934,2019-09-07 13:12:14,0.0
2501.0,-0.15905762,0.028808594,0.023010253999999997,47.633587,102.89313,-116.41984599999999,2019-09-07 13:12:14,0.0
2502.0,-0.14086914,0.027282715,0.024169922000000003,10.068703,102.53435,-113.87023,2019-09-07 13:12:14,0.0
2503.0,-0.13427734,0.027160645,0.018005371000000003,-11.847328,107.59541999999999,-105.54198500000001,2019-09-07 13:12:14,0.0
2504.0,-0.14361572,0.019104003999999997,0.010314941,-31.038168,113.9313,-89.69466,2019-09-07 13:12:14,0.0
2505.0,-0.15802002,0.016052246000000003,0.010986328,-37.343509999999995,93.51908,-70.47328,2019-09-07 13:12:14,0.0
2506.0,-0.16339111,0.009460449000000001,0.0029907227,-31.992366999999998,75.79389,-44.519085,2019-09-07 13:12:14,0.0
2507.0,-0.18249512,0.012451172,-0.0075683593999999995,-29.32061,65.145035,-19.763360000000002,2019-09-07 13:12:14,0.0
2508.0,-0.19506836,0.005676269499999999,0.014526367,-30.312977000000004,-23.305344,5.7328243,2019-09-07 13:12:14,0.0
2509.0,-0.13580322,0.015563965,-0.0025024414000000004,-21.068703,-47.137405,33.74046,2019-09-07 13:12:14,0.0
2510.0,-0.15759277,0.015380858999999998,0.005493164,-21.305344,-50.396946,48.282444,2019-09-07 13:12:14,0.0
2511.0,-0.15161133,0.009521484,-0.0072631836,-40.419846,-110.0,71.52672,2019-09-07 13:12:14,0.0
2512.0,-0.15423584,0.013916016000000002,-0.012878418,-55.938930000000006,-120.64886000000001,83.51145,2019-09-07 13:12:14,0.0
2513.0,-0.1538086,0.0154418945,-0.022644043,-78.73283,-164.07634,96.9771,2019-09-07 13:12:14,0.0
2514.0,-0.14233398,0.020080566,-0.020996094,-96.24428,-187.67938,103.92367,2019-09-07 13:12:14,0.0
2515.0,-0.14611816,0.008666992,-0.013977051,-104.03817,-192.23665,109.78626000000001,2019-09-07 13:12:14,0.0
2516.0,-0.14794922,-0.0029907227,-0.009094238000000001,-102.55725,-188.41222,115.53435,2019-09-07 13:12:14,0.0
2517.0,-0.14245605,-0.0065307617,-0.0028686523,-80.83206,-173.78625,117.45801499999999,2019-09-07 13:12:14,0.0
2518.0,-0.13916016,0.0017700195,0.0063476562,-52.71755600000001,-141.75572,119.0687,2019-09-07 13:12:14,0.0
2519.0,-0.14184570000000002,0.0041503906,0.0052490233999999995,-39.702290000000005,-121.34351000000001,115.824425,2019-09-07 13:12:14,0.0
2520.0,-0.13879395,0.009216309,-0.0024414061999999998,-33.114502,-98.35114,106.0229,2019-09-07 13:12:14,0.0
2521.0,-0.12805176,-0.0030517578000000003,-0.015563965,-44.099236,-92.0,91.99235999999999,2019-09-07 13:12:14,0.0
2522.0,-0.12341308599999999,-0.018859863,-0.030578612999999998,-20.007633,-95.24428,77.9542,2019-09-07 13:12:14,0.0
2523.0,-0.10266113,-0.03387451,-0.03314209,-3.5038167999999996,-97.0,61.587788,2019-09-07 13:12:14,0.0
2524.0,-0.10455322,-0.020202637,-0.03100586,61.23664,-49.53435,36.396946,2019-09-07 13:12:14,0.0
2525.0,-0.11590576,0.006713866999999999,-0.00390625,79.496185,-55.49618,18.099237,2019-09-07 13:12:14,0.0
2526.0,-0.12347412,0.010253906,-0.015197753999999999,100.55725,-7.8549619999999996,-18.10687,2019-09-07 13:12:14,0.0
2527.0,-0.15539551,0.024780273,-0.0014038085999999999,96.8855,24.503817,-50.030533,2019-09-07 13:12:14,0.0
2528.0,-0.1572876,0.033996582000000004,0.020446777,38.625954,73.63359,-90.48855,2019-09-07 13:12:14,0.0
2529.0,-0.14318848,0.022949219,0.04260254,-20.89313,118.28244,-122.87023,2019-09-07 13:12:14,0.0
2530.0,-0.11425781,0.010681152,0.029541016,-60.435116,143.19847,-132.48091000000002,2019-09-07 13:12:14,0.0
2531.0,-0.10888672,-0.006958008000000001,-0.0034790040000000004,-84.0229,144.54199,-121.57252,2019-09-07 13:12:14,0.0
2532.0,-0.12878418,-0.009765625,-0.021606445,-43.030533,147.0,-101.51145,2019-09-07 13:12:14,0.0
2533.0,-0.1484375,-0.023620605,-0.0053710938,5.6488547,113.66412,-84.65649,2019-09-07 13:12:14,0.0
2534.0,-0.14025879,-0.01965332,0.0036621094,65.89313,99.24428,-79.21374,2019-09-07 13:12:14,0.0
2535.0,-0.13488770000000003,-0.005676269499999999,0.007385254,128.27481,93.74045600000001,-78.84733,2019-09-07 13:12:15,0.0
2536.0,-0.13568115,0.009887695,0.003112793,162.41985,87.778625,-83.29771,2019-09-07 13:12:15,0.0
2537.0,-0.13995361,0.017822266,0.00579834,156.43511999999998,95.37405,-94.29008,2019-09-07 13:12:15,0.0
2538.0,-0.1494751,0.03338623,0.008300781,123.75572,97.16794,-104.74045600000001,2019-09-07 13:12:15,0.0
2539.0,-0.15875244,0.04248047,0.023254395,53.572517000000005,105.03053,-113.71756,2019-09-07 13:12:15,0.0
2540.0,-0.1473999,0.030395507999999998,0.03387451,-6.6106872999999995,111.14503500000001,-115.28244,2019-09-07 13:12:15,0.0
2541.0,-0.12377930000000001,0.025756836,0.027038574,-41.25954,113.0,-108.42748,2019-09-07 13:12:15,0.0
2542.0,-0.13598633,0.029052734,0.0138549805,-56.648853,120.85496499999999,-91.175575,2019-09-07 13:12:15,0.0
2543.0,-0.15490723,0.019348145,0.008605957,-50.801525,105.83968999999999,-73.58778000000001,2019-09-07 13:12:15,0.0
2544.0,-0.16101074,0.009765625,-0.0053710938,-33.770992,72.74809,-45.129771999999996,2019-09-07 13:12:15,0.0
2545.0,-0.19818115,0.01550293,-0.010925293,-12.312977,64.42748,-18.89313,2019-09-07 13:12:15,0.0
2546.0,-0.20135498,0.0034790040000000004,0.0028076171999999997,-12.7404585,-17.786259,7.038167999999999,2019-09-07 13:12:15,0.0
2547.0,-0.14764404,0.007751465,0.00091552734,-12.801527,-47.114502,35.51145,2019-09-07 13:12:15,0.0
2548.0,-0.14117432,0.01586914,0.008178711,-21.229008,-51.458015,53.458015,2019-09-07 13:12:15,0.0
2549.0,-0.13903809,0.015930176,-0.0051879883,-39.93893,-82.73283,69.28244000000001,2019-09-07 13:12:15,0.0
2550.0,-0.14978027,0.01953125,-0.0024414061999999998,-56.564884,-101.099236,81.00764000000001,2019-09-07 13:12:15,0.0
2551.0,-0.14569092,0.016784668,-0.015563965,-83.56489,-139.24428,90.908394,2019-09-07 13:12:15,0.0
2552.0,-0.13531494,-0.006958008000000001,0.0014648438,-121.79388999999999,-146.21375,104.67175,2019-09-07 13:12:15,0.0
2553.0,-0.15490723,-0.016845703,-0.004211426,-97.34351,-158.84734,105.76336,2019-09-07 13:12:15,0.0
2554.0,-0.15039062,-0.02758789,-0.012512207,-22.160304999999997,-158.9084,114.24428,2019-09-07 13:12:15,0.0
2555.0,-0.1461792,-0.010131836,-0.007690429699999999,42.93893,-154.70228999999998,128.9084,2019-09-07 13:12:15,0.0
2556.0,-0.13690186,-0.0007934570299999999,-0.011108398,65.618324,-141.81679,132.24428,2019-09-07 13:12:15,0.0
2557.0,-0.14050293,0.019348145,-0.011779785,52.015266,-132.64885,126.30533999999999,2019-09-07 13:12:15,0.0
2558.0,-0.13275146,0.017944336,-0.008666992,5.9389315,-121.33588,108.57252,2019-09-07 13:12:15,0.0
2559.0,-0.11938476599999999,0.022094727,-0.014404297,-26.458015000000003,-108.94656,92.40458000000001,2019-09-07 13:12:15,0.0
2560.0,-0.10333252,0.007446289,-0.018737793,-47.396946,-88.42748,72.091606,2019-09-07 13:12:15,0.0
2561.0,-0.11187744,-0.001953125,-0.025390625,-41.572517,-55.76336,47.801525,2019-09-07 13:12:15,0.0
2562.0,-0.10589599599999999,-0.004211426,-0.004638672,-24.06107,-31.641221999999996,25.213741,2019-09-07 13:12:15,0.0
2563.0,-0.09405517599999999,0.00024414062000000002,0.0048217773,-11.267176,10.473283,-4.6870227,2019-09-07 13:12:15,0.0
2564.0,-0.12677002,0.0064697266000000005,0.01159668,4.190840000000001,65.26717,-45.053436,2019-09-07 13:12:15,0.0
2565.0,-0.11828613,0.011413574,0.019104003999999997,3.8625953,88.091606,-74.58778000000001,2019-09-07 13:12:15,0.0
2566.0,-0.12689209,0.014282227,0.0041503906,2.3053436,139.37403999999998,-110.71756,2019-09-07 13:12:15,0.0
2567.0,-0.13549805,0.0071411133,0.014282227,-1.648855,150.55725,-129.40458999999998,2019-09-07 13:12:15,0.0
2568.0,-0.13555908,0.0006713867,0.004211426,0.36641222,167.28243999999998,-138.51908999999998,2019-09-07 13:12:16,0.0
2569.0,-0.15484619,-0.00024414062000000002,-0.013549805,-5.3511453,161.12978,-134.78625,2019-09-07 13:12:16,0.0
2570.0,-0.15783691,-0.0072631836,-0.01727295,15.312976999999998,139.64122,-119.061066,2019-09-07 13:12:16,0.0
2571.0,-0.14715576,-0.00982666,-0.0051879883,28.221375,116.96183,-99.25191,2019-09-07 13:12:16,0.0
2572.0,-0.13787842,-0.014099121000000001,-0.001953125,56.251906999999996,114.96183,-86.503815,2019-09-07 13:12:16,0.0
2573.0,-0.12921143,-0.004638672,0.0015258789000000001,83.25954399999999,105.84733,-77.07633,2019-09-07 13:12:16,0.0
2574.0,-0.13726807,0.0099487305,-0.0025634766,97.21374,94.32061,-73.72519,2019-09-07 13:12:16,0.0
2575.0,-0.14630127,0.016662598,-0.0014648438,100.62595,88.30534,-76.33588,2019-09-07 13:12:16,0.0
2576.0,-0.14556885,0.026123047000000003,0.002380371,76.27481,81.42748,-81.38931,2019-09-07 13:12:16,0.0
2577.0,-0.14129639,0.022338867000000002,0.013000488000000001,45.694656,74.061066,-81.53435,2019-09-07 13:12:16,0.0
2578.0,-0.13018799,0.016723633,0.017822266,24.42748,73.80153,-79.79389,2019-09-07 13:12:16,0.0
2579.0,-0.13165283,0.018615723,0.008972168,8.389313000000001,85.69466,-76.89313,2019-09-07 13:12:16,0.0
2580.0,-0.15777588,0.024414062,0.010803223,-11.015267,91.03053,-73.12977,2019-09-07 13:12:16,0.0
2581.0,-0.16046143,0.02130127,0.006591797,-21.465649,79.221375,-59.572517000000005,2019-09-07 13:12:16,0.0
2582.0,-0.16888428,0.024169922000000003,0.00793457,-30.610687,70.40458000000001,-45.519085,2019-09-07 13:12:16,0.0
2583.0,-0.20300293,0.018371582,0.016723633,-57.67175699999999,56.30534399999999,-31.198473,2019-09-07 13:12:16,0.0
2584.0,-0.16589355,0.009033203,0.01940918,-68.96183,-15.152672,0.8015267,2019-09-07 13:12:16,0.0
2585.0,-0.14428711,0.009216309,0.004028320300000001,-64.89313,-43.78626,29.732824,2019-09-07 13:12:16,0.0
2586.0,-0.14727783,0.006225586,0.0015869141,-59.679390000000005,-65.9542,52.374046,2019-09-07 13:12:16,0.0
2587.0,-0.14849854,0.0029907227,-0.013244628999999999,-59.992367,-104.091606,73.9771,2019-09-07 13:12:16,0.0
2588.0,-0.15057373,0.010131836,-0.0234375,-73.64886,-148.00763,91.35114,2019-09-07 13:12:16,0.0
2589.0,-0.13519287,0.01574707,-0.029846191,-98.32061,-180.35878,93.29008,2019-09-07 13:12:16,0.0
2590.0,-0.1449585,0.010070800999999999,-0.023803711,-129.19083999999998,-194.78625,92.53435,2019-09-07 13:12:16,0.0
2591.0,-0.14990234,0.0040893555,-0.01940918,-137.01527,-216.50381000000002,93.39695,2019-09-07 13:12:16,0.0
2592.0,-0.13806152,-0.0146484375,0.0030517578000000003,-107.16031000000001,-207.52671999999998,95.96947,2019-09-07 13:12:16,0.0
2593.0,-0.14654541,-0.0053100586,0.011169433999999999,-49.114502,-170.16794,101.84733,2019-09-07 13:12:16,0.0
2594.0,-0.14959717,0.0030517578000000003,-0.009094238000000001,24.160304999999997,-113.66412,109.68701999999999,2019-09-07 13:12:16,0.0
2595.0,-0.14672852,0.014404297,-0.014282227,26.587785999999998,-100.16794,105.68701999999999,2019-09-07 13:12:16,0.0
2596.0,-0.1317749,0.017211914,-0.026672362999999998,-19.671754999999997,-99.503815,91.221375,2019-09-07 13:12:16,0.0
2597.0,-0.1161499,-0.021057128999999997,-0.04937744,-30.839695000000003,-108.65648999999999,79.9771,2019-09-07 13:12:16,0.0
2598.0,-0.09448242,-0.032714844,-0.051208496,9.9007635,-99.618324,65.59541999999999,2019-09-07 13:12:16,0.0
2599.0,-0.1116333,-0.004699707,-0.0087890625,74.72519,-25.908398000000002,39.435116,2019-09-07 13:12:16,0.0
2600.0,-0.11230469,0.0032348633000000003,-0.012268066000000001,55.992367,-47.908398,19.854961,2019-09-07 13:12:16,0.0
2601.0,-0.12805176,0.013183594,-0.004333496,81.25954399999999,26.557251,-23.282442,2019-09-07 13:12:16,0.0
2602.0,-0.12182617,0.033813477,0.018798828,58.435116,60.656490000000005,-58.587788,2019-09-07 13:12:16,0.0
2603.0,-0.125,0.021911621000000003,0.0146484375,9.977099,124.96947,-98.08397,2019-09-07 13:12:16,0.0
2604.0,-0.13189697,0.013671875,0.018920898000000002,-36.374046,153.54199,-119.08397,2019-09-07 13:12:17,0.0
2605.0,-0.12329101599999999,0.01184082,0.013183594,-68.137405,183.64885,-131.30534,2019-09-07 13:12:17,0.0
2606.0,-0.14520264,0.00018310547,-0.0018920898,-76.20611,204.32062,-131.75572,2019-09-07 13:12:17,0.0
2607.0,-0.14965820000000002,-0.015014648,-0.010620117,-50.450382,181.47328000000002,-117.15267,2019-09-07 13:12:17,0.0
2608.0,-0.14300537,-0.026794434,-0.00592041,0.28244275,154.45801,-97.87786,2019-09-07 13:12:17,0.0
2609.0,-0.13830566,-0.030944824,-0.011657715,55.412212,133.60306,-84.21374,2019-09-07 13:12:17,0.0
2610.0,-0.13793945,-0.012634277,-0.009094238000000001,118.25954399999999,128.29771000000002,-75.15267,2019-09-07 13:12:17,0.0
2611.0,-0.13946533,0.0032348633000000003,-0.0053100586,156.43511999999998,105.63358999999998,-67.29771,2019-09-07 13:12:17,0.0
2612.0,-0.1508789,0.026855469,-0.006225586,154.03053,83.59541999999999,-67.63359,2019-09-07 13:12:17,0.0
2613.0,-0.14965820000000002,0.03741455,0.007690429699999999,120.58015400000001,72.80153,-68.99235999999999,2019-09-07 13:12:17,0.0
2614.0,-0.14788818,0.032958984,0.02154541,64.824425,63.55725,-68.541985,2019-09-07 13:12:17,0.0
2615.0,-0.12988281,0.026062012000000002,0.022033691,26.717558,62.69465600000001,-64.061066,2019-09-07 13:12:17,0.0
2616.0,-0.11804199,0.019897461,0.012329102,-4.9770994,70.221375,-56.549618,2019-09-07 13:12:17,0.0
2617.0,-0.14642334,0.015991211,0.00793457,-30.801527,82.0,-51.137405,2019-09-07 13:12:17,0.0
2618.0,-0.15325928,0.009094238000000001,0.00579834,-39.0229,57.71755600000001,-43.328243,2019-09-07 13:12:17,0.0
2619.0,-0.17041016,0.011413574,-0.0005493164,-26.992366999999998,56.14504,-36.923664,2019-09-07 13:12:17,0.0
2620.0,-0.21051025,0.016723633,0.013427733999999998,-45.496179999999995,43.946564,-34.0229,2019-09-07 13:12:17,0.0
2621.0,-0.16284179999999998,0.013305663999999998,0.020690918,-48.404579999999996,-17.267176,-13.633588,2019-09-07 13:12:17,0.0
2622.0,-0.15625,0.017578125,0.014953613000000001,-52.44275,-19.099237,2.2290077,2019-09-07 13:12:17,0.0
2623.0,-0.14868164,0.0078125,0.0073242188,-67.0,-65.87786,25.450382,2019-09-07 13:12:17,0.0
2624.0,-0.15283203,-0.00042724610000000003,-0.0067749023,-64.83969,-81.35114,45.068703,2019-09-07 13:12:17,0.0
2625.0,-0.14819336,0.009338379,-0.020568848,-72.862595,-124.8855,66.91603,2019-09-07 13:12:17,0.0
2626.0,-0.13452148,0.008850098,-0.025390625,-80.33588,-159.77100000000002,80.57252,2019-09-07 13:12:17,0.0
2627.0,-0.13928223,0.0049438477,-0.030273438,-94.74809,-171.93893,85.816795,2019-09-07 13:12:17,0.0
2628.0,-0.13745117,0.0020141601999999997,-0.021118164,-112.28244,-204.51144,93.862595,2019-09-07 13:12:17,0.0
2629.0,-0.14440918,-0.0065307617,-0.010986328,-87.74045600000001,-194.14503,95.10687,2019-09-07 13:12:17,0.0
2630.0,-0.14776611,0.0053100586,0.0024414061999999998,-45.725190000000005,-184.98473,107.83968999999999,2019-09-07 13:12:17,0.0
2631.0,-0.14337158,-0.0020751953,0.0041503906,-27.442749,-161.93893,114.28244,2019-09-07 13:12:17,0.0
2632.0,-0.14117432,0.0008544922000000001,-0.005004883,4.2061067,-132.38931000000002,112.862595,2019-09-07 13:12:17,0.0
2633.0,-0.13983154,0.016845703,-0.0036621094,10.419847500000001,-108.87786000000001,111.54198500000001,2019-09-07 13:12:17,0.0
2634.0,-0.12768555,0.01739502,-0.012817383,-12.7404585,-99.96183,100.175575,2019-09-07 13:12:17,0.0
2635.0,-0.1182251,-0.010864258,-0.037902832000000004,-13.251907999999998,-96.908394,88.36641,2019-09-07 13:12:17,0.0
2636.0,-0.09790039,-0.017456055,-0.03338623,87.66412,-42.885498,51.801525,2019-09-07 13:12:17,0.0
2637.0,-0.101623535,0.013916016000000002,-0.004272461,65.28244000000001,-54.55725,31.832062,2019-09-07 13:12:17,0.0
2638.0,-0.10504150400000001,0.013977051,0.004211426,72.46565,-2.6488549999999997,-13.885496,2019-09-07 13:12:17,0.0
2639.0,-0.13537598,0.02746582,0.009338379,63.18320500000001,42.496179999999995,-58.55725,2019-09-07 13:12:18,0.0
2640.0,-0.13769531,0.018981934,0.010864258,15.320610999999998,87.0229,-104.0687,2019-09-07 13:12:18,0.0
2641.0,-0.14642334,0.016784668,0.027832031,-35.687022999999996,130.59541000000002,-141.9084,2019-09-07 13:12:18,0.0
2642.0,-0.12939453,0.01184082,0.027648926,-66.854965,158.9542,-158.39694,2019-09-07 13:12:18,0.0
2643.0,-0.13690186,-0.006958008000000001,-0.0032958984000000004,-87.26717,172.0458,-155.28243999999998,2019-09-07 13:12:18,0.0
2644.0,-0.14819336,-0.034484863,-0.013122558999999999,-40.603054,165.58015,-129.38168000000002,2019-09-07 13:12:18,0.0
2645.0,-0.14813232,-0.03277588,-0.0072021483999999995,35.83206,145.35115,-102.78626,2019-09-07 13:12:18,0.0
2646.0,-0.13897705,-0.029174805,0.0029907227,91.03817,127.05344,-87.70229,2019-09-07 13:12:18,0.0
2647.0,-0.13696289,-0.009460449000000001,-0.00012207031000000001,146.54199,116.66412,-79.63359,2019-09-07 13:12:18,0.0
2648.0,-0.13012695,0.012512207,-0.004272461,165.96184,105.57252,-81.1145,2019-09-07 13:12:18,0.0
2649.0,-0.14147949,0.020446777,0.0038452148,150.46565,99.64886,-88.938934,2019-09-07 13:12:18,0.0
2650.0,-0.1640625,0.036132812,0.015258788999999998,93.48855,100.08397,-101.40458000000001,2019-09-07 13:12:18,0.0
2651.0,-0.1630249,0.038269042999999996,0.019165039,28.847328000000005,91.0687,-107.68701999999999,2019-09-07 13:12:18,0.0
2652.0,-0.13824463,0.026367188,0.023803711,-12.7786255,91.0458,-108.68701999999999,2019-09-07 13:12:18,0.0
2653.0,-0.1307373,0.030639648,0.01751709,-36.25954,94.8855,-98.16031,2019-09-07 13:12:18,0.0
2654.0,-0.14642334,0.020141601999999998,0.014099121000000001,-52.77099200000001,98.25954399999999,-86.56489,2019-09-07 13:12:18,0.0
2655.0,-0.15008545,0.015991211,0.0063476562,-45.549618,65.67939,-59.923664,2019-09-07 13:12:18,0.0
2656.0,-0.17089844,0.009887695,-0.010009766,-30.717558,59.549618,-30.328245000000003,2019-09-07 13:12:18,0.0
2657.0,-0.19610596,0.008300781,-0.009216309,-27.25191,28.717558,-0.84732825,2019-09-07 13:12:18,0.0
2658.0,-0.18353271,0.0037841796999999997,-0.00048828125,-22.396946,-38.603054,30.91603,2019-09-07 13:12:18,0.0
2659.0,-0.14068604,0.010192871,0.0028686523,-16.61832,-71.37405,53.564884,2019-09-07 13:12:18,0.0
2660.0,-0.13562012,0.012145996000000001,0.0018310547,-15.755725,-67.48855,72.0229,2019-09-07 13:12:18,0.0
2661.0,-0.15655518,0.02355957,-0.009277344,-33.229008,-88.19847,82.51145,2019-09-07 13:12:18,0.0
2662.0,-0.14825439999999998,0.018676758,-0.014831543,-56.78626,-132.84734,96.091606,2019-09-07 13:12:18,0.0
2663.0,-0.14086914,0.021911621000000003,-0.02166748,-91.824425,-152.63359,102.58015400000001,2019-09-07 13:12:18,0.0
2664.0,-0.13397217,0.018066406,-0.013183594,-114.48092,-151.38168000000002,102.496185,2019-09-07 13:12:18,0.0
2665.0,-0.1328125,0.014221191000000001,-0.009277344,-125.65648999999999,-152.96947,103.34351,2019-09-07 13:12:18,0.0
2666.0,-0.13537598,0.0045776367,-0.0024414061999999998,-121.91603,-144.3435,105.83968999999999,2019-09-07 13:12:18,0.0
2667.0,-0.14880371,-0.0008544922000000001,-0.0052490233999999995,-98.28244000000001,-129.38168000000002,107.24428,2019-09-07 13:12:18,0.0
2668.0,-0.15740967,0.00012207031000000001,-0.00579834,-72.73283,-114.33588,108.62595,2019-09-07 13:12:18,0.0
2669.0,-0.14208984,0.0037231445,-0.010375977,-52.47328,-102.32825,105.24428,2019-09-07 13:12:18,0.0
2670.0,-0.15301514,0.009887695,-0.011413574,-53.16030500000001,-94.34351,92.824425,2019-09-07 13:12:18,0.0
2671.0,-0.13238525,-0.0053710938,-0.043273926,-67.56489,-106.099236,78.9771,2019-09-07 13:12:18,0.0
2672.0,-0.10809326,-0.025024414,-0.043884277,-48.992367,-118.091606,64.28244000000001,2019-09-07 13:12:18,0.0
2673.0,-0.10333252,-0.024719237999999998,-0.04724121,14.671756,-73.32825,42.664124,2019-09-07 13:12:18,0.0
2674.0,-0.12805176,0.0005493164,-0.01550293,49.44275,-66.80153,26.435114000000002,2019-09-07 13:12:18,0.0
2675.0,-0.110839844,6.1035155999999994e-05,-0.006042480500000001,79.51908,-41.320609999999995,4.6870227,2019-09-07 13:12:19,0.0
2676.0,-0.11981201,0.008666992,0.0005493164,88.74809,15.931297,-25.885496,2019-09-07 13:12:19,0.0
2677.0,-0.14202881,0.019714355,0.01159668,77.53435,64.34351,-58.083969999999994,2019-09-07 13:12:19,0.0
2678.0,-0.11505127,0.02319336,0.024780273,24.725191,99.541985,-82.1145,2019-09-07 13:12:19,0.0
2679.0,-0.1494751,0.008483886999999999,0.012451172,-3.4809160000000006,146.06107,-114.770996,2019-09-07 13:12:19,0.0
2680.0,-0.14251709,0.010803223,0.005004883,-54.038166000000004,149.17557,-128.64122,2019-09-07 13:12:19,0.0
2681.0,-0.15075684,0.00042724610000000003,-0.005432129,-72.23664000000001,160.03053,-131.23665,2019-09-07 13:12:19,0.0
2682.0,-0.15777588,-0.01977539,-0.0020751953,-41.17557,135.81679,-120.98473,2019-09-07 13:12:19,0.0
2683.0,-0.14160156,-0.027709961,0.0017700195,29.76336,124.25191000000001,-97.64121999999999,2019-09-07 13:12:19,0.0
2684.0,-0.12457275400000001,-0.022766112999999998,0.0031738281,90.137405,111.43511000000001,-82.41984599999999,2019-09-07 13:12:19,0.0
2685.0,-0.13000488,-0.009643555,0.0009765625,137.39694,98.900764,-71.34351,2019-09-07 13:12:19,0.0
2686.0,-0.1307373,0.0146484375,0.0029907227,159.57253,87.80915999999999,-66.42748,2019-09-07 13:12:19,0.0
2687.0,-0.1293335,0.029174805,-0.0015258789000000001,144.54962,80.23664000000001,-72.75572,2019-09-07 13:12:19,0.0
2688.0,-0.13720703,0.03338623,0.0036621094,104.66412,77.145035,-79.94655999999999,2019-09-07 13:12:19,0.0
2689.0,-0.14447021,0.044189453,0.010986328,48.793890000000005,71.175575,-85.496185,2019-09-07 13:12:19,0.0
2690.0,-0.12921143,0.02520752,0.010498047,10.641221,66.137405,-82.541985,2019-09-07 13:12:19,0.0
