measurement,Acc_X,Acc_Y,Acc_Z,Gyr_X,Gyr_Y,Gyr_Z,Time(hh:mm:ss),Label
1162.0,-0.14318848,0.007446289,0.0032348633000000003,-86.9542,-108.908394,73.496185,2019-09-07 15:33:59,0.0
1163.0,-0.13568115,-0.0017700195,-0.0071411133,-83.1145,-106.70228999999999,89.83206,2019-09-07 15:33:59,0.0
1164.0,-0.1361084,-0.012329102,-0.0045776367,-75.16794,-112.0229,101.68701999999999,2019-09-07 15:33:59,0.0
1165.0,-0.13983154,-0.00970459,-0.0015869141,-50.23664,-111.78626000000001,114.54961999999999,2019-09-07 15:33:59,0.0
1166.0,-0.12243652,-0.006713866999999999,-0.0043945312,-26.23664,-105.45038000000001,116.60305,2019-09-07 15:33:59,0.0
1167.0,-0.13226318,-0.007629394499999999,-0.005004883,-8.114504,-101.0687,116.80153,2019-09-07 15:33:59,0.0
1168.0,-0.12249756,-0.00091552734,-0.0079956055,-13.61832,-93.69466,110.908394,2019-09-07 15:33:59,0.0
1169.0,-0.11730957,-0.014038086000000002,-0.0056152343999999995,-23.503817,-93.08397,100.48092,2019-09-07 15:33:59,0.0
1170.0,-0.11047363,-0.029785156,-0.006225586,-10.458015,-89.458015,90.47328,2019-09-07 15:33:59,0.0
1171.0,-0.09649658,-0.032470703,-0.0119018555,32.541985,-68.67939,75.80915999999999,2019-09-07 15:33:59,0.0
1172.0,-0.11248779,-0.02532959,-0.010253906,80.1145,-38.229008,48.030533,2019-09-07 15:33:59,0.0
1173.0,-0.12078857400000001,-6.1035155999999994e-05,0.006713866999999999,78.67939,-26.885496000000003,14.038167999999999,2019-09-07 15:33:59,0.0
1174.0,-0.11358642599999999,0.0016479492000000002,0.010070800999999999,32.473279999999995,-7.6870227,-19.664122,2019-09-07 15:33:59,0.0
1175.0,-0.13867188,0.001953125,-0.0078125,19.412214000000002,26.496183000000002,-56.53435,2019-09-07 15:33:59,0.0
1176.0,-0.15710449,0.009338379,0.013427733999999998,-16.87023,40.717556,-89.46565,2019-09-07 15:33:59,0.0
1177.0,-0.13024902,-0.0017700195,0.016540527,-69.33588,71.29771,-105.137405,2019-09-07 15:33:59,0.0
1178.0,-0.12963867,-0.014831543,0.014831543,-57.893130000000006,90.34351,-114.938934,2019-09-07 15:33:59,0.0
1179.0,-0.11956787,-0.016296387,0.016235351999999998,-35.748093,104.29771,-113.12213999999999,2019-09-07 15:33:59,0.0
1180.0,-0.1381836,-0.016357422,0.0061035156000000005,0.10687023,101.496185,-105.061066,2019-09-07 15:33:59,0.0
1181.0,-0.15368652,-0.022705077999999997,0.0021972656,45.015266,90.64886,-91.33588,2019-09-07 15:33:59,0.0
1182.0,-0.14190674,-0.009033203,0.004028320300000001,71.503815,72.458015,-77.87786,2019-09-07 15:33:59,0.0
1183.0,-0.13079834,-0.003540039,0.005432129,100.68701999999999,66.061066,-70.0458,2019-09-07 15:33:59,0.0
1184.0,-0.125,0.005554199,0.0041503906,97.10687,63.648853,-68.84733,2019-09-07 15:33:59,0.0
1185.0,-0.12896729,0.007385254,0.010437011999999999,82.137405,58.16794,-67.03053,2019-09-07 15:33:59,0.0
1186.0,-0.12939453,0.01361084,0.009033203,62.450382,61.870228000000004,-70.24428,2019-09-07 15:33:59,0.0
1187.0,-0.12927246,0.013366699,0.012512207,44.251907,61.71755600000001,-75.816795,2019-09-07 15:33:59,0.0
1188.0,-0.13366699,0.015930176,0.0154418945,15.297709,64.145035,-79.41984599999999,2019-09-07 15:33:59,0.0
1189.0,-0.12762451,0.016235351999999998,0.01953125,2.4198472,64.62595,-78.83206,2019-09-07 15:33:59,0.0
1190.0,-0.11999512,0.007629394499999999,0.024902344,-11.625955000000001,64.10687,-74.36641,2019-09-07 15:33:59,0.0
1191.0,-0.11639404,0.0026855469,0.026794434,-10.78626,62.748093000000004,-68.55725,2019-09-07 15:33:59,0.0
1192.0,-0.13952637,0.006652831999999999,0.01739502,2.221374,69.900764,-63.61832,2019-09-07 15:33:59,0.0
1193.0,-0.16052246,0.0015258789000000001,0.022155762000000002,-14.732823999999999,57.40458,-54.290077000000004,2019-09-07 15:33:59,0.0
1194.0,-0.15667725,0.00982666,0.022766112999999998,-14.725191,39.946564,-41.17557,2019-09-07 15:33:59,0.0
1195.0,-0.14831543,0.009033203,0.016723633,-17.419847,26.167938,-17.816793,2019-09-07 15:33:59,0.0
1196.0,-0.17126465,0.0138549805,0.019836426,-29.709923,29.137404999999998,-0.53435117,2019-09-07 15:33:59,0.0
1197.0,-0.16143799,0.009094238000000001,0.022033691,-55.732826,-10.870229,21.816793,2019-09-07 15:34:00,0.0
1198.0,-0.13745117,0.006042480500000001,0.022277832,-57.343509999999995,-25.679389999999998,36.610687,2019-09-07 15:34:00,0.0
1199.0,-0.13763428,0.0079956055,0.018066406,-73.824425,-41.099236,45.412212,2019-09-07 15:34:00,0.0
1200.0,-0.15545654,0.009216309,0.00793457,-88.16794,-69.44275,53.664124,2019-09-07 15:34:00,0.0
1201.0,-0.15960693,0.0119018555,0.004028320300000001,-99.15267,-96.83206,62.549618,2019-09-07 15:34:00,0.0
1202.0,-0.15917969,0.0012817383,-0.0028686523,-103.94655999999999,-115.65648999999999,73.27481,2019-09-07 15:34:00,0.0
1203.0,-0.15631104,0.005065918,-0.010375977,-101.496185,-128.99237,87.80153,2019-09-07 15:34:00,0.0
1204.0,-0.1449585,-0.009216309,-0.012023926,-93.05344000000001,-129.58015,98.94655999999999,2019-09-07 15:34:00,0.0
1205.0,-0.14196777,-0.0068359375,-0.00592041,-75.34351,-127.85496499999999,110.71756,2019-09-07 15:34:00,0.0
1206.0,-0.14715576,-0.011352538999999998,-0.0056152343999999995,-61.30534399999999,-120.61068999999999,114.19847,2019-09-07 15:34:00,0.0
1207.0,-0.13537598,-0.004211426,-0.007873535,-30.633587,-118.9771,116.51908,2019-09-07 15:34:00,0.0
1208.0,-0.13018799,-0.0037841796999999997,-0.008361816,-14.167939000000002,-111.89313,114.31298000000001,2019-09-07 15:34:00,0.0
1209.0,-0.12792969,-0.004333496,-0.0044555664,-13.083969,-103.00764000000001,106.908394,2019-09-07 15:34:00,0.0
1210.0,-0.13092041,-0.012939453,-0.009521484,-23.328245000000003,-98.64121999999999,101.39695,2019-09-07 15:34:00,0.0
1211.0,-0.10784912,-0.025146484,-0.007080078,-0.7251908,-91.458015,91.618324,2019-09-07 15:34:00,0.0
1212.0,-0.09240723,-0.02532959,-0.015686035,22.389313,-70.84733,78.51145,2019-09-07 15:34:00,0.0
1213.0,-0.11004639,-0.025756836,-0.017211914,51.08397,-43.450382,55.664124,2019-09-07 15:34:00,0.0
1214.0,-0.11175537,-0.012451172,-0.005065918,56.648853,-22.404581,24.587785999999998,2019-09-07 15:34:00,0.0
1215.0,-0.09863281,0.006286621,0.009033203,41.84733,-3.091603,-8.885496,2019-09-07 15:34:00,0.0
1216.0,-0.11206055,0.0025634766,-0.0037841796999999997,14.839695,27.335878000000005,-44.725190000000005,2019-09-07 15:34:00,0.0
1217.0,-0.14471436,0.0005493164,0.002380371,-4.343511599999999,60.893130000000006,-79.0458,2019-09-07 15:34:00,0.0
1218.0,-0.12268066400000001,0.0068969727,0.010192871,-49.816795,67.70229,-100.52672,2019-09-07 15:34:00,0.0
1219.0,-0.13494873,-0.0026855469,0.014038086000000002,-51.396946,103.27481,-120.16031000000001,2019-09-07 15:34:00,0.0
1220.0,-0.12927246,-0.009521484,0.008850098,-33.755726,120.43511000000001,-128.12978,2019-09-07 15:34:00,0.0
1221.0,-0.14044189999999998,-0.011169433999999999,0.0075683593999999995,-16.557251,132.43511999999998,-129.41222,2019-09-07 15:34:00,0.0
1222.0,-0.16113281,-0.016784668,0.0037841796999999997,6.9923663000000005,135.61831999999998,-123.29008,2019-09-07 15:34:00,0.0
1223.0,-0.15795898,-0.013977051,0.005737304699999999,36.618320000000004,119.137405,-110.137405,2019-09-07 15:34:00,0.0
1224.0,-0.14196777,-0.009643555,0.009033203,37.694656,108.80916,-98.1145,2019-09-07 15:34:00,0.0
1225.0,-0.13659668,-0.004333496,0.006958008000000001,57.137405,100.63359,-84.57252,2019-09-07 15:34:00,0.0
1226.0,-0.13891602,0.0036621094,0.0078125,65.79389,90.16794,-75.862595,2019-09-07 15:34:00,0.0
1227.0,-0.13085938,0.008117675999999999,0.013183594,62.18320500000001,86.145035,-75.137405,2019-09-07 15:34:00,0.0
1228.0,-0.13934326,0.00982666,0.016784668,50.82443,82.0687,-75.07633,2019-09-07 15:34:00,0.0
1229.0,-0.14154053,0.0061035156000000005,0.018493652,40.343509999999995,74.87786,-75.01527,2019-09-07 15:34:00,0.0
1230.0,-0.14697266,0.00793457,0.021972656,15.267176000000001,69.53435,-71.9313,2019-09-07 15:34:00,0.0
1231.0,-0.12713623,0.0014648438,0.026672362999999998,12.709924,59.50382,-63.984733999999996,2019-09-07 15:34:00,0.0
1232.0,-0.11358642599999999,0.0078125,0.023864746000000003,20.755726,56.099236,-53.52672,2019-09-07 15:34:00,0.0
1233.0,-0.13360596,0.012878418,0.017456055,25.923664000000002,65.20611,-46.900764,2019-09-07 15:34:01,0.0
1234.0,-0.1539917,0.010192871,0.020629883,12.984733,49.183205,-36.564884,2019-09-07 15:34:01,0.0
1235.0,-0.15203857,0.011291503999999999,0.014282227,6.6106872999999995,30.89313,-26.335878000000005,2019-09-07 15:34:01,0.0
1236.0,-0.15368652,0.014526367,0.015686035,-3.8854961,22.847328,-12.870229,2019-09-07 15:34:01,0.0
1237.0,-0.19769287,0.016174316,0.028442382999999998,-26.664121999999995,14.625955,0.36641222,2019-09-07 15:34:01,0.0
1238.0,-0.16052246,0.009155273,0.018066406,-40.923664,-27.091602,25.160304999999997,2019-09-07 15:34:01,0.0
1239.0,-0.14123535,0.0072021483999999995,0.0126953125,-37.404579999999996,-42.274809999999995,49.633587,2019-09-07 15:34:01,0.0
1240.0,-0.14196777,0.0067749023,0.014282227,-43.17557,-62.206109999999995,68.137405,2019-09-07 15:34:01,0.0
1241.0,-0.15997314,0.009338379,0.006713866999999999,-55.083969999999994,-81.16031,79.98473,2019-09-07 15:34:01,0.0
1242.0,-0.15917969,0.0068359375,-0.0043945312,-77.1145,-108.25954399999999,87.26717,2019-09-07 15:34:01,0.0
1243.0,-0.15777588,0.0036010741999999997,-0.011047363000000001,-98.24428,-129.22137,92.816795,2019-09-07 15:34:01,0.0
1244.0,-0.1538086,0.003967285,-0.013122558999999999,-115.64121999999999,-134.39694,100.16794,2019-09-07 15:34:01,0.0
1245.0,-0.1461792,0.0038452148,-0.01159668,-119.79388999999999,-135.29007,107.824425,2019-09-07 15:34:01,0.0
1246.0,-0.13708496,-0.006164551,-0.0068359375,-110.12977,-126.175575,113.14503500000001,2019-09-07 15:34:01,0.0
1247.0,-0.14520264,-0.008361816,-0.011230469,-83.51145,-114.91603,117.45038000000001,2019-09-07 15:34:01,0.0
1248.0,-0.12670898,-0.003540039,-0.012268066000000001,-55.83206,-109.175575,116.08397,2019-09-07 15:34:01,0.0
1249.0,-0.13269043,-0.0010375977,-0.011230469,-34.46565,-99.65649,113.44275,2019-09-07 15:34:01,0.0
1250.0,-0.1260376,-0.0009765625,-0.0064086914,-25.48855,-95.52672,107.25954399999999,2019-09-07 15:34:01,0.0
1251.0,-0.123168945,-0.018859863,-0.017211914,-22.48855,-94.229004,94.38931,2019-09-07 15:34:01,0.0
1252.0,-0.10278319999999999,-0.022827148,-0.025024414,17.10687,-86.31298000000001,83.541985,2019-09-07 15:34:01,0.0
1253.0,-0.099731445,-0.024353027000000003,-0.024719237999999998,42.007633,-55.28244399999999,63.076336,2019-09-07 15:34:01,0.0
1254.0,-0.114746094,-0.014343261999999999,-0.01953125,74.16031,-24.06107,36.412212,2019-09-07 15:34:01,0.0
1255.0,-0.10766601599999999,0.0030517578000000003,-0.004211426,69.28244000000001,-6.5496182,6.343511599999999,2019-09-07 15:34:01,0.0
1256.0,-0.11151123,0.0022583008,0.0009765625,43.267174,23.648854999999998,-23.183207,2019-09-07 15:34:01,0.0
1257.0,-0.13824463,0.0014038085999999999,-0.014953613000000001,27.42748,59.030533,-54.21374,2019-09-07 15:34:01,0.0
1258.0,-0.14154053,0.011169433999999999,0.011108398,-7.908396700000001,73.183205,-82.28244000000001,2019-09-07 15:34:01,0.0
1259.0,-0.1375122,0.017211914,0.016174316,-65.92367,109.96947,-104.458015,2019-09-07 15:34:01,0.0
1260.0,-0.13970947,0.0005493164,0.020996094,-94.15267,132.0916,-124.05344,2019-09-07 15:34:01,0.0
1261.0,-0.13775635,-0.0017089844000000001,0.011352538999999998,-100.908394,144.40458999999998,-122.89313,2019-09-07 15:34:01,0.0
1262.0,-0.16015625,-0.014953613000000001,-0.0075683593999999995,-79.27481,151.2519,-116.15267,2019-09-07 15:34:01,0.0
1263.0,-0.16186523,-0.044555664,-0.010131836,-2.5954200000000003,134.83969,-95.01527,2019-09-07 15:34:01,0.0
1264.0,-0.14923096,-0.02508545,0.001953125,53.984733999999996,120.98473,-76.80153,2019-09-07 15:34:01,0.0
1265.0,-0.13616943,-0.024780273,-0.00012207031000000001,98.16031,107.46565,-65.99235999999999,2019-09-07 15:34:02,0.0
1266.0,-0.12750244,-0.014892578,-0.0014038085999999999,122.84733,104.70992,-61.77099200000001,2019-09-07 15:34:02,0.0
1267.0,-0.13323975,0.0044555664,0.005126953,127.9771,92.35878000000001,-61.62595400000001,2019-09-07 15:34:02,0.0
1268.0,-0.13067627,0.009765625,0.0115356445,102.01527,84.33588,-68.52672,2019-09-07 15:34:02,0.0
1269.0,-0.13861084,0.025268555,0.012145996000000001,73.58015400000001,81.76335999999999,-78.53435,2019-09-07 15:34:02,0.0
1270.0,-0.13519287,0.011047363000000001,0.010498047,7.0839696,66.28244000000001,-82.10687,2019-09-07 15:34:02,0.0
1271.0,-0.1270752,0.0049438477,0.01928711,-8.068703,62.83206,-72.41984599999999,2019-09-07 15:34:02,0.0
1272.0,-0.12554932,0.002746582,0.017822266,-3.6946564,71.16794,-61.69465600000001,2019-09-07 15:34:02,0.0
1273.0,-0.14605713,0.00048828125,0.015625,-7.740458,70.99235999999999,-51.55725,2019-09-07 15:34:02,0.0
1274.0,-0.16015625,0.007751465,0.01550293,1.5648855,32.0,-30.366413,2019-09-07 15:34:02,0.0
1275.0,-0.15441895,0.0071411133,0.011169433999999999,-1.3740458,23.08397,-15.526717000000001,2019-09-07 15:34:02,0.0
1276.0,-0.16369629,0.007080078,0.0007934570299999999,-11.175572,6.259542,5.7251905999999995,2019-09-07 15:34:02,0.0
1277.0,-0.18499756,0.0037841796999999997,0.014343261999999999,-23.099237,-20.312977,25.282442,2019-09-07 15:34:02,0.0
1278.0,-0.13989258,0.008239746,0.010925293,-18.190839999999998,-47.93893,41.595420000000004,2019-09-07 15:34:02,0.0
1279.0,-0.1508789,0.011962891000000002,0.010131836,-25.045801,-53.755726,54.9771,2019-09-07 15:34:02,0.0
1280.0,-0.15515137,0.016113281,0.0053100586,-36.290077000000004,-80.854965,65.824425,2019-09-07 15:34:02,0.0
1281.0,-0.17120361,0.010437011999999999,-0.008850098,-63.725190000000005,-102.72519,75.137405,2019-09-07 15:34:02,0.0
1282.0,-0.16741943,0.008728027,-0.020996094,-84.26717,-131.8855,85.8855,2019-09-07 15:34:02,0.0
1283.0,-0.1616211,0.002380371,-0.018798828,-95.35114,-151.61068999999998,94.76335999999999,2019-09-07 15:34:02,0.0
1284.0,-0.14965820000000002,-0.004638672,-0.017028809,-103.770996,-168.46565,107.31298000000001,2019-09-07 15:34:02,0.0
1285.0,-0.14752197,-0.010070800999999999,-0.017456055,-88.07633,-162.57253,118.55725,2019-09-07 15:34:02,0.0
1286.0,-0.14434814,-0.018554688,-0.014160156,-50.679390000000005,-160.03053,126.46565,2019-09-07 15:34:02,0.0
1287.0,-0.1395874,-0.012268066000000001,-0.0146484375,-21.160304999999997,-142.3435,137.15266,2019-09-07 15:34:02,0.0
1288.0,-0.13439941,-0.00579834,-0.008850098,2.9694657,-124.72519,136.9542,2019-09-07 15:34:02,0.0
1289.0,-0.13403320000000002,-0.0072631836,-0.016052246000000003,-0.10687023,-114.21373999999999,133.19083999999998,2019-09-07 15:34:02,0.0
1290.0,-0.10656738,-0.025634766,-0.020385742,10.625955000000001,-109.25954399999999,120.24428,2019-09-07 15:34:02,0.0
1291.0,-0.095825195,-0.029174805,-0.016235351999999998,28.007633000000002,-86.83206,99.38931,2019-09-07 15:34:02,0.0
1292.0,-0.08331299,-0.0211792,-0.0115356445,35.595420000000004,-70.67175,74.38931,2019-09-07 15:34:02,0.0
1293.0,-0.08679199,-0.019592285,-0.009277344,63.946564,-33.030533,39.541985,2019-09-07 15:34:02,0.0
1294.0,-0.11157226599999999,-0.00970459,0.0006713867,67.27481,-4.9694657,-3.832061,2019-09-07 15:34:02,0.0
1295.0,-0.11694336,0.006225586,0.01159668,43.358779999999996,20.221375,-43.679390000000005,2019-09-07 15:34:02,0.0
1296.0,-0.13128662,-0.0010986328,0.0005493164,-1.5038168,59.389313,-86.16031,2019-09-07 15:34:02,0.0
1297.0,-0.16375732,0.009216309,0.016052246000000003,-21.328245000000003,95.854965,-128.68703,2019-09-07 15:34:02,0.0
1298.0,-0.14215088,0.0026245116999999997,0.0138549805,-79.31298000000001,117.62595,-145.82443,2019-09-07 15:34:02,0.0
1299.0,-0.14807129,-0.013061523,0.01586914,-74.47328,148.8855,-163.30534,2019-09-07 15:34:02,0.0
1300.0,-0.14697266,-0.020019531,0.020019531,-45.618320000000004,164.38931000000002,-158.84734,2019-09-07 15:34:02,0.0
1301.0,-0.1529541,-0.01928711,0.0017700195,-7.9770994,160.40458999999998,-146.26718,2019-09-07 15:34:02,0.0
1302.0,-0.1665039,-0.022094727,-0.009765625,36.351147,157.99237,-128.59541000000002,2019-09-07 15:34:02,0.0
1303.0,-0.16821289,-0.010131836,-0.008422852,81.900764,110.80153,-101.35878000000001,2019-09-07 15:34:02,0.0
1304.0,-0.1473999,-0.007629394499999999,-0.0061035156000000005,90.08397,88.137405,-77.65649,2019-09-07 15:34:03,0.0
1305.0,-0.13134766,-0.005737304699999999,-0.0006713867,110.28244,78.89313,-62.419846,2019-09-07 15:34:03,0.0
1306.0,-0.1381836,0.010986328,0.0044555664,111.68701999999999,70.221375,-54.603054,2019-09-07 15:34:03,0.0
1307.0,-0.13336182,0.005737304699999999,0.009765625,97.32061,64.89313,-52.030533,2019-09-07 15:34:03,0.0
1308.0,-0.13989258,0.0134887695,0.0075683593999999995,76.40458000000001,63.412212,-56.480915,2019-09-07 15:34:03,0.0
1309.0,-0.14129639,0.019714355,0.019165039,49.572517,62.732826,-65.73283,2019-09-07 15:34:03,0.0
1310.0,-0.1437378,0.012512207,0.020996094,6.5648856,55.366413,-69.15267,2019-09-07 15:34:03,0.0
1311.0,-0.11621094,0.01171875,0.027038574,-3.7633588,52.06107,-69.12214,2019-09-07 15:34:03,0.0
1312.0,-0.10913086,0.0045776367,0.023010253999999997,0.8396947,55.46565,-66.0229,2019-09-07 15:34:03,0.0
1313.0,-0.13128662,0.0154418945,0.017700195,9.465649,71.183205,-61.320609999999995,2019-09-07 15:34:03,0.0
1314.0,-0.15136719,0.008117675999999999,0.012145996000000001,12.343511999999999,52.52672,-48.08397,2019-09-07 15:34:03,0.0
1315.0,-0.15765381,0.014953613000000001,0.008361816,8.557252,33.053436,-29.755726,2019-09-07 15:34:03,0.0
1316.0,-0.16595459,0.020690918,0.005004883,-4.9541984,16.51145,-11.129771,2019-09-07 15:34:03,0.0
1317.0,-0.19085693,0.014953613000000001,0.013671875,-33.89313,14.885496,10.2595415,2019-09-07 15:34:03,0.0
1318.0,-0.1609497,0.0033569335999999996,0.013977051,-41.55725,-48.450382,42.702290000000005,2019-09-07 15:34:03,0.0
1319.0,-0.13671875,-0.00018310547,0.0064086914,-48.343509999999995,-46.503820000000005,63.870228000000004,2019-09-07 15:34:03,0.0
1320.0,-0.13702393,0.008972168,0.0065307617,-52.0,-65.16031,80.51908,2019-09-07 15:34:03,0.0
1321.0,-0.15673828,0.009399414,-0.0037841796999999997,-68.10687,-81.381676,89.854965,2019-09-07 15:34:03,0.0
1322.0,-0.16357422,0.017578125,-0.008911133,-84.26717,-115.96183,97.27481,2019-09-07 15:34:03,0.0
1323.0,-0.15710449,0.0034790040000000004,-0.014343261999999999,-116.96183,-141.62596000000002,101.221375,2019-09-07 15:34:03,0.0
1324.0,-0.1539917,-0.0068969727,-0.016967773000000002,-123.89313,-153.67175,109.64886000000001,2019-09-07 15:34:03,0.0
1325.0,-0.14416504,-0.0032958984000000004,-0.019470215,-127.19847,-150.25954,113.35113999999999,2019-09-07 15:34:03,0.0
1326.0,-0.14398193,-0.014282227,-0.010131836,-104.47328,-143.83206,120.31298000000001,2019-09-07 15:34:03,0.0
1327.0,-0.14233398,-0.01586914,-0.009155273,-68.45038000000001,-127.07633,127.87786000000001,2019-09-07 15:34:03,0.0
1328.0,-0.13024902,-0.0099487305,-0.011291503999999999,-28.664121999999995,-109.12977,129.55725,2019-09-07 15:34:03,0.0
1329.0,-0.13659668,-0.00579834,-0.014221191000000001,-12.366412,-94.854965,127.8855,2019-09-07 15:34:03,0.0
1330.0,-0.13793945,-0.01550293,-0.017822266,-5.2900763,-89.55725,116.87023,2019-09-07 15:34:03,0.0
1331.0,-0.11401367,-0.022521972999999997,-0.014038086000000002,10.748092,-90.28244000000001,106.74045600000001,2019-09-07 15:34:03,0.0
1332.0,-0.09637451,-0.01977539,-0.014953613000000001,16.648854999999998,-71.9313,85.96183,2019-09-07 15:34:03,0.0
1333.0,-0.100097656,-0.016845703,-0.0053710938,16.251910000000002,-51.870228000000004,60.335876,2019-09-07 15:34:03,0.0
1334.0,-0.11022949,-0.01953125,-0.006652831999999999,29.267176,-29.076335999999998,26.778625,2019-09-07 15:34:03,0.0
1335.0,-0.10662842,-0.011474608999999998,0.0048828125,22.412214000000002,-6.709923700000001,-6.9160304,2019-09-07 15:34:03,0.0
1336.0,-0.12451172,0.003967285,0.0013427734,15.122137,26.007633,-43.839695,2019-09-07 15:34:03,0.0
1337.0,-0.13787842,0.003540039,0.0044555664,10.664123,61.030533,-81.39695,2019-09-07 15:34:03,0.0
1338.0,-0.14447021,0.0038452148,0.018127441,-34.480915,84.52672,-105.45801499999999,2019-09-07 15:34:03,0.0
1339.0,-0.13690186,-0.0064697266000000005,0.020629883,-54.458015,117.32061000000002,-126.24428,2019-09-07 15:34:04,0.0
1340.0,-0.13940429999999998,-0.014404297,0.018249512,-54.076336,140.80916000000002,-133.52671999999998,2019-09-07 15:34:04,0.0
1341.0,-0.1352539,-0.01550293,0.0012817383,-31.053434000000003,147.26718,-134.70993,2019-09-07 15:34:04,0.0
1342.0,-0.16595459,-0.020202637,-0.007751465,-6.152672,149.24428,-127.03817,2019-09-07 15:34:04,0.0
1343.0,-0.16333008,-0.022338867000000002,-0.006225586,45.656490000000005,119.10687,-108.43511000000001,2019-09-07 15:34:04,0.0
1344.0,-0.14111328,-0.02130127,0.00390625,67.65649,97.221375,-89.8855,2019-09-07 15:34:04,0.0
1345.0,-0.13012695,-0.0107421875,-0.0030517578000000003,93.62595,98.8855,-82.55725,2019-09-07 15:34:04,0.0
1346.0,-0.12908936,-0.0037841796999999997,0.0009765625,111.32825,89.31298000000001,-76.900764,2019-09-07 15:34:04,0.0
1347.0,-0.12683105,0.0119018555,0.0095825195,97.80915999999999,84.65649,-76.87023,2019-09-07 15:34:04,0.0
1348.0,-0.13983154,0.014709473,0.015197753999999999,77.68701999999999,80.70992,-82.0458,2019-09-07 15:34:04,0.0
1349.0,-0.14300537,0.018432617,0.011169433999999999,35.946564,79.221375,-87.78626,2019-09-07 15:34:04,0.0
1350.0,-0.13604736,0.010070800999999999,0.018310547,9.473283,67.900764,-84.41984599999999,2019-09-07 15:34:04,0.0
1351.0,-0.11694336,0.0034790040000000004,0.0234375,-5.778626,64.770996,-77.39695,2019-09-07 15:34:04,0.0
1352.0,-0.118652344,-0.002746582,0.019836426,-1.0305344,72.57252,-70.48092,2019-09-07 15:34:04,0.0
1353.0,-0.13726807,-0.0024414061999999998,0.018371582,3.6946564,89.41984599999999,-62.32824300000001,2019-09-07 15:34:04,0.0
1354.0,-0.15985107,0.0075683593999999995,0.020202637,3.9160306000000005,53.59542,-46.618320000000004,2019-09-07 15:34:04,0.0
1355.0,-0.15563965,0.003112793,0.014282227,15.511451000000001,40.335876,-31.473282,2019-09-07 15:34:04,0.0
1356.0,-0.16314697,0.019348145,0.0010986328,-2.8091602000000004,26.229008,-11.511451,2019-09-07 15:34:04,0.0
1357.0,-0.19854736,0.008728027,0.021728516,-41.694656,2.0,7.885496000000001,2019-09-07 15:34:04,0.0
1358.0,-0.16040039,0.004760742,0.006958008000000001,-42.946564,-35.396946,37.702290000000005,2019-09-07 15:34:04,0.0
1359.0,-0.15332031,-0.0020751953,0.0078125,-34.17557,-62.083969999999994,63.87786,2019-09-07 15:34:04,0.0
1360.0,-0.13720703,-0.0009765625,-0.0005493164,-43.114502,-84.175575,84.16794,2019-09-07 15:34:04,0.0
1361.0,-0.15631104,0.00592041,-0.006164551,-46.160305,-91.175575,95.778625,2019-09-07 15:34:04,0.0
1362.0,-0.17034912,0.007507324,-0.019592285,-76.53435,-127.74808999999999,106.24428,2019-09-07 15:34:04,0.0
1363.0,-0.15783691,0.004638672,-0.01751709,-93.16794,-155.32825,115.183205,2019-09-07 15:34:04,0.0
1364.0,-0.14263916,-0.002746582,-0.016540527,-107.98473,-163.87787,120.778625,2019-09-07 15:34:04,0.0
1365.0,-0.14855957,-0.007751465,-0.010375977,-111.08397,-156.19083999999998,122.83206000000001,2019-09-07 15:34:04,0.0
1366.0,-0.13879395,-0.01751709,-0.010437011999999999,-96.29771,-143.77100000000002,127.16793999999999,2019-09-07 15:34:04,0.0
1367.0,-0.13415527,-0.0154418945,-0.0028686523,-58.679390000000005,-120.381676,129.51144,2019-09-07 15:34:04,0.0
1368.0,-0.13122559,-0.010192871,-0.0045166016,-28.08397,-105.66412,127.80916,2019-09-07 15:34:04,0.0
1369.0,-0.13348389,-0.00018310547,-0.0048217773,-18.984734,-88.21374,118.34351000000001,2019-09-07 15:34:04,0.0
1370.0,-0.12762451,-0.014465332,-0.013000488000000001,-25.740458,-82.87023,108.56488999999999,2019-09-07 15:34:04,0.0
1371.0,-0.11199951,-0.027038574,-0.01763916,-3.3206108,-83.64121999999999,94.183205,2019-09-07 15:34:04,0.0
1372.0,-0.09478760000000001,-0.022766112999999998,-0.016479492,15.770992000000001,-65.21374,74.56489,2019-09-07 15:34:04,0.0
1373.0,-0.10229492,-0.020935059,-0.016906738,26.167938,-41.793890000000005,49.55725,2019-09-07 15:34:04,0.0
1374.0,-0.11358642599999999,-0.01586914,-0.011291503999999999,38.85496,-22.122137,13.984732999999999,2019-09-07 15:34:04,0.0
1375.0,-0.10455322,-0.004028320300000001,0.0061035156000000005,26.732824,-0.053435113,-15.358779,2019-09-07 15:34:05,0.0
1376.0,-0.11108398400000001,-0.0034790040000000004,0.008361816,12.824428,34.160305,-45.16794,2019-09-07 15:34:05,0.0
1377.0,-0.13452148,-0.0025634766,-0.0038452148,0.41984734,76.32061,-81.28244000000001,2019-09-07 15:34:05,0.0
1378.0,-0.1381836,0.010253906,0.0134887695,-34.206109999999995,81.38931,-99.47328,2019-09-07 15:34:05,0.0
1379.0,-0.13989258,-0.008239746,0.010681152,-50.595420000000004,123.69466000000001,-122.33588,2019-09-07 15:34:05,0.0
1380.0,-0.15502929999999998,-0.0075683593999999995,0.0138549805,-37.923664,137.74046,-131.12213,2019-09-07 15:34:05,0.0
1381.0,-0.14910889,-0.011779785,0.005737304699999999,-23.198473,149.93893,-132.45801,2019-09-07 15:34:05,0.0
1382.0,-0.15948486,-0.025878906,-0.004211426,2.29771,149.33588,-125.16793999999999,2019-09-07 15:34:05,0.0
1383.0,-0.16027832,-0.018920898000000002,-0.006164551,53.908398,126.85496499999999,-103.58015400000001,2019-09-07 15:34:05,0.0
1384.0,-0.14447021,-0.010986328,-0.00048828125,80.39695,107.29771000000001,-87.816795,2019-09-07 15:34:05,0.0
1385.0,-0.1350708,-0.007019043000000001,-0.0013427734,103.41984599999999,99.44275,-73.31298000000001,2019-09-07 15:34:05,0.0
1386.0,-0.13623047,-0.004028320300000001,0.002380371,119.51145,91.79389,-66.21374,2019-09-07 15:34:05,0.0
1387.0,-0.1338501,0.00970459,0.013427733999999998,103.229004,81.31298000000001,-68.87786,2019-09-07 15:34:05,0.0
1388.0,-0.14459229,0.010498047,0.01739502,66.091606,83.31298000000001,-76.84733,2019-09-07 15:34:05,0.0
1389.0,-0.14331055,0.02130127,0.020080566,33.17557,79.03053,-86.32825,2019-09-07 15:34:05,0.0
1390.0,-0.14367676,0.010803223,0.01940918,1.4961832,70.73283,-89.87786,2019-09-07 15:34:05,0.0
1391.0,-0.13134766,0.009521484,0.022705077999999997,-20.305344,69.35114,-86.61069,2019-09-07 15:34:05,0.0
1392.0,-0.119140625,-0.006164551,0.028503418,-7.7557254,63.44275,-75.938934,2019-09-07 15:34:05,0.0
1393.0,-0.1282959,-0.0005493164,0.018432617,5.0458016,76.9542,-67.53435,2019-09-07 15:34:05,0.0
1394.0,-0.16253662,0.0038452148,0.025024414,9.328244,61.587788,-54.702290000000005,2019-09-07 15:34:05,0.0
1395.0,-0.16235352,0.015625,0.015075683999999999,4.8702292,29.862595000000002,-33.549618,2019-09-07 15:34:05,0.0
1396.0,-0.16040039,0.018615723,0.015075683999999999,-8.839694999999999,12.702291,-13.877863,2019-09-07 15:34:05,0.0
1397.0,-0.17846679999999998,0.013427733999999998,0.014099121000000001,-31.755726,7.396946400000001,6.6183205,2019-09-07 15:34:05,0.0
1398.0,-0.17266846,0.006652831999999999,0.009399414,-40.793890000000005,-39.160305,35.412212,2019-09-07 15:34:05,0.0
1399.0,-0.14746094,0.0014038085999999999,0.009216309,-34.85496,-69.99235999999999,60.267174,2019-09-07 15:34:05,0.0
1400.0,-0.1395874,-0.0034179688000000002,0.0045776367,-32.46565,-70.62595,77.25191,2019-09-07 15:34:05,0.0
1401.0,-0.16333008,0.00592041,-0.0020751953,-42.290077000000004,-92.25191,90.01527,2019-09-07 15:34:05,0.0
1402.0,-0.16320801,0.0049438477,-0.013793945,-64.9542,-118.41984599999999,101.73283,2019-09-07 15:34:05,0.0
1403.0,-0.16662598,0.004760742,-0.016235351999999998,-81.74045600000001,-143.68703,113.0458,2019-09-07 15:34:05,0.0
1404.0,-0.16394043,0.0037231445,-0.013916016000000002,-93.80915999999999,-163.6565,123.30533999999999,2019-09-07 15:34:05,0.0
1405.0,-0.14251709,-0.002319336,-0.019592285,-96.21374,-156.68703,130.2519,2019-09-07 15:34:05,0.0
1406.0,-0.13964844,-0.012207031,-0.019714355,-90.84733,-148.39694,133.47328000000002,2019-09-07 15:34:05,0.0
1407.0,-0.13653564,-0.005554199,-0.006164551,-61.17556999999999,-135.35115,137.85497,2019-09-07 15:34:05,0.0
1408.0,-0.13378906,-0.00970459,-0.0056152343999999995,-38.44275,-114.12213999999999,137.12213,2019-09-07 15:34:05,0.0
1409.0,-0.12487793,0.0036010741999999997,-0.006958008000000001,-22.167938,-94.66412,128.1145,2019-09-07 15:34:05,0.0
1410.0,-0.12976074,0.0053710938,-0.0009765625,-21.992367,-81.40458000000001,115.9771,2019-09-07 15:34:05,0.0
1411.0,-0.119018555,-0.011169433999999999,-0.010925293,-40.633587,-79.21374,103.33588,2019-09-07 15:34:06,0.0
1412.0,-0.10504150400000001,-0.025268555,-0.012023926,-36.137405,-72.69466,87.48092,2019-09-07 15:34:06,0.0
1413.0,-0.08953857400000001,-0.03125,-0.018981934,-13.427481,-54.190838,71.458015,2019-09-07 15:34:06,0.0
1414.0,-0.10253906,-0.02545166,-0.007873535,12.419847500000001,-25.08397,42.85496,2019-09-07 15:34:06,0.0
1415.0,-0.107543945,-0.01159668,0.0061035156000000005,21.015266,-11.854961,13.389313000000001,2019-09-07 15:34:06,0.0
1416.0,-0.11010742,-0.0022583008,0.011108398,13.725191,21.503817,-21.89313,2019-09-07 15:34:06,0.0
1417.0,-0.12982178,-0.0016479492000000002,-0.0012207030999999999,11.625955000000001,60.679390000000005,-62.129771999999996,2019-09-07 15:34:06,0.0
1418.0,-0.13616943,-0.0026855469,0.020202637,-8.648855000000001,81.458015,-93.1145,2019-09-07 15:34:06,0.0
1419.0,-0.13360596,-0.010437011999999999,0.009277344,-32.87786,124.35113999999999,-116.56488999999999,2019-09-07 15:34:06,0.0
1420.0,-0.1461792,-0.014404297,0.019104003999999997,-19.374046,138.99237,-136.40458999999998,2019-09-07 15:34:06,0.0
1421.0,-0.14025879,-0.009460449000000001,0.0068359375,9.564885,157.99237,-140.98473,2019-09-07 15:34:06,0.0
1422.0,-0.15063477,-0.010253906,-0.0034790040000000004,22.458015,167.00763,-141.54199,2019-09-07 15:34:06,0.0
1423.0,-0.17810059,-0.018249512,-0.008605957,52.48855,158.36641,-129.70228999999998,2019-09-07 15:34:06,0.0
1424.0,-0.16363525,-0.008483886999999999,-0.0012207030999999999,61.38168,122.03817,-107.49618500000001,2019-09-07 15:34:06,0.0
1425.0,-0.12915039,-0.010314941,0.006591797,52.16794,99.10687,-86.57252,2019-09-07 15:34:06,0.0
1426.0,-0.12786865,-0.011169433999999999,-0.0041503906,66.03053,99.99235999999999,-69.52672,2019-09-07 15:34:06,0.0
1427.0,-0.12414551,-0.0045166016,0.00091552734,65.25954399999999,93.618324,-57.687022999999996,2019-09-07 15:34:06,0.0
1428.0,-0.14282227,-0.0018310547,-0.0018920898,70.26717,79.60305,-50.129771999999996,2019-09-07 15:34:06,0.0
1429.0,-0.14147949,0.007690429699999999,0.0045166016,64.76335999999999,75.15267,-58.50382,2019-09-07 15:34:06,0.0
1430.0,-0.14910889,0.012878418,0.0134887695,36.908398,72.39695,-67.854965,2019-09-07 15:34:06,0.0
1431.0,-0.13781738,0.011962891000000002,0.022888184,22.48855,55.76336,-73.83969,2019-09-07 15:34:06,0.0
1432.0,-0.12109375,0.011779785,0.01763916,19.274809,65.0687,-78.824425,2019-09-07 15:34:06,0.0
1433.0,-0.12689209,0.010192871,0.0126953125,20.503817,76.45038000000001,-79.45038000000001,2019-09-07 15:34:06,0.0
1434.0,-0.14569092,0.018554688,0.015991211,13.351145,79.68701999999999,-76.29771,2019-09-07 15:34:06,0.0
1435.0,-0.15759277,0.008666992,0.0031738281,10.587786999999999,60.32824300000001,-60.992367,2019-09-07 15:34:06,0.0
1436.0,-0.16571045,0.0178833,0.009460449000000001,13.496182999999998,50.587788,-43.679390000000005,2019-09-07 15:34:06,0.0
1437.0,-0.16729736,0.018920898000000002,0.0065307617,-18.38168,30.312977000000004,-16.290077,2019-09-07 15:34:06,0.0
1438.0,-0.18035889,0.021240234,0.0045166016,-43.419846,3.4351146,13.923664000000002,2019-09-07 15:34:06,0.0
1439.0,-0.15270996,-0.0068969727,0.008117675999999999,-37.839695,-57.44275,56.076336,2019-09-07 15:34:06,0.0
1440.0,-0.1281128,-0.0031738281,-0.006652831999999999,-18.458015,-48.839695,80.23664000000001,2019-09-07 15:34:06,0.0
1441.0,-0.15240479,0.0045776367,-0.0068359375,-22.633587,-58.343509999999995,101.47328,2019-09-07 15:34:06,0.0
1442.0,-0.17352295,-0.00091552734,-0.018310547,-23.755726,-104.48092,119.229004,2019-09-07 15:34:06,0.0
1443.0,-0.16583252,0.0064697266000000005,-0.018554688,-32.290077000000004,-144.06107,134.60306,2019-09-07 15:34:06,0.0
1444.0,-0.14678955,0.004638672,-0.008911133,-51.427483,-159.77100000000002,145.61831999999998,2019-09-07 15:34:06,0.0
1445.0,-0.14892578,-0.0052490233999999995,-0.014709473,-74.16794,-164.51908999999998,147.67175,2019-09-07 15:34:06,0.0
1446.0,-0.14019775,-0.0017700195,-0.005126953,-79.26717,-163.0458,153.3435,2019-09-07 15:34:07,0.0
1447.0,-0.14526367,-0.005126953,-0.009521484,-83.45038000000001,-145.12978,153.45038,2019-09-07 15:34:07,0.0
1448.0,-0.13049316,-0.0073242188,-0.0014648438,-60.992367,-121.45801499999999,150.67175,2019-09-07 15:34:07,0.0
1449.0,-0.11553955,-0.001159668,-0.00390625,-50.06107,-99.59541999999999,138.66412,2019-09-07 15:34:07,0.0
1450.0,-0.10925293,-0.00030517577999999995,-0.0051879883,-49.458015,-75.900764,119.80153,2019-09-07 15:34:07,0.0
1451.0,-0.10723877,-0.0045776367,-0.00579834,-50.687022999999996,-61.64122,97.8855,2019-09-07 15:34:07,0.0
1452.0,-0.085876465,0.012573242,0.0017700195,-47.770992,-51.381679999999996,74.21374,2019-09-07 15:34:07,0.0
1453.0,-0.09197998,-0.0025634766,-0.008300781,-40.648853,-30.755726,45.793890000000005,2019-09-07 15:34:07,0.0
1454.0,-0.09979248,-0.0032348633000000003,-0.008361816,-24.854961,-8.145039,16.648854999999998,2019-09-07 15:34:07,0.0
1455.0,-0.11260986,0.006164551,-0.001953125,-18.351145000000002,11.206107000000001,-11.458015,2019-09-07 15:34:07,0.0
1456.0,-0.10583496,-0.005493164,-0.005004883,-16.954199,35.08397,-37.580154,2019-09-07 15:34:07,0.0
1457.0,-0.13879395,-0.003112793,-0.012756348,4.328244000000001,74.15267,-69.099236,2019-09-07 15:34:07,0.0
1458.0,-0.12921143,0.005554199,0.010803223,3.3664122000000005,79.778625,-86.19084000000001,2019-09-07 15:34:07,0.0
1459.0,-0.1552124,-0.0053100586,0.009399414,-6.2290077,134.22137,-116.221375,2019-09-07 15:34:07,0.0
1460.0,-0.15222168,-0.005432129,0.027526855,-27.496183000000002,135.12978,-131.23665,2019-09-07 15:34:07,0.0
1461.0,-0.1453247,-0.0045776367,0.01727295,-32.183205,146.72519,-133.73282,2019-09-07 15:34:07,0.0
1462.0,-0.14630127,-0.010864258,-0.00592041,-23.91603,128.6565,-121.900764,2019-09-07 15:34:07,0.0
1463.0,-0.15460205,-0.02142334,-0.007507324,10.916031,104.51908,-95.26717,2019-09-07 15:34:07,0.0
1464.0,-0.11889648400000001,-0.008850098,0.012512207,88.96183,58.061069999999994,-32.801525,2019-09-07 15:34:07,0.0
1465.0,-0.11486816400000001,0.0026245116999999997,0.009094238000000001,87.53435,53.83969499999999,-33.93893,2019-09-07 15:34:07,0.0
1466.0,-0.12908936,0.0031738281,0.0018920898,80.42748,47.053436,-38.541985,2019-09-07 15:34:07,0.0
1467.0,-0.1307373,0.009643555,0.00982666,55.267174,49.412212,-50.48855,2019-09-07 15:34:07,0.0
1468.0,-0.13775635,0.017700195,0.0119018555,26.221375,47.404579999999996,-61.435116,2019-09-07 15:34:07,0.0
1469.0,-0.11956787,0.010131836,0.01574707,11.358779,46.419846,-68.21374,2019-09-07 15:34:07,0.0
1470.0,-0.11761474599999999,0.0041503906,0.014404297,1.3129771000000001,61.916030000000006,-71.44275,2019-09-07 15:34:07,0.0
1471.0,-0.12664795,0.0045166016,0.010314941,-0.48854962,77.59541999999999,-69.72519,2019-09-07 15:34:07,0.0
1472.0,-0.14111328,0.0028686523,0.005981445300000001,8.80916,75.0458,-64.824425,2019-09-07 15:34:07,0.0
1473.0,-0.15045166,0.00793457,0.0068969727,6.4961834000000005,67.496185,-51.862595,2019-09-07 15:34:07,0.0
1474.0,-0.1586914,0.0134887695,-0.0013427734,3.8549618999999997,57.419846,-35.984734,2019-09-07 15:34:07,0.0
1475.0,-0.19195557,0.0034179688000000002,0.014709473,-14.908397,52.328243,-22.274809,2019-09-07 15:34:07,0.0
1476.0,-0.17572021,0.00592041,0.010314941,-25.847328,12.534351,4.816794,2019-09-07 15:34:07,0.0
1477.0,-0.16210938,-0.0034179688000000002,0.0063476562,-18.778625,-13.045800999999999,30.229008,2019-09-07 15:34:07,0.0
1478.0,-0.14501953,-0.00012207031000000001,-0.0045776367,-19.732824,-39.46565,52.44275,2019-09-07 15:34:07,0.0
1479.0,-0.1539917,0.0012817383,-0.005493164,-25.564885999999998,-55.679390000000005,69.64886,2019-09-07 15:34:07,0.0
1480.0,-0.14929199,0.00024414062000000002,-0.008666992,-37.351147,-96.62595,88.59541999999999,2019-09-07 15:34:08,0.0
1481.0,-0.13336182,0.005126953,-0.0014038085999999999,-71.67939,-116.900764,97.938934,2019-09-07 15:34:08,0.0
1482.0,-0.12561035,-0.008972168,-0.010681152,-94.67175,-133.85497,107.69466000000001,2019-09-07 15:34:08,0.0
1483.0,-0.1293335,-0.011474608999999998,-0.012817383,-92.46565,-148.03053,113.32825,2019-09-07 15:34:08,0.0
1484.0,-0.115722656,-0.019165039,-0.0028076171999999997,-68.87786,-149.15266,115.72519,2019-09-07 15:34:08,0.0
1485.0,-0.111328125,-0.012268066000000001,0.0068969727,-11.183207000000001,-115.03053,114.40458000000001,2019-09-07 15:34:08,0.0
1486.0,-0.1161499,-0.0068969727,0.0029907227,-2.1374047000000003,-102.41221999999999,115.21373999999999,2019-09-07 15:34:08,0.0
1487.0,-0.11340332,-0.002380371,0.0044555664,2.8625952999999997,-77.99235999999999,100.1145,2019-09-07 15:34:08,0.0
1488.0,-0.10589599599999999,0.009399414,-6.1035155999999994e-05,4.5648856,-62.81679499999999,79.51145,2019-09-07 15:34:08,0.0
1489.0,-0.10894775400000001,0.009399414,-0.00042724610000000003,-9.335877,-52.351147,60.62595400000001,2019-09-07 15:34:08,0.0
1490.0,-0.11376953,0.0044555664,-0.0078125,-30.122137,-40.129771999999996,39.946564,2019-09-07 15:34:08,0.0
1491.0,-0.1161499,-0.009277344,-0.015991211,-18.549618,-23.305344,12.893129,2019-09-07 15:34:08,0.0
1492.0,-0.12261963,6.1035155999999994e-05,-0.005981445300000001,-5.633588,-14.702291,-8.916031,2019-09-07 15:34:08,0.0
1493.0,-0.10766601599999999,-0.0038452148,-0.0087890625,12.282442999999999,2.3282442000000003,-26.038168,2019-09-07 15:34:08,0.0
1494.0,-0.12182617,0.0016479492000000002,-0.008422852,30.358778000000004,37.045803,-44.931297,2019-09-07 15:34:08,0.0
1495.0,-0.14825439999999998,0.0043945312,-0.005859375,44.503820000000005,60.53435,-67.92367,2019-09-07 15:34:08,0.0
1496.0,-0.15722656,0.0015869141,0.0067749023,12.206107000000001,90.51908,-92.16031,2019-09-07 15:34:08,0.0
1497.0,-0.14746094,0.01574707,0.028686523,-17.564885999999998,115.28244,-107.137405,2019-09-07 15:34:08,0.0
1498.0,-0.13189697,0.007080078,0.03387451,-49.358779999999996,137.30534,-110.862595,2019-09-07 15:34:08,0.0
1499.0,-0.13299560000000002,6.1035155999999994e-05,0.0,-59.541985,135.29771000000002,-101.48855,2019-09-07 15:34:08,0.0
1500.0,-0.14355469,-0.008239746,-0.0075683593999999995,-61.480915,108.44275,-76.221375,2019-09-07 15:34:08,0.0
1501.0,-0.1270752,-0.026550293,-0.0075683593999999995,-44.297709999999995,70.12214,-50.725190000000005,2019-09-07 15:34:08,0.0
1502.0,-0.12121582,-0.028503418,-0.0016479492000000002,-18.244274,60.198475,-33.870228000000004,2019-09-07 15:34:08,0.0
1503.0,-0.11785889,-0.017211914,0.0012207030999999999,17.244274,45.78626,-23.816793,2019-09-07 15:34:08,0.0
1504.0,-0.11480713,-0.013244628999999999,0.0012207030999999999,49.816795,37.12214,-17.351145000000002,2019-09-07 15:34:08,0.0
1505.0,-0.11401367,0.0049438477,0.0067749023,66.618324,32.015266,-18.419847,2019-09-07 15:34:08,0.0
1506.0,-0.12670898,0.0029907227,0.013122558999999999,78.541985,30.458015000000003,-27.633587,2019-09-07 15:34:08,0.0
1507.0,-0.13244629,0.019042969,0.020385742,48.068703,40.15267,-38.435116,2019-09-07 15:34:08,0.0
1508.0,-0.1293335,0.012329102,0.021362305,9.282442999999999,36.14504,-45.343509999999995,2019-09-07 15:34:08,0.0
1509.0,-0.11071777,0.0020141601999999997,0.023620605,-5.1297708,41.396946,-49.85496,2019-09-07 15:34:08,0.0
1510.0,-0.11682129,0.009643555,0.017456055,-18.648854999999998,53.61832,-48.908398,2019-09-07 15:34:08,0.0
1511.0,-0.137146,0.00024414062000000002,0.009643555,-17.93893,71.67175,-47.44275,2019-09-07 15:34:08,0.0
1512.0,-0.15618896,0.002380371,-0.002380371,-18.503817,50.44275,-35.068703,2019-09-07 15:34:08,0.0
1513.0,-0.15686035,-0.0032348633000000003,-0.0025024414000000004,-8.137404,32.251907,-19.022902,2019-09-07 15:34:08,0.0
1514.0,-0.1585083,0.0007324219,-0.005004883,3.870229,25.045801,0.34351146,2019-09-07 15:34:08,0.0
1515.0,-0.18560791,-0.001953125,0.0025634766,5.2442746,-1.7251908999999999,19.503817,2019-09-07 15:34:08,0.0
1516.0,-0.15020752,-0.011047363000000001,0.0032348633000000003,-0.16030534,-27.557251,40.343509999999995,2019-09-07 15:34:09,0.0
1517.0,-0.14660645,-0.0032958984000000004,0.011413574,2.3435113,-32.801525,50.374046,2019-09-07 15:34:09,0.0
1518.0,-0.15234375,0.0031738281,-0.0017089844000000001,-17.923664000000002,-47.664124,54.435116,2019-09-07 15:34:09,0.0
1519.0,-0.15618896,0.008728027,-0.0075683593999999995,-44.755726,-68.45038000000001,58.923664,2019-09-07 15:34:09,0.0
1520.0,-0.14312744,0.005493164,-0.008239746,-66.63359,-93.74809,59.564884,2019-09-07 15:34:09,0.0
1521.0,-0.13287354,-0.0021972656,-0.0075683593999999995,-82.57252,-106.25191000000001,61.541985,2019-09-07 15:34:09,0.0
1522.0,-0.11566162,-0.01361084,-0.0045776367,-77.91603,-109.64886000000001,68.66412,2019-09-07 15:34:09,0.0
1523.0,-0.10278319999999999,-0.019165039,-0.0029907227,-41.610687,-98.73283,74.35114,2019-09-07 15:34:09,0.0
1524.0,-0.10180664,-0.0028686523,-0.001159668,2.610687,-79.80153,81.47328,2019-09-07 15:34:09,0.0
1525.0,-0.115112305,-0.0064086914,0.0020141601999999997,25.824427,-69.83969,86.9313,2019-09-07 15:34:09,0.0
1526.0,-0.09838867,0.0014038085999999999,-0.004272461,30.80916,-60.9771,84.27481,2019-09-07 15:34:09,0.0
1527.0,-0.10467529,0.0068359375,-0.00579834,14.549619,-46.282444,69.79389,2019-09-07 15:34:09,0.0
1528.0,-0.1015625,0.0065307617,-0.0012817383,-6.862595599999999,-40.496179999999995,52.076336,2019-09-07 15:34:09,0.0
1529.0,-0.10021973,0.0087890625,0.0034790040000000004,-30.57252,-33.748093,31.67939,2019-09-07 15:34:09,0.0
1530.0,-0.09564209,0.0030517578000000003,-0.006958008000000001,-37.08397,-17.625954,12.587786999999999,2019-09-07 15:34:09,0.0
1531.0,-0.11529541,0.0018920898,-0.0028076171999999997,-33.16794,8.473283,-10.557252,2019-09-07 15:34:09,0.0
1532.0,-0.13970947,-0.005004883,-0.006591797,-17.007633,15.59542,-32.954197,2019-09-07 15:34:09,0.0
1533.0,-0.12609863,-0.0053100586,0.0022583008,-8.389313000000001,32.0,-45.381679999999996,2019-09-07 15:34:09,0.0
1534.0,-0.12768555,-0.0015258789000000001,-0.0040893555,17.458015,56.587788,-60.198475,2019-09-07 15:34:09,0.0
1535.0,-0.15820312,0.006713866999999999,-0.0052490233999999995,25.832062,82.0,-72.58015400000001,2019-09-07 15:34:09,0.0
1536.0,-0.13952637,-0.0032958984000000004,0.010253906,3.4885497,74.908394,-75.862595,2019-09-07 15:34:09,0.0
1537.0,-0.14520264,0.002319336,0.019042969,-5.9007635,108.49618500000001,-90.137405,2019-09-07 15:34:09,0.0
1538.0,-0.14099121,0.004638672,0.015563965,-14.969465,102.62595,-89.57252,2019-09-07 15:34:09,0.0
1539.0,-0.13586426,0.009765625,0.0038452148,-29.374046000000003,107.183205,-84.75572,2019-09-07 15:34:09,0.0
1540.0,-0.15252686,-0.005004883,-0.0030517578000000003,-39.229008,90.12214,-70.8855,2019-09-07 15:34:09,0.0
1541.0,-0.13232422,-0.015991211,0.0021362305,-30.633587,43.076336,-38.282444,2019-09-07 15:34:09,0.0
1542.0,-0.10296631,-0.026611327999999997,-0.0010375977,33.549618,16.603054,6.603053599999999,2019-09-07 15:34:09,0.0
1543.0,-0.10278319999999999,-0.017578125,0.005981445300000001,51.572517,15.709923999999999,16.656488,2019-09-07 15:34:09,0.0
1544.0,-0.10736084,-0.00579834,0.007690429699999999,74.74809,6.847328,19.198473,2019-09-07 15:34:09,0.0
1545.0,-0.11804199,0.0068359375,0.014160156,73.778625,-0.007633588,10.122137,2019-09-07 15:34:09,0.0
1546.0,-0.12023926,0.012451172,0.011413574,56.603054,5.633588,-4.10687,2019-09-07 15:34:09,0.0
1547.0,-0.1281128,0.008972168,0.01574707,27.977097999999998,7.221374000000001,-18.778625,2019-09-07 15:34:09,0.0
1548.0,-0.10485839999999998,0.004211426,0.019226074,11.938931,2.5954200000000003,-27.473282,2019-09-07 15:34:09,0.0
1549.0,-0.10443115,0.009216309,0.018249512,-1.1832061000000003,25.641222,-35.183205,2019-09-07 15:34:09,0.0
1550.0,-0.12042236,0.004028320300000001,0.007019043000000001,-8.984733,46.89313,-40.320609999999995,2019-09-07 15:34:09,0.0
1551.0,-0.14141846,0.002746582,0.008728027,-7.0229006,46.312977000000004,-40.16794,2019-09-07 15:34:10,0.0
1552.0,-0.14483643,0.00030517577999999995,0.0029907227,-5.114504,42.694656,-37.389313,2019-09-07 15:34:10,0.0
1553.0,-0.15991211,0.003112793,-0.001159668,-2.8473282,39.725190000000005,-32.290077000000004,2019-09-07 15:34:10,0.0
1554.0,-0.18377686,0.0048828125,0.0032348633000000003,-8.603053,39.48855,-26.732824,2019-09-07 15:34:10,0.0
1555.0,-0.16601562,0.0006103515599999999,0.0053100586,-11.305344,3.351145,-9.839694999999999,2019-09-07 15:34:10,0.0
1556.0,-0.15063477,-0.00024414062000000002,0.00390625,-7.0458016,-10.847328,3.3282442000000003,2019-09-07 15:34:10,0.0
1557.0,-0.1437378,0.0045776367,-0.008361816,-17.175573,-15.236641,17.946566,2019-09-07 15:34:10,0.0
1558.0,-0.15582275,0.0025634766,-0.01171875,-24.862595000000002,-40.51145,29.458015000000003,2019-09-07 15:34:10,0.0
1559.0,-0.13934326,0.005493164,-0.014465332,-41.671757,-69.07633,43.427483,2019-09-07 15:34:10,0.0
1560.0,-0.12384033,0.007873535,-0.0087890625,-43.641220000000004,-86.91603,55.12214,2019-09-07 15:34:10,0.0
1561.0,-0.10308838,-0.007019043000000001,-0.0030517578000000003,-41.12214,-94.52672,69.900764,2019-09-07 15:34:10,0.0
1562.0,-0.09906006,-0.0006103515599999999,-0.0052490233999999995,-21.458015,-78.66412,77.38931,2019-09-07 15:34:10,0.0
1563.0,-0.09820557,-0.004760742,-0.0044555664,-4.946564700000001,-73.33588,85.221375,2019-09-07 15:34:10,0.0
1564.0,-0.10308838,0.00024414062000000002,0.0020751953,15.427481,-62.25954,91.55725,2019-09-07 15:34:10,0.0
1565.0,-0.10192871,0.0038452148,0.0026245116999999997,17.824427,-51.931297,83.80915999999999,2019-09-07 15:34:10,0.0
1566.0,-0.10284424,0.0056152343999999995,-0.005004883,-0.9847328000000002,-37.076336,68.63359,2019-09-07 15:34:10,0.0
1567.0,-0.11254883,0.009643555,0.0032958984000000004,-19.862595000000002,-28.404581,45.687022999999996,2019-09-07 15:34:10,0.0
1568.0,-0.10864258,0.0022583008,0.0028686523,-33.923664,-21.801527,27.786259,2019-09-07 15:34:10,0.0
1569.0,-0.11010742,0.0049438477,-0.0022583008,-34.610687,-6.2290077,6.5648856,2019-09-07 15:34:10,0.0
1570.0,-0.12506104,-0.011291503999999999,-0.0079956055,-32.954197,12.282442999999999,-13.832060999999998,2019-09-07 15:34:10,0.0
1571.0,-0.14141846,-0.010314941,-0.002319336,-18.389313,14.80916,-26.80916,2019-09-07 15:34:10,0.0
1572.0,-0.13293457,-0.0030517578000000003,-0.0021362305,3.6717557999999997,18.503817,-33.76336,2019-09-07 15:34:10,0.0
1573.0,-0.1437378,-0.006164551,-0.013183594,20.61832,47.89313,-47.694656,2019-09-07 15:34:10,0.0
1574.0,-0.17047119,0.0007324219,0.0025024414000000004,21.12977,48.793890000000005,-52.610687,2019-09-07 15:34:10,0.0
1575.0,-0.15686035,-0.0034179688000000002,0.01776123,2.6030533,66.12977,-58.923664,2019-09-07 15:34:10,0.0
1576.0,-0.14135742,-0.0018310547,0.02355957,-11.7786255,76.19084000000001,-63.343509999999995,2019-09-07 15:34:10,0.0
1577.0,-0.11956787,0.0053100586,0.026123047000000003,-8.549619,65.0229,-56.16794,2019-09-07 15:34:10,0.0
1578.0,-0.121276855,-0.0006713867,-0.0012207030999999999,-6.0229006,89.78626,-54.908398,2019-09-07 15:34:10,0.0
1579.0,-0.15338135,-0.009338379,-0.0015869141,-18.664122,57.35878,-38.931297,2019-09-07 15:34:10,0.0
1580.0,-0.12121582,-0.011047363000000001,0.00390625,-21.351145000000002,7.3664119999999995,-16.442749,2019-09-07 15:34:10,0.0
1581.0,-0.10284424,-0.019226074,-0.001159668,6.068702,5.9541984,-0.8244275,2019-09-07 15:34:10,0.0
1582.0,-0.09716797,-0.012512207,6.1035155999999994e-05,33.83206,5.7709923,0.34351146,2019-09-07 15:34:10,0.0
1583.0,-0.10516357400000001,-0.011047363000000001,0.0048217773,52.12214,-1.7862595000000001,3.832061,2019-09-07 15:34:11,0.0
1584.0,-0.10186767599999999,-0.00018310547,0.0068359375,57.71755600000001,0.77099234,-1.6030535,2019-09-07 15:34:11,0.0
1585.0,-0.12310791,0.008911133,0.005737304699999999,66.938934,9.267176,-14.312976999999998,2019-09-07 15:34:11,0.0
1586.0,-0.12915039,0.014099121000000001,0.01739502,53.35878,19.38168,-32.030533,2019-09-07 15:34:11,0.0
1587.0,-0.12139892599999999,0.025756836,0.02368164,3.4580152,21.519083,-46.78626,2019-09-07 15:34:11,0.0
1588.0,-0.10113525400000001,0.010559082,0.015991211,-10.198473,36.82443,-55.450382,2019-09-07 15:34:11,0.0
1589.0,-0.10699463,0.0119018555,0.01586914,-23.404581,61.564884,-58.297709999999995,2019-09-07 15:34:11,0.0
1590.0,-0.13000488,0.0045776367,0.0075683593999999995,-38.267174,82.16031,-61.290077000000004,2019-09-07 15:34:11,0.0
1591.0,-0.14849854,0.0009765625,0.0012817383,-42.954197,69.66412,-53.580154,2019-09-07 15:34:11,0.0
1592.0,-0.17163086,-0.004211426,-0.0032958984000000004,-31.587785999999998,61.48855,-45.458015,2019-09-07 15:34:11,0.0
1593.0,-0.19085693,-0.004699707,0.0018920898,-32.725190000000005,49.641220000000004,-34.007633,2019-09-07 15:34:11,0.0
1594.0,-0.18688965,-0.006042480500000001,0.0056152343999999995,-31.87023,22.885496,-14.740458499999999,2019-09-07 15:34:11,0.0
1595.0,-0.1552124,-0.0053100586,0.018554688,-19.38168,-21.396946,12.007633,2019-09-07 15:34:11,0.0
1596.0,-0.12725830000000002,-0.0017700195,0.0010986328,-28.366413,-7.656488400000001,30.70229,2019-09-07 15:34:11,0.0
1597.0,-0.16485596,-0.00390625,-0.012084961000000002,-33.496179999999995,-32.969467,39.770992,2019-09-07 15:34:11,0.0
1598.0,-0.15356445,-0.0045776367,-0.014343261999999999,-37.687022999999996,-82.32061,55.62595400000001,2019-09-07 15:34:11,0.0
1599.0,-0.13494873,-0.010009766,-0.0022583008,-59.343509999999995,-107.183205,66.824425,2019-09-07 15:34:11,0.0
1600.0,-0.11639404,-0.016174316,-0.0048217773,-53.343509999999995,-123.19847,78.41984599999999,2019-09-07 15:34:11,0.0
1601.0,-0.09954834,-0.016784668,-0.007751465,-12.244275,-114.08397,82.0229,2019-09-07 15:34:11,0.0
1602.0,-0.09301758,-0.015136719,6.1035155999999994e-05,15.633588,-107.32825,87.05344000000001,2019-09-07 15:34:11,0.0
1603.0,-0.09033203,-0.0028076171999999997,0.0036621094,38.381679999999996,-85.42748,89.46565,2019-09-07 15:34:11,0.0
1604.0,-0.08935547,0.0072631836,0.010559082,47.404579999999996,-67.51908,79.816795,2019-09-07 15:34:11,0.0
1605.0,-0.10369873,0.014160156,0.010253906,23.801527,-45.541985,63.946564,2019-09-07 15:34:11,0.0
1606.0,-0.1015625,0.016296387,0.0037231445,-10.396947,-25.404581,40.709922999999996,2019-09-07 15:34:11,0.0
1607.0,-0.09539795,0.016296387,0.0048217773,-39.572517,-17.022902,21.068703,2019-09-07 15:34:11,0.0
1608.0,-0.101623535,0.00012207031000000001,0.004028320300000001,-52.404579999999996,-0.9465648999999999,0.22900763,2019-09-07 15:34:11,0.0
1609.0,-0.11871338,-0.006591797,-0.0064086914,-54.610687,15.175572,-18.366413,2019-09-07 15:34:11,0.0
1610.0,-0.13891602,-0.0025634766,-0.007873535,-36.87786,24.923664000000002,-37.08397,2019-09-07 15:34:11,0.0
1611.0,-0.12939453,-0.0056152343999999995,0.0017700195,-18.93893,26.221375,-45.305344,2019-09-07 15:34:11,0.0
1612.0,-0.115112305,-0.0072021483999999995,-0.0018310547,4.6183205,46.519085,-52.61832,2019-09-07 15:34:11,0.0
1613.0,-0.1459961,-0.00018310547,-0.0087890625,30.786259,67.61069,-62.55725,2019-09-07 15:34:11,0.0
1614.0,-0.12634277,-0.003540039,0.006652831999999999,21.603054,51.954197,-53.809162,2019-09-07 15:34:11,0.0
1615.0,-0.159729,0.001159668,-0.00042724610000000003,22.931297,104.57252,-71.70992,2019-09-07 15:34:11,0.0
1616.0,-0.16296387,0.0007324219,0.023254395,-0.4427481,74.59541999999999,-63.938930000000006,2019-09-07 15:34:11,0.0
1617.0,-0.14013672,0.0013427734,0.0075683593999999995,-21.053434,87.58778000000001,-61.28244399999999,2019-09-07 15:34:11,0.0
1618.0,-0.15563965,0.0018920898,-0.0052490233999999995,-20.725191,72.58778000000001,-47.564884,2019-09-07 15:34:11,0.0
1619.0,-0.13574219,-0.013549805,0.00390625,-15.541985,35.656490000000005,-20.358778,2019-09-07 15:34:11,0.0
1620.0,-0.10491943,-0.019897461,0.0008544922000000001,-2.1374047000000003,16.954199,4.1297708,2019-09-07 15:34:11,0.0
1621.0,-0.096191406,-0.028320312,0.0020141601999999997,27.343512,16.847328,18.290077,2019-09-07 15:34:11,0.0
1622.0,-0.0960083,-0.020629883,0.002746582,53.099236,16.076335999999998,23.435114000000002,2019-09-07 15:34:12,0.0
1623.0,-0.10687256,-0.008422852,0.0068969727,65.52672,10.671756,16.931297,2019-09-07 15:34:12,0.0
1624.0,-0.11059569999999999,0.006591797,0.0016479492000000002,73.70992,6.259542,2.6030533,2019-09-07 15:34:12,0.0
1625.0,-0.11779785,0.012084961000000002,0.012023926,54.709922999999996,10.419847500000001,-18.770992,2019-09-07 15:34:12,0.0
1626.0,-0.11846924,0.017089844,0.022216797000000003,22.900763,5.671755999999999,-37.068703,2019-09-07 15:34:12,0.0
1627.0,-0.09954834,0.011291503999999999,0.020324707,3.9694656999999998,23.809160000000002,-51.969467,2019-09-07 15:34:12,0.0
1628.0,-0.10839844,0.003967285,0.023254395,-4.4198474999999995,46.992367,-61.435116,2019-09-07 15:34:12,0.0
1629.0,-0.12780762,0.010803223,0.010986328,-23.374046,71.68701999999999,-67.770996,2019-09-07 15:34:12,0.0
1630.0,-0.1453247,-0.0014038085999999999,0.0056152343999999995,-37.458015,73.47328,-71.36641,2019-09-07 15:34:12,0.0
1631.0,-0.16033936,-0.0018920898,0.0010375977,-36.541985,71.28244000000001,-68.07633,2019-09-07 15:34:12,0.0
1632.0,-0.19067383,-0.007690429699999999,-0.0045166016,-28.389313,75.36641,-63.572517000000005,2019-09-07 15:34:12,0.0
1633.0,-0.20227051,-0.00579834,-0.00018310547,-26.862595000000002,28.068703000000003,-42.633587,2019-09-07 15:34:12,0.0
1634.0,-0.18292236,-0.005981445300000001,0.0044555664,-0.5801527,-4.2061067,-13.877863,2019-09-07 15:34:12,0.0
1635.0,-0.14379883,-0.008178711,0.0028686523,3.0458016,-32.82443,19.908398000000002,2019-09-07 15:34:12,0.0
1636.0,-0.13250732,-0.009277344,-0.001953125,-7.923664,-43.099236,46.12214,2019-09-07 15:34:12,0.0
1637.0,-0.13848877,-0.006225586,-0.010681152,-4.0305343,-79.96183,71.37405,2019-09-07 15:34:12,0.0
1638.0,-0.12420654,-0.0036010741999999997,-0.011962891000000002,-13.931297,-104.70229,90.099236,2019-09-07 15:34:12,0.0
1639.0,-0.11389160000000002,-0.00024414062000000002,-0.012329102,-20.366413,-114.58778000000001,97.938934,2019-09-07 15:34:12,0.0
1640.0,-0.11053467,-0.005981445300000001,-0.008544922,-16.534351,-120.58015400000001,102.503815,2019-09-07 15:34:12,0.0
1641.0,-0.10913086,0.0007934570299999999,-0.00018310547,-15.496182999999998,-117.36641000000002,101.458015,2019-09-07 15:34:12,0.0
1642.0,-0.10766601599999999,-0.0028076171999999997,0.011413574,-3.9923663,-103.32825,95.503815,2019-09-07 15:34:12,0.0
1643.0,-0.10235596,0.003112793,0.00982666,1.4045801000000002,-77.25191,85.57252,2019-09-07 15:34:12,0.0
1644.0,-0.097595215,0.00982666,0.012145996000000001,-5.4274807,-45.9771,69.54961999999999,2019-09-07 15:34:12,0.0
1645.0,-0.10748291,0.007751465,0.0038452148,-16.358778,-22.030535,50.335876,2019-09-07 15:34:12,0.0
1646.0,-0.10748291,0.0049438477,0.005493164,-37.10687,-11.755725,29.74809,2019-09-07 15:34:12,0.0
1647.0,-0.10479736,0.00024414062000000002,-0.00042724610000000003,-39.984734,-3.0839694,13.923664000000002,2019-09-07 15:34:12,0.0
1648.0,-0.10327148400000001,0.0048828125,-0.006286621,-37.503820000000005,8.725191,-1.6183206,2019-09-07 15:34:12,0.0
1649.0,-0.11462402,-0.006042480500000001,-0.008911133,-25.526718,19.824427,-16.770992,2019-09-07 15:34:12,0.0
1650.0,-0.1352539,-0.0008544922000000001,-0.008422852,-13.374045,17.312977,-26.412214000000002,2019-09-07 15:34:12,0.0
1651.0,-0.12402344,-0.0061035156000000005,-0.0068359375,13.396947,23.412214000000002,-34.389313,2019-09-07 15:34:12,0.0
1652.0,-0.159729,0.0015258789000000001,-0.007507324,24.244274,58.16794,-48.244274,2019-09-07 15:34:12,0.0
1653.0,-0.17156982,0.005676269499999999,0.013427733999999998,7.9541984,61.190838,-54.77099200000001,2019-09-07 15:34:12,0.0
1654.0,-0.15814209,-0.0018310547,0.025756836,-17.030535,97.92367,-71.816795,2019-09-07 15:34:12,0.0
1655.0,-0.13446045,-0.0014038085999999999,0.03100586,-34.931297,101.05344000000001,-72.15267,2019-09-07 15:34:12,0.0
1656.0,-0.123046875,-0.010498047,0.012817383,-22.374046,96.900764,-65.24428,2019-09-07 15:34:12,0.0
1657.0,-0.13104248,-0.013793945,0.003967285,-27.80916,92.8855,-52.183205,2019-09-07 15:34:12,0.0
1658.0,-0.1439209,-0.031433105,-0.0036621094,-18.152672,46.404579999999996,-27.351145000000002,2019-09-07 15:34:13,0.0
1659.0,-0.13183594,-0.032043457000000004,-0.004333496,13.801526999999998,13.564885,-6.0839696,2019-09-07 15:34:13,0.0
1660.0,-0.11804199,-0.026855469,0.0068359375,57.251906999999996,2.038168,7.2748094,2019-09-07 15:34:13,0.0
1661.0,-0.11242676,-0.022277832,0.0053710938,80.58778000000001,-14.129771,13.541985,2019-09-07 15:34:13,0.0
1662.0,-0.11096191400000001,-0.015380858999999998,0.00579834,106.38931000000001,-20.877863,16.61832,2019-09-07 15:34:13,0.0
1663.0,-0.11553955,-0.007507324,0.010986328,107.43511000000001,-14.152672,7.8549619999999996,2019-09-07 15:34:13,0.0
1664.0,-0.110839844,-0.0013427734,0.01184082,92.23664000000001,-13.061069,-3.8396947,2019-09-07 15:34:13,0.0
1665.0,-0.11462402,0.0025634766,0.018310547,65.79389,-0.08396947,-21.595419,2019-09-07 15:34:13,0.0
1666.0,-0.11096191400000001,0.005432129,0.016296387,43.206109999999995,3.2519082999999998,-34.809162,2019-09-07 15:34:13,0.0
1667.0,-0.093688965,0.004028320300000001,0.019104003999999997,36.435116,19.557251,-44.83206,2019-09-07 15:34:13,0.0
1668.0,-0.10705566400000001,-0.0009765625,0.0048217773,24.221375,42.961834,-56.78626,2019-09-07 15:34:13,0.0
1669.0,-0.13513184,0.0014648438,0.004333496,20.366413,54.190838,-63.16794,2019-09-07 15:34:13,0.0
1670.0,-0.1439209,0.00018310547,0.006286621,21.496183,49.053436,-64.9542,2019-09-07 15:34:13,0.0
1671.0,-0.15979004,-0.0012207030999999999,0.0016479492000000002,31.045801,56.46565,-63.35878,2019-09-07 15:34:13,0.0
1672.0,-0.17700195,0.00390625,0.0026245116999999997,29.557251,61.068703,-60.389313,2019-09-07 15:34:13,0.0
1673.0,-0.16998291,0.0063476562,0.010437011999999999,7.183206,35.74046,-44.076336,2019-09-07 15:34:13,0.0
1674.0,-0.14587402,0.0075683593999999995,0.008239746,8.236641,29.854961,-30.557251,2019-09-07 15:34:13,0.0
1675.0,-0.14556885,0.012145996000000001,0.006286621,-16.305344,25.809160000000002,-18.923664000000002,2019-09-07 15:34:13,0.0
1676.0,-0.13745117,0.011962891000000002,0.010253906,-46.12214,9.290076,-3.870229,2019-09-07 15:34:13,0.0
1677.0,-0.13702393,0.005676269499999999,0.0048828125,-56.48855,-11.297709,12.80916,2019-09-07 15:34:13,0.0
1678.0,-0.13769531,0.008850098,-0.0036621094,-71.58778000000001,-32.496179999999995,28.931296999999997,2019-09-07 15:34:13,0.0
1679.0,-0.123535156,0.0010375977,0.00030517577999999995,-83.83206,-58.755726,43.541985,2019-09-07 15:34:13,0.0
1680.0,-0.100097656,-0.012207031,-0.0021362305,-74.40458000000001,-62.51145,55.778625,2019-09-07 15:34:13,0.0
1681.0,-0.113098145,-0.010314941,0.005859375,-55.061069999999994,-61.419846,65.1145,2019-09-07 15:34:13,0.0
1682.0,-0.10070801,-0.005676269499999999,0.009155273,-43.427483,-54.16030500000001,67.0458,2019-09-07 15:34:13,0.0
1683.0,-0.113220215,-0.0018310547,0.012084961000000002,-28.290077,-47.687022999999996,67.229004,2019-09-07 15:34:13,0.0
1684.0,-0.11541748,-0.0009765625,0.009399414,-32.992367,-40.641220000000004,63.580154,2019-09-07 15:34:13,0.0
1685.0,-0.11785889,0.006713866999999999,0.006713866999999999,-44.694656,-37.267174,51.572517,2019-09-07 15:34:13,0.0
1686.0,-0.11090088,0.0016479492000000002,0.003112793,-51.08397,-38.641220000000004,41.17557,2019-09-07 15:34:13,0.0
1687.0,-0.11560058599999999,-0.006713866999999999,-0.0028076171999999997,-50.870228000000004,-34.53435,35.137405,2019-09-07 15:34:13,0.0
1688.0,-0.12133789,-0.010559082,-0.0029296875,-34.709922999999996,-28.687022999999996,26.114504,2019-09-07 15:34:13,0.0
1689.0,-0.14196777,-0.009765625,-0.012512207,-16.671754999999997,-20.847328,17.12977,2019-09-07 15:34:13,0.0
1690.0,-0.14886475,-0.011352538999999998,-0.006225586,-2.7404580000000003,-35.358779999999996,17.541985,2019-09-07 15:34:13,0.0
1691.0,-0.12896729,-0.009765625,-0.0033569335999999996,15.305344,-20.717558,11.114504,2019-09-07 15:34:13,0.0
1692.0,-0.15222168,0.005554199,-0.009460449000000001,25.977098,3.8778627,-1.5954198999999998,2019-09-07 15:34:14,0.0
1693.0,-0.14111328,0.0065307617,0.0115356445,1.4732825,-2.832061,-8.404580000000001,2019-09-07 15:34:14,0.0
1694.0,-0.122558594,-0.0078125,0.01171875,4.3816795,35.496179999999995,-21.580153,2019-09-07 15:34:14,0.0
1695.0,-0.12145996,0.00592041,0.013671875,-0.015267176,35.717556,-26.549618,2019-09-07 15:34:14,0.0
1696.0,-0.119628906,-0.004211426,0.012451172,-4.587786,32.954197,-26.549618,2019-09-07 15:34:14,0.0
1697.0,-0.12097168,-0.0029907227,0.0007934570299999999,-0.8778626,36.038166,-23.137404999999998,2019-09-07 15:34:14,0.0
1698.0,-0.13464355,-0.011108398,-0.0025634766,13.641221,22.030535,-10.618319999999999,2019-09-07 15:34:14,0.0
1699.0,-0.11199951,-0.007385254,-0.002380371,17.053434,14.732823999999999,-4.9770994,2019-09-07 15:34:14,0.0
1700.0,-0.10894775400000001,-0.0107421875,0.009399414,25.458015,17.221375,-4.366412,2019-09-07 15:34:14,0.0
1701.0,-0.10961914,-0.0061035156000000005,0.008605957,45.549618,15.7786255,-9.839694999999999,2019-09-07 15:34:14,0.0
1702.0,-0.11236572,0.0045776367,0.008850098,35.320609999999995,27.732824,-21.557251,2019-09-07 15:34:14,0.0
1703.0,-0.11657715,-0.002746582,0.009094238000000001,29.984734000000003,36.755726,-35.251907,2019-09-07 15:34:14,0.0
1704.0,-0.11975098,-0.0037231445,0.0065307617,20.091601999999998,43.25954,-43.633587,2019-09-07 15:34:14,0.0
1705.0,-0.12023926,0.005554199,0.0095825195,6.152672,49.480915,-52.954197,2019-09-07 15:34:14,0.0
1706.0,-0.11340332,0.01159668,0.013977051,-1.9541985,58.190838,-59.366413,2019-09-07 15:34:14,0.0
1707.0,-0.103637695,0.0020141601999999997,0.021057128999999997,-0.007633588,60.870228000000004,-61.366413,2019-09-07 15:34:14,0.0
1708.0,-0.11029053,0.004333496,0.005493164,-6.89313,71.15267,-64.9542,2019-09-07 15:34:14,0.0
1709.0,-0.13665771,0.0005493164,0.0044555664,-6.221374,84.9771,-71.26717,2019-09-07 15:34:14,0.0
1710.0,-0.16046143,0.0049438477,0.006591797,-22.786259,68.96947,-71.29008,2019-09-07 15:34:14,0.0
1711.0,-0.16339111,0.011230469,0.009094238000000001,-33.625954,56.87786,-63.46565,2019-09-07 15:34:14,0.0
1712.0,-0.16748047,0.011779785,0.002746582,-34.908398,68.23664000000001,-55.16030500000001,2019-09-07 15:34:14,0.0
1713.0,-0.18457031,0.008056641,0.015991211,-53.77099200000001,41.25954,-38.862595,2019-09-07 15:34:14,0.0
1714.0,-0.1538086,-0.0028076171999999997,0.009338379,-50.038166,16.282442,-19.450382,2019-09-07 15:34:14,0.0
1715.0,-0.15124512,0.0024414061999999998,0.008300781,-51.16794,4.3206105,-5.3053436,2019-09-07 15:34:14,0.0
1716.0,-0.15606689999999998,0.004638672,-0.0034179688000000002,-57.0229,-21.274809,8.381680000000001,2019-09-07 15:34:14,0.0
1717.0,-0.14440918,0.004760742,-0.0033569335999999996,-60.961833999999996,-58.702290000000005,22.748089999999998,2019-09-07 15:34:14,0.0
1718.0,-0.12994385,0.0051879883,-0.0036621094,-76.74809,-84.16031,38.14504,2019-09-07 15:34:14,0.0
1719.0,-0.1182251,-0.0029907227,-0.0014648438,-79.824425,-89.816795,52.83969499999999,2019-09-07 15:34:14,0.0
1720.0,-0.12133789,-0.016723633,0.0014648438,-54.267174,-92.58778000000001,63.099236,2019-09-07 15:34:14,0.0
1721.0,-0.11505127,-0.006042480500000001,-0.0006713867,-44.816795,-98.59541999999999,75.862595,2019-09-07 15:34:14,0.0
1722.0,-0.11621094,-0.0031738281,-0.0014038085999999999,-23.053434,-93.08397,83.0687,2019-09-07 15:34:14,0.0
1723.0,-0.11694336,-0.005493164,-0.00048828125,-18.152672,-75.52672,84.41221999999999,2019-09-07 15:34:14,0.0
1724.0,-0.12695312,0.009094238000000001,-0.006164551,-26.122137,-70.221375,74.01527,2019-09-07 15:34:14,0.0
1725.0,-0.10913086,0.0036621094,-0.0015869141,-42.587788,-72.816795,64.67175,2019-09-07 15:34:14,0.0
1726.0,-0.10388183599999999,-0.015319824,-0.013916016000000002,-40.190838,-71.61069,57.679390000000005,2019-09-07 15:34:14,0.0
1727.0,-0.10375976599999999,-0.029296875,-0.025756836,4.1755724,-56.702290000000005,46.931297,2019-09-07 15:34:14,0.0
1728.0,-0.11541748,-0.015808105,-0.015136719,44.15267,-33.664124,33.030533,2019-09-07 15:34:15,0.0
1729.0,-0.12640381,-0.0022583008,-0.0064086914,66.10687,-30.57252,16.564885999999998,2019-09-07 15:34:15,0.0
1730.0,-0.10980224599999999,0.012939453,0.005004883,50.473279999999995,-11.694656,-4.4580154,2019-09-07 15:34:15,0.0
1731.0,-0.1375122,0.0079956055,-0.01763916,45.76336,24.183207,-29.862595000000002,2019-09-07 15:34:15,0.0
1732.0,-0.15350342,0.008117675999999999,0.009521484,21.93893,29.580153000000003,-50.55725,2019-09-07 15:34:15,0.0
1733.0,-0.11779785,0.0010375977,-0.0030517578000000003,-21.625954,51.633587,-57.664124,2019-09-07 15:34:15,0.0
1734.0,-0.16308594,-0.00091552734,0.016906738,-29.053434000000003,67.69466,-73.19847,2019-09-07 15:34:15,0.0
1735.0,-0.1350708,-0.00982666,0.01184082,-31.862595000000002,67.862595,-64.74809,2019-09-07 15:34:15,0.0
1736.0,-0.1352539,-0.013427733999999998,-0.0006103515599999999,-22.480917,72.66412,-59.76336,2019-09-07 15:34:15,0.0
1737.0,-0.1453247,-0.029907227,-0.009338379,18.320610000000002,56.656490000000005,-42.694656,2019-09-07 15:34:15,0.0
1738.0,-0.11883545,-0.012390136999999999,0.009399414,68.48092,45.564884,-28.687022999999996,2019-09-07 15:34:15,0.0
1739.0,-0.11175537,-0.011779785,0.014892578,76.1145,40.389313,-21.587785999999998,2019-09-07 15:34:15,0.0
1740.0,-0.10144043,-0.00091552734,0.012634277,101.618324,44.46565,-24.839695000000003,2019-09-07 15:34:15,0.0
1741.0,-0.10095215,0.0079956055,0.00793457,103.05344000000001,43.55725,-38.732826,2019-09-07 15:34:15,0.0
1742.0,-0.12011719,0.0053710938,0.008361816,75.541985,48.633587,-55.9771,2019-09-07 15:34:15,0.0
1743.0,-0.12854004,0.016601562,0.0072631836,60.44275,55.366413,-77.9313,2019-09-07 15:34:15,0.0
1744.0,-0.13189697,0.014526367,0.01361084,27.709923,54.206109999999995,-95.45038000000001,2019-09-07 15:34:15,0.0
1745.0,-0.12536621,0.007080078,0.018432617,16.343512,60.83206,-102.541985,2019-09-07 15:34:15,0.0
1746.0,-0.11566162,0.018737793,0.015136719,-1.6412214,77.07633,-98.862595,2019-09-07 15:34:15,0.0
1747.0,-0.12823486,0.008117675999999999,0.008850098,-4.9160304,95.99235999999999,-97.099236,2019-09-07 15:34:15,0.0
1748.0,-0.15515137,0.0075683593999999995,0.006591797,-16.236639999999998,84.74809,-87.24428,2019-09-07 15:34:15,0.0
1749.0,-0.16668701,0.014587402,0.005004883,-27.022902000000002,73.08397,-73.08397,2019-09-07 15:34:15,0.0
1750.0,-0.18139648,0.011108398,-0.00592041,-32.51145,61.068703,-52.946564,2019-09-07 15:34:15,0.0
1751.0,-0.20428467,0.0154418945,0.0052490233999999995,-47.633587,21.305344,-26.740458,2019-09-07 15:34:15,0.0
1752.0,-0.16815186,-0.002380371,0.01928711,-41.198475,-6.091603299999999,3.961832,2019-09-07 15:34:15,0.0
1753.0,-0.12310791,0.0064086914,0.011108398,-29.015265999999997,-37.641220000000004,32.44275,2019-09-07 15:34:15,0.0
1754.0,-0.12860107,0.0012207030999999999,0.001953125,-23.282442,-21.778625,50.725190000000005,2019-09-07 15:34:15,0.0
1755.0,-0.14593506,0.006286621,-0.0053710938,-31.862595000000002,-54.412212,67.00764000000001,2019-09-07 15:34:15,0.0
1756.0,-0.1361084,0.018249512,-0.015380858999999998,-49.85496,-90.24428,77.618324,2019-09-07 15:34:15,0.0
1757.0,-0.13000488,0.011413574,-0.0014648438,-79.92367,-101.33588,80.496185,2019-09-07 15:34:15,0.0
1758.0,-0.1262207,0.001953125,0.0005493164,-108.900764,-110.60305,82.8855,2019-09-07 15:34:15,0.0
1759.0,-0.12219238,-0.006591797,-0.0024414061999999998,-102.34351,-104.23664000000001,84.30534,2019-09-07 15:34:15,0.0
1760.0,-0.13342285,-0.009887695,0.0010986328,-89.34351,-103.37405,87.099236,2019-09-07 15:34:15,0.0
1761.0,-0.13360596,-0.009399414,-0.0031738281,-65.0229,-91.60305,91.98473,2019-09-07 15:34:15,0.0
1762.0,-0.12841797,-0.006286621,-0.0068969727,-38.25954,-84.53435,91.89313,2019-09-07 15:34:15,0.0
1763.0,-0.12420654,-0.0025634766,-0.010864258,-30.877863,-76.19084000000001,84.64886,2019-09-07 15:34:15,0.0
1764.0,-0.12866211,-0.005737304699999999,-0.010131836,-41.55725,-77.35878000000001,75.183205,2019-09-07 15:34:16,0.0
1765.0,-0.11584473,-0.013671875,-0.020935059,-39.290077000000004,-79.458015,69.16794,2019-09-07 15:34:16,0.0
1766.0,-0.09399414,-0.020935059,-0.022399902000000003,5.335878,-77.25954399999999,61.76336,2019-09-07 15:34:16,0.0
1767.0,-0.097839355,-0.017089844,-0.015136719,40.541985,-48.374046,47.427483,2019-09-07 15:34:16,0.0
1768.0,-0.11694336,-0.012634277,-0.004028320300000001,58.916030000000006,-29.931296999999997,24.832062,2019-09-07 15:34:16,0.0
1769.0,-0.12237549,0.0061035156000000005,0.005981445300000001,52.0229,-16.687023,-2.6717557999999997,2019-09-07 15:34:16,0.0
1770.0,-0.12286377,0.010253906,-0.00012207031000000001,16.839695000000003,11.290076,-33.17557,2019-09-07 15:34:16,0.0
1771.0,-0.16101074,0.009277344,-0.005493164,3.2366412,48.55725,-68.84733,2019-09-07 15:34:16,0.0
1772.0,-0.13848877,0.011474608999999998,0.009277344,-38.229008,47.664124,-80.58015400000001,2019-09-07 15:34:16,0.0
1773.0,-0.13519287,-0.0034179688000000002,0.019226074,-44.900764,94.0229,-98.25191,2019-09-07 15:34:16,0.0
1774.0,-0.12170410000000002,-0.0029296875,0.013977051,-53.809162,103.38931,-94.1145,2019-09-07 15:34:16,0.0
1775.0,-0.12683105,-0.01171875,0.0095825195,-25.229008,108.0687,-88.51145,2019-09-07 15:34:16,0.0
1776.0,-0.13641357,-0.015258788999999998,-0.0033569335999999996,-7.6946563999999995,105.46565,-77.16794,2019-09-07 15:34:16,0.0
1777.0,-0.14422607,-0.015563965,-0.0056152343999999995,18.137404999999998,78.0458,-60.923664,2019-09-07 15:34:16,0.0
1778.0,-0.13299560000000002,-0.010681152,0.002746582,38.862595,61.83206,-49.572517,2019-09-07 15:34:16,0.0
1779.0,-0.12945557,-0.00592041,0.005859375,55.030533,54.648853,-41.229008,2019-09-07 15:34:16,0.0
1780.0,-0.11950683599999999,-0.0032958984000000004,0.010437011999999999,65.60305,47.0,-34.793890000000005,2019-09-07 15:34:16,0.0
1781.0,-0.12231445,0.0026245116999999997,0.0030517578000000003,67.29771,49.381679999999996,-32.610687,2019-09-07 15:34:16,0.0
1782.0,-0.12835693,0.009643555,0.0095825195,63.297709999999995,50.53435,-35.030533,2019-09-07 15:34:16,0.0
1783.0,-0.12341308599999999,0.015563965,0.008422852,37.770992,49.801525,-37.778625,2019-09-07 15:34:16,0.0
1784.0,-0.12164307,0.0030517578000000003,0.0119018555,12.793892999999999,50.53435,-42.694656,2019-09-07 15:34:16,0.0
1785.0,-0.113464355,0.0052490233999999995,0.014221191000000001,6.396946400000001,47.793890000000005,-41.625954,2019-09-07 15:34:16,0.0
1786.0,-0.10717773400000001,0.0006713867,0.02545166,0.57251906,50.595420000000004,-42.351147,2019-09-07 15:34:16,0.0
1787.0,-0.10821533,0.0030517578000000003,0.012512207,-2.5954200000000003,58.984733999999996,-42.702290000000005,2019-09-07 15:34:16,0.0
1788.0,-0.14068604,0.00091552734,0.013916016000000002,-8.847328,65.0458,-46.91603,2019-09-07 15:34:16,0.0
1789.0,-0.16088867,0.0032348633000000003,0.0064697266000000005,-15.541985,45.770992,-41.694656,2019-09-07 15:34:16,0.0
1790.0,-0.16925049,0.012451172,0.0018310547,-20.259542,37.755726,-30.91603,2019-09-07 15:34:16,0.0
1791.0,-0.17895508,0.0036010741999999997,0.008911133,-19.969465,27.946565999999997,-19.778625,2019-09-07 15:34:16,0.0
1792.0,-0.18005371,0.0018920898,0.00982666,-29.358778000000004,13.633588,-0.47328246,2019-09-07 15:34:16,0.0
1793.0,-0.14105225,-0.0078125,0.022460938,-32.44275,-34.44275,25.259542,2019-09-07 15:34:16,0.0
1794.0,-0.10681152,0.002746582,0.0015869141,-26.89313,-33.648853,40.91603,2019-09-07 15:34:16,0.0
1795.0,-0.13665771,0.013000488000000001,0.0024414061999999998,-33.717556,-15.740458499999999,42.89313,2019-09-07 15:34:16,0.0
1796.0,-0.15771484,0.014404297,-0.0031738281,-56.51145,-72.34351,51.923664,2019-09-07 15:34:16,0.0
1797.0,-0.13787842,0.012756348,-0.007507324,-80.43511,-95.21374,50.580154,2019-09-07 15:34:16,0.0
1798.0,-0.13262939999999998,0.0051879883,0.0007324219,-91.816795,-102.21374,56.015266000000004,2019-09-07 15:34:16,0.0
1799.0,-0.14123535,-0.002380371,-0.0048217773,-86.41221999999999,-105.48092,63.198475,2019-09-07 15:34:16,0.0
1800.0,-0.14318848,-0.007690429699999999,-0.005004883,-71.16031,-98.824425,71.12214,2019-09-07 15:34:17,0.0
1801.0,-0.13397217,-0.018371582,-0.010375977,-37.82443,-94.73283,87.65649,2019-09-07 15:34:17,0.0
1802.0,-0.12530518,-0.007690429699999999,-0.0087890625,-8.274809,-87.41984599999999,93.80153,2019-09-07 15:34:17,0.0
1803.0,-0.12402344,-0.0032348633000000003,-0.010009766,0.5648854999999999,-79.25954399999999,99.12214,2019-09-07 15:34:17,0.0
1804.0,-0.12390137,0.0053100586,-0.008972168,-4.5114503,-73.70992,96.496185,2019-09-07 15:34:17,0.0
1805.0,-0.119262695,0.0034179688000000002,-0.005737304699999999,-5.412214,-73.0687,87.68701999999999,2019-09-07 15:34:17,0.0
1806.0,-0.103027344,-0.0010986328,-0.006591797,-25.152672,-66.908394,74.44275,2019-09-07 15:34:17,0.0
1807.0,-0.10131836,-0.009887695,-0.006042480500000001,-23.755726,-61.580154,61.809162,2019-09-07 15:34:17,0.0
1808.0,-0.09722900400000001,-0.014465332,-0.007507324,-1.5648855,-34.610687,41.572517,2019-09-07 15:34:17,0.0
1809.0,-0.10473633,-0.006652831999999999,-0.0040893555,12.709924,-11.030535,17.099237,2019-09-07 15:34:17,0.0
1810.0,-0.120910645,-0.007629394499999999,0.0045166016,13.862596,3.5877862,-10.312977,2019-09-07 15:34:17,0.0
1811.0,-0.11676025400000001,0.00030517577999999995,-0.0012817383,19.190839999999998,27.557251,-39.51145,2019-09-07 15:34:17,0.0
1812.0,-0.14526367,0.007446289,-0.009155273,14.59542,53.938930000000006,-75.28244000000001,2019-09-07 15:34:17,0.0
1813.0,-0.15454102,0.004333496,0.00970459,-2.3511450000000003,63.099236,-95.900764,2019-09-07 15:34:17,0.0
1814.0,-0.12878418,-0.0034790040000000004,0.018066406,-10.656488000000001,99.29771,-112.12977,2019-09-07 15:34:17,0.0
1815.0,-0.123168945,-0.0033569335999999996,0.013793945,-10.648855000000001,108.30533999999999,-113.08397,2019-09-07 15:34:17,0.0
1816.0,-0.1307373,-0.0009765625,0.0037231445,15.053435,125.85496499999999,-114.35878000000001,2019-09-07 15:34:17,0.0
1817.0,-0.14251709,-0.0038452148,-0.003540039,3.534351,125.099236,-107.92367,2019-09-07 15:34:17,0.0
1818.0,-0.1616211,-0.0053710938,0.0006713867,10.9007635,101.31298000000001,-91.98473,2019-09-07 15:34:17,0.0
1819.0,-0.15081787,-0.005126953,0.0053100586,21.977098,77.70992,-72.44275,2019-09-07 15:34:17,0.0
1820.0,-0.13885498,-0.006713866999999999,0.0026245116999999997,44.129771999999996,59.320609999999995,-53.458015,2019-09-07 15:34:17,0.0
1821.0,-0.12866211,-0.009155273,-0.0006103515599999999,59.61832,46.931297,-37.137405,2019-09-07 15:34:17,0.0
1822.0,-0.11810303,-0.006286621,0.0030517578000000003,72.35878000000001,40.458015,-22.458015,2019-09-07 15:34:17,0.0
1823.0,-0.11981201,0.0007324219,0.0048828125,83.84733,31.06107,-13.748092000000002,2019-09-07 15:34:17,0.0
1824.0,-0.11907959,0.0078125,0.006591797,80.05344000000001,29.465649,-15.068703,2019-09-07 15:34:17,0.0
1825.0,-0.12530518,0.011047363000000001,0.008972168,69.12214,27.38168,-21.122137,2019-09-07 15:34:17,0.0
1826.0,-0.11840819999999999,0.011474608999999998,0.010986328,33.83206,25.08397,-27.450382,2019-09-07 15:34:17,0.0
1827.0,-0.11022949,0.008605957,0.012451172,13.549619,29.206106,-37.885498,2019-09-07 15:34:17,0.0
1828.0,-0.10656738,0.005676269499999999,0.014343261999999999,6.5648856,36.89313,-41.030533,2019-09-07 15:34:17,0.0
1829.0,-0.118652344,0.006713866999999999,0.010559082,-0.5648854999999999,48.14504,-41.9771,2019-09-07 15:34:17,0.0
1830.0,-0.14196777,0.010498047,0.0051879883,-11.580152499999999,50.137405,-40.351147,2019-09-07 15:34:17,0.0
1831.0,-0.14733887,0.0028686523,0.009033203,-19.641222,36.725190000000005,-32.25954,2019-09-07 15:34:17,0.0
1832.0,-0.15423584,0.0028076171999999997,0.0053100586,-15.152672,26.641221999999996,-20.793894,2019-09-07 15:34:17,0.0
1833.0,-0.15948486,0.0034790040000000004,-0.00048828125,-20.259542,27.824427000000004,-7.5267177,2019-09-07 15:34:17,0.0
1834.0,-0.16949463,-0.0045776367,0.015808105,-26.160304999999997,-4.9694657,12.564885,2019-09-07 15:34:17,0.0
1835.0,-0.13366699,-0.0072021483999999995,0.0061035156000000005,-19.229008,-21.946566,31.801527,2019-09-07 15:34:18,0.0
1836.0,-0.12060547,0.00091552734,0.013671875,-14.366412,-19.89313,42.664124,2019-09-07 15:34:18,0.0
1837.0,-0.13189697,0.011779785,0.0052490233999999995,-18.946566,-25.404581,49.89313,2019-09-07 15:34:18,0.0
1838.0,-0.14764404,0.0099487305,0.005676269499999999,-41.610687,-46.91603,57.82443000000001,2019-09-07 15:34:18,0.0
1839.0,-0.14562988,0.008544922,0.0028076171999999997,-73.87786,-69.145035,59.67175699999999,2019-09-07 15:34:18,0.0
1840.0,-0.15594482,-0.0016479492000000002,-0.005737304699999999,-78.53435,-77.63359,60.46565,2019-09-07 15:34:18,0.0
1841.0,-0.14886475,-0.006591797,-0.005737304699999999,-89.15267,-93.42748,62.59542,2019-09-07 15:34:18,0.0
1842.0,-0.13311768,-0.0028076171999999997,-0.003540039,-70.40458000000001,-92.45038000000001,69.72519,2019-09-07 15:34:18,0.0
1843.0,-0.13098145,-0.010437011999999999,-0.0032958984000000004,-51.992367,-84.76335999999999,72.74809,2019-09-07 15:34:18,0.0
1844.0,-0.12365723,-0.001953125,-0.0013427734,-34.419846,-75.41221999999999,77.75572,2019-09-07 15:34:18,0.0
1845.0,-0.11920166,-0.005432129,0.0017089844000000001,-29.099237,-66.31298000000001,76.19847,2019-09-07 15:34:18,0.0
1846.0,-0.11657715,0.0033569335999999996,0.0012817383,-32.625954,-61.12214,74.541985,2019-09-07 15:34:18,0.0
1847.0,-0.113098145,0.00030517577999999995,-0.003112793,-40.870228000000004,-55.40458,66.87023,2019-09-07 15:34:18,0.0
1848.0,-0.10644531,0.007080078,-0.0031738281,-42.93893,-52.55725,56.22900799999999,2019-09-07 15:34:18,0.0
1849.0,-0.10888672,-0.0014648438,-0.0072021483999999995,-40.198475,-44.564884,45.587788,2019-09-07 15:34:18,0.0
1850.0,-0.10571289,-0.005554199,-0.00592041,-20.641222,-37.839695,33.732826,2019-09-07 15:34:18,0.0
1851.0,-0.11413574,-0.007080078,-0.006225586,-12.236641,-17.580153,16.312977,2019-09-07 15:34:18,0.0
1852.0,-0.12652588,-0.0013427734,-0.0009765625,-0.4427481,-5.1297708,-0.90076333,2019-09-07 15:34:18,0.0
1853.0,-0.11090088,0.009399414,0.010314941,16.320610000000002,11.267176,-11.610686999999999,2019-09-07 15:34:18,0.0
1854.0,-0.11114502,0.009033203,0.0154418945,68.862595,32.625954,-11.938931,2019-09-07 15:34:18,0.0
1855.0,-0.15014648,0.031677246,0.0068359375,138.0458,58.709922999999996,-0.6488550000000001,2019-09-07 15:34:18,0.0
1856.0,-0.18182373,0.06506348,0.021057128999999997,154.44275,41.473279999999995,26.32061,2019-09-07 15:34:18,0.0
1857.0,-0.16210938,0.08734131,0.023132324,133.67938,15.80916,73.31298000000001,2019-09-07 15:34:18,0.0
1858.0,-0.13952637,0.09545898400000001,0.013671875,142.03053,7.206106699999999,117.25191000000001,2019-09-07 15:34:18,0.0
1859.0,-0.13305664,0.09735107400000001,0.004333496,162.27481,9.587786999999999,154.9313,2019-09-07 15:34:18,0.0
1860.0,-0.1352539,0.099731445,0.0115356445,152.12213,12.427481,170.78625,2019-09-07 15:34:18,0.0
1861.0,-0.12823486,0.10650635,0.015686035,135.18321,15.580152499999999,169.44275,2019-09-07 15:34:18,0.0
1862.0,-0.10052489999999999,0.09857178,0.010253906,91.94655999999999,16.519083,151.71756000000002,2019-09-07 15:34:18,0.0
1863.0,-0.083984375,0.08880615,0.0021972656,113.64886000000001,27.12977,136.99237,2019-09-07 15:34:18,0.0
1864.0,-0.07635498,0.10089111,-0.0053710938,103.87023,30.725191,121.0687,2019-09-07 15:34:18,0.0
1865.0,-0.068481445,0.08148193,-0.006164551,91.67939,18.61832,115.03053,2019-09-07 15:34:18,0.0
1866.0,-0.05340576,0.0793457,-0.010986328,143.23665,22.946566,108.23664,2019-09-07 15:34:18,0.0
1867.0,-0.044799805,0.06726074,-0.009155273,188.67938,29.091602,103.32825,2019-09-07 15:34:18,0.0
1868.0,-0.027770996000000003,0.07183838,-0.021484375,222.0458,48.809162,96.96947,2019-09-07 15:34:18,0.0
1869.0,-0.014709473,0.0769043,-0.026428222999999997,249.38931000000002,57.656490000000005,83.43511,2019-09-07 15:34:18,0.0
1870.0,-0.022033691,0.10870361,-0.040161132999999995,201.75572,83.64121999999999,61.992367,2019-09-07 15:34:18,0.0
1871.0,-0.022399902000000003,0.09509277,-0.041931152,121.0,84.43511,45.14504,2019-09-07 15:34:19,0.0
1872.0,-0.019592285,0.09643555,-0.049865723,69.64121999999999,52.267174,21.587785999999998,2019-09-07 15:34:19,0.0
1873.0,-0.031982422,0.10620117,-0.05987549,25.122137,49.74046,2.7099237,2019-09-07 15:34:19,0.0
1874.0,-0.015380858999999998,0.06994629,-0.05480957,-33.961834,1.5496184,-7.068702,2019-09-07 15:34:19,0.0
1875.0,-0.020507812,0.06542969,-0.095214844,85.381676,31.389313,-25.580153,2019-09-07 15:34:19,0.0
1876.0,-0.028015137000000002,0.08093262,-0.09222412,66.69466,20.648854999999998,-38.21374,2019-09-07 15:34:19,0.0
1877.0,-0.018859863,0.06408691400000001,-0.13482666,99.80915999999999,5.89313,-49.83206,2019-09-07 15:34:19,0.0
1878.0,-0.030700684,0.06542969,-0.13378906,135.03816,23.091601999999998,-59.85496,2019-09-07 15:34:19,0.0
1879.0,-0.032165527,0.055603027,-0.12750244,66.67939,39.76336,-47.396946,2019-09-07 15:34:19,0.0
1880.0,-0.033569336,0.05883789,-0.12530518,9.351144999999999,44.160305,-49.618320000000004,2019-09-07 15:34:19,0.0
1881.0,-0.03186035,0.05822754,-0.11651611,-58.85496,22.961832,-44.44275,2019-09-07 15:34:19,0.0
1882.0,-0.032104492000000005,0.045166015999999996,-0.11633301,-56.51145,22.221375,-40.969467,2019-09-07 15:34:19,0.0
1883.0,-0.035339355,0.044616699999999995,-0.11541748,-35.923664,18.358778,-31.022902000000002,2019-09-07 15:34:19,0.0
1884.0,-0.031311035,0.06280517599999999,-0.10821533,-12.320611,11.244275,-19.244274,2019-09-07 15:34:19,0.0
1885.0,-0.016662598,0.05480957,-0.09881592,-51.190838,22.923664000000002,-11.618319999999999,2019-09-07 15:34:19,0.0
1886.0,-0.014587402,0.054260254,-0.09344482400000001,-69.854965,26.908398,-13.671756,2019-09-07 15:34:19,0.0
1887.0,-0.023864746000000003,0.06799316400000001,-0.07092285,-87.74809,24.534351,-12.0,2019-09-07 15:34:19,0.0
1888.0,-0.024902344,0.06311035,-0.06463623,-140.16794,12.7786255,-11.106871,2019-09-07 15:34:19,0.0
1889.0,-0.011657715,0.048706055,-0.054504395,-143.41985,6.40458,-8.908397,2019-09-07 15:34:19,0.0
1890.0,-0.02960205,0.032836914,-0.06976318,-45.76336,2.0992367,-11.229008,2019-09-07 15:34:19,0.0
1891.0,-0.028198242000000002,0.04937744,-0.07531738,77.061066,-3.5572519999999996,-29.122137,2019-09-07 15:34:19,0.0
1892.0,-0.025512695,0.08306885,-0.07000732400000001,68.65649,-10.183207000000001,-14.664123000000002,2019-09-07 15:34:19,0.0
1893.0,-0.032470703,0.08666992,-0.08465576,-9.106871,-28.458015000000003,-2.9312978,2019-09-07 15:34:19,0.0
1894.0,-0.03729248,0.08276367,-0.11676025400000001,22.236639999999998,-25.358778,-3.7557251000000003,2019-09-07 15:34:19,0.0
1895.0,-0.04498291,0.09173584,-0.123046875,9.816792999999999,-34.46565,0.79389316,2019-09-07 15:34:19,0.0
1896.0,-0.040283203,0.08459473,-0.12420654,-9.893129,-43.587788,7.6183205,2019-09-07 15:34:19,0.0
1897.0,-0.051879882999999995,0.08477783,-0.15093994,-3.7480917000000002,-42.84733,13.007633,2019-09-07 15:34:19,0.0
1898.0,-0.055908203,0.08795166,-0.13500977,1.6412214,-12.717557000000001,15.419847500000001,2019-09-07 15:34:19,0.0
1899.0,-0.049194336,0.08337402,-0.11602783,-17.694656,-7.8015265,19.961832,2019-09-07 15:34:19,0.0
1900.0,-0.041625977,0.08764648400000001,-0.08074951,-65.61069,16.259542,27.412214000000002,2019-09-07 15:34:19,0.0
1901.0,-0.047851562,0.08996582,-0.06817627,-138.16031,15.335876999999998,26.198473,2019-09-07 15:34:19,0.0
1902.0,-0.052001953,0.076660156,-0.044616699999999995,-170.8626,9.076336,14.961832000000001,2019-09-07 15:34:19,0.0
1903.0,-0.04937744,0.04888916,-0.06427002,-142.21375,-31.801527,13.305344,2019-09-07 15:34:19,0.0
1904.0,-0.047729492000000005,0.04663086,-0.072753906,15.198473000000002,-31.419846999999997,-9.916031,2019-09-07 15:34:19,0.0
1905.0,-0.05303955,0.07519531,-0.0635376,39.954197,-47.87786,-15.687023000000002,2019-09-07 15:34:19,0.0
1906.0,-0.04815674,0.08563232400000001,-0.06707764,-15.816792999999999,-68.26717,-7.961832000000001,2019-09-07 15:34:19,0.0
1907.0,-0.046081542999999996,0.08355713,-0.06280517599999999,12.9007635,-81.16031,-8.274809,2019-09-07 15:34:20,0.0
1908.0,-0.04711914,0.09082031,-0.051208496,-5.3511453,-78.16031,-2.038168,2019-09-07 15:34:20,0.0
1909.0,-0.045288086,0.08111572,-0.045654297,-13.419847500000001,-55.893130000000006,3.053435,2019-09-07 15:34:20,0.0
1910.0,-0.04284668,0.07556152,-0.0423584,-9.877863,-46.694656,1.0229008,2019-09-07 15:34:20,0.0
1911.0,-0.03729248,0.08203125,-0.041992188,-23.251910000000002,-47.656490000000005,-6.7862597000000004,2019-09-07 15:34:20,0.0
1912.0,-0.04156494,0.09307861,-0.03137207,-69.183205,-40.89313,-21.419847,2019-09-07 15:34:20,0.0
1913.0,-0.049438477,0.10455322,-0.051635742000000005,-105.26717,-64.75572,-25.08397,2019-09-07 15:34:20,0.0
1914.0,-0.06109619,0.09777832,-0.07312012,-73.64886,-51.984734,-32.755726,2019-09-07 15:34:20,0.0
1915.0,-0.07861328,0.10485839999999998,-0.07421875,43.297709999999995,-74.33588,-48.732826,2019-09-07 15:34:20,0.0
1916.0,-0.079589844,0.13128662,-0.08538818,88.778625,-61.541985,-46.992367,2019-09-07 15:34:20,0.0
1917.0,-0.07244873,0.121032715,-0.061340332000000004,72.07633,-26.770992,-15.145039,2019-09-07 15:34:20,0.0
1918.0,-0.06860351599999999,0.12896729,-0.07116699,82.30534,-5.7938933,5.442748,2019-09-07 15:34:20,0.0
1919.0,-0.06323242,0.11743164,-0.09051514,34.984734,6.0076336999999995,8.442748,2019-09-07 15:34:20,0.0
1920.0,-0.06573486,0.11743164,-0.11285400400000001,6.038168,33.74046,-0.099236645,2019-09-07 15:34:20,0.0
1921.0,-0.04498291,0.10852051,-0.08953857400000001,-43.274809999999995,68.07633,5.4656487,2019-09-07 15:34:20,0.0
1922.0,-0.03363037,0.0914917,-0.08843994,-70.54961999999999,90.091606,14.2213745,2019-09-07 15:34:20,0.0
1923.0,-0.042419434000000006,0.103637695,-0.09692383,-54.412212,111.47328,14.59542,2019-09-07 15:34:20,0.0
1924.0,-0.055786132999999995,0.08935547,-0.093811035,-62.076336,126.061066,14.244275,2019-09-07 15:34:20,0.0
1925.0,-0.04547119,0.09197998,-0.09118652,-45.984734,139.9542,16.076335999999998,2019-09-07 15:34:20,0.0
1926.0,-0.043518065999999994,0.09387207,-0.090026855,-44.694656,145.57253,19.122137,2019-09-07 15:34:20,0.0
1927.0,-0.035583496,0.07891846,-0.07983398400000001,-48.74046,154.22899999999998,23.603054,2019-09-07 15:34:20,0.0
1928.0,-0.044555664,0.06561279,-0.062683105,-33.900764,157.61068999999998,23.076335999999998,2019-09-07 15:34:20,0.0
1929.0,-0.04736328,0.05670166,-0.05718994,-2.9770992,155.48091000000002,17.61832,2019-09-07 15:34:20,0.0
1930.0,-0.0435791,0.06384277,-0.052856445,30.435114000000002,140.19847,9.076336,2019-09-07 15:34:20,0.0
1931.0,-0.027770996000000003,0.06738281,-0.0501709,38.25954,120.10687,-1.6946564999999998,2019-09-07 15:34:20,0.0
1932.0,-0.033325195,0.06866455,-0.056030273,30.564885999999998,92.145035,-10.717557000000001,2019-09-07 15:34:20,0.0
1933.0,-0.030273438,0.060546875,-0.07122803,34.030533,76.48855,-9.053435,2019-09-07 15:34:20,0.0
1934.0,-0.02355957,0.07580566400000001,-0.030761719,68.26717,33.954197,-3.908397,2019-09-07 15:34:20,0.0
1935.0,-0.023498535,0.097473145,-0.053527832000000004,52.725190000000005,19.167938,-4.763358599999999,2019-09-07 15:34:20,0.0
1936.0,-0.010864258,0.076049805,-0.07739258,36.46565,15.465648999999999,2.9007633,2019-09-07 15:34:20,0.0
1937.0,-0.015258788999999998,0.09289551,-0.09069824,112.96183,25.10687,-11.694656,2019-09-07 15:34:20,0.0
1938.0,-0.020385742,0.11010742,-0.09802246,56.015266000000004,6.3587785000000006,-4.1221375,2019-09-07 15:34:20,0.0
1939.0,-0.02154541,0.09637451,-0.10504150400000001,6.5038165999999995,11.419847500000001,-6.473282299999999,2019-09-07 15:34:20,0.0
1940.0,-0.022888184,0.07379150400000001,-0.10577392599999999,-23.549618,-11.167939,-6.2290077,2019-09-07 15:34:20,0.0
1941.0,-0.03125,0.061401367000000005,-0.12890625,49.221375,-35.068703,-0.610687,2019-09-07 15:34:20,0.0
1942.0,-0.03137207,0.06854248,-0.12384033,175.66412,-44.870228000000004,-16.748089999999998,2019-09-07 15:34:21,0.0
1943.0,-0.027526855,0.08026123,-0.10577392599999999,111.72519,-6.9389315,-3.793893,2019-09-07 15:34:21,0.0
1944.0,-0.023071289,0.06713867,-0.10650635,61.938930000000006,14.061069,2.1603053,2019-09-07 15:34:21,0.0
1945.0,-0.023254395,0.057983400000000004,-0.101379395,58.21374,1.6030535,3.6564887,2019-09-07 15:34:21,0.0
1946.0,-0.022216797000000003,0.040100098,-0.12286377,24.137404999999998,-5.480916000000001,11.7404585,2019-09-07 15:34:21,0.0
1947.0,-0.02178955,0.047302246,-0.11297607400000001,35.17557,2.091603,11.564885,2019-09-07 15:34:21,0.0
1948.0,-0.015258788999999998,0.047973632999999995,-0.10900879,-2.6412212999999998,-8.755725,17.93893,2019-09-07 15:34:21,0.0
1949.0,-0.013244628999999999,0.050048828,-0.09729004,-13.40458,-16.374046,22.61832,2019-09-07 15:34:21,0.0
1950.0,-0.016174316,0.050231934000000006,-0.091796875,-22.900763,-17.885496,26.480916999999998,2019-09-07 15:34:21,0.0
1951.0,-0.013366699,0.035339355,-0.08831787,-55.450382,-20.419847,23.51145,2019-09-07 15:34:21,0.0
1952.0,-0.0072631836,0.03692627,-0.10223389,-51.038166,-30.541984999999997,10.343511999999999,2019-09-07 15:34:21,0.0
1953.0,0.00042724610000000003,0.04296875,-0.09045410000000001,-1.3206106000000002,-12.145039,3.3969467000000004,2019-09-07 15:34:21,0.0
1954.0,-0.013427733999999998,0.060791015999999996,-0.10040283,47.46565,-12.893129,-13.9007635,2019-09-07 15:34:21,0.0
1955.0,-0.0051879883,0.08068848,-0.09234619,0.7251908,-13.816792999999999,-7.9847326,2019-09-07 15:34:21,0.0
1956.0,-0.00012207031000000001,0.07421875,-0.0949707,-19.679389999999998,9.862596,-5.847328,2019-09-07 15:34:21,0.0
1957.0,-0.0031738281,0.06524658,-0.1038208,-30.374046000000003,-6.5038165999999995,-14.839695,2019-09-07 15:34:21,0.0
1958.0,-0.006958008000000001,0.06866455,-0.13079834,-32.06107,-6.7480917,-17.48855,2019-09-07 15:34:21,0.0
1959.0,-0.018371582,0.07385254,-0.12695312,8.671756,8.236641,-25.175573,2019-09-07 15:34:21,0.0
1960.0,-0.020019531,0.07330322,-0.13928223,-39.984734,1.4961832,-15.717557000000001,2019-09-07 15:34:21,0.0
1961.0,-0.019836426,0.064453125,-0.14367676,-19.236639999999998,19.824427,-22.015266,2019-09-07 15:34:21,0.0
1962.0,-0.025146484,0.06298828,-0.13568115,13.129771,16.709923,-22.282442,2019-09-07 15:34:21,0.0
1963.0,-0.024108887000000002,0.053710938,-0.12420654,0.8091603,20.877863,-18.458015,2019-09-07 15:34:21,0.0
1964.0,-0.036743164,0.05670166,-0.11108398400000001,-25.740458,26.053434,-14.396947,2019-09-07 15:34:21,0.0
1965.0,-0.023071289,0.046936035,-0.12634277,-47.351147,14.129771,-3.7251909,2019-09-07 15:34:21,0.0
1966.0,-0.028503418,0.02178955,-0.11938476599999999,-9.870229,25.351145000000002,-14.076335999999998,2019-09-07 15:34:21,0.0
1967.0,-0.028076172000000003,0.034729004,-0.11682129,21.786259,18.839695000000003,-22.076335999999998,2019-09-07 15:34:21,0.0
1968.0,-0.029968262000000002,0.04498291,-0.10699463,36.16794,22.251910000000002,-25.076335999999998,2019-09-07 15:34:21,0.0
1969.0,-0.025634766,0.045837402,-0.11376953,-3.832061,31.557251,-21.496183,2019-09-07 15:34:21,0.0
1970.0,-0.022521972999999997,0.034057617000000005,-0.10070801,16.862595000000002,35.198475,-26.160304999999997,2019-09-07 15:34:21,0.0
1971.0,-0.022460938,0.050598145,-0.089904785,16.862595000000002,31.648854999999998,-25.06107,2019-09-07 15:34:21,0.0
1972.0,-0.019104003999999997,0.052124023,-0.09265137,2.3282442000000003,26.778625,-15.847328,2019-09-07 15:34:21,0.0
1973.0,-0.013549805,0.052734375,-0.08648682,15.923664000000002,4.473282299999999,-13.343511999999999,2019-09-07 15:34:21,0.0
1974.0,-0.014343261999999999,0.05444336,-0.101379395,15.694656,6.9923663000000005,-11.793892999999999,2019-09-07 15:34:21,0.0
1975.0,-0.014526367,0.06060791,-0.09893799,-0.007633588,10.045800999999999,-4.0458016,2019-09-07 15:34:21,0.0
1976.0,-0.012145996000000001,0.05834961,-0.09832764,13.862596,9.908397,-4.5038165999999995,2019-09-07 15:34:21,0.0
1977.0,-0.006713866999999999,0.058410645,-0.10662842,-21.366413,15.625955,2.2824428,2019-09-07 15:34:21,0.0
1978.0,-0.016174316,0.055236815999999994,-0.10644531,-13.877863,-3.4198472,5.068702,2019-09-07 15:34:22,0.0
1979.0,-0.02508545,0.053588867000000005,-0.13647461,9.358779,3.2595419999999997,8.80916,2019-09-07 15:34:22,0.0
1980.0,-0.036865234,0.06024169999999999,-0.11486816400000001,-19.885496,11.045800999999999,11.938931,2019-09-07 15:34:22,0.0
1981.0,-0.032104492000000005,0.039489746,-0.12133789,-26.442749,-32.9771,21.221375,2019-09-07 15:34:22,0.0
1982.0,-0.034118652,0.033935547,-0.17016602,29.57252,-38.427483,15.045801,2019-09-07 15:34:22,0.0
1983.0,-0.027648926,0.050354004,-0.15045166,41.87786,2.2442749,14.610686999999999,2019-09-07 15:34:22,0.0
1984.0,-0.034179688,0.053100586,-0.1274414,-10.236641,8.068703,28.80916,2019-09-07 15:34:22,0.0
1985.0,-0.025024414,0.042114257999999995,-0.11889648400000001,-2.4580152,11.847328,25.297710000000002,2019-09-07 15:34:22,0.0
1986.0,-0.031921387,0.04888916,-0.09844971,-20.06107,26.229008,35.55725,2019-09-07 15:34:22,0.0
1987.0,-0.036865234,0.0423584,-0.09881592,-17.740458,-3.5572519999999996,37.923664,2019-09-07 15:34:22,0.0
1988.0,-0.025146484,0.039916992000000005,-0.106933594,-2.4732822999999997,-19.587785999999998,40.328243,2019-09-07 15:34:22,0.0
1989.0,-0.024169922000000003,0.053588867000000005,-0.11480713,-19.625954,-15.732823999999999,40.450382,2019-09-07 15:34:22,0.0
1990.0,-0.019226074,0.05029297,-0.114746094,-10.328244,-15.496182999999998,34.244274,2019-09-07 15:34:22,0.0
1991.0,-0.01953125,0.053527832000000004,-0.0993042,-30.931296999999997,-9.030535,36.312977000000004,2019-09-07 15:34:22,0.0
1992.0,-0.013183594,0.054870605,-0.09997558599999999,-68.26717,-9.297709,37.664124,2019-09-07 15:34:22,0.0
1993.0,-0.011779785,0.050964355,-0.1038208,-54.47328,-12.564885,34.55725,2019-09-07 15:34:22,0.0
1994.0,-0.017822266,0.057739257999999995,-0.09387207,-41.229008,-15.40458,28.290077,2019-09-07 15:34:22,0.0
1995.0,-0.012512207,0.0501709,-0.09625244,-30.732824,-10.503817,27.580153000000003,2019-09-07 15:34:22,0.0
1996.0,-0.012573242,0.057922363,-0.09100342,-11.458015,-9.290076,18.557251,2019-09-07 15:34:22,0.0
1997.0,-0.0010375977,0.070129395,-0.089904785,-34.870228000000004,0.2519084,10.7786255,2019-09-07 15:34:22,0.0
1998.0,0.0015869141,0.063964844,-0.091674805,-38.274809999999995,7.3053436000000005,6.5038165999999995,2019-09-07 15:34:22,0.0
1999.0,0.00042724610000000003,0.061340332000000004,-0.1015625,-4.587786,4.152672,-6.480916000000001,2019-09-07 15:34:22,0.0
2000.0,-0.0030517578000000003,0.07208252,-0.11645508,-3.9923663,12.236641,-10.21374,2019-09-07 15:34:22,0.0
2001.0,-0.013793945,0.07653808599999999,-0.12158203,4.8015265,19.053434,-20.007633,2019-09-07 15:34:22,0.0
2002.0,-0.027160645,0.07281494,-0.12927246,20.221375,-15.145039,-21.274809,2019-09-07 15:34:22,0.0
2003.0,-0.026000977,0.07891846,-0.15679932,34.206109999999995,-1.2748091000000001,-32.007633,2019-09-07 15:34:22,0.0
2004.0,-0.031555176000000004,0.071777344,-0.13220215,9.870229,24.022902,-24.748089999999998,2019-09-07 15:34:22,0.0
2005.0,-0.028137207,0.06323242,-0.11706543,-53.55725,15.335876999999998,-15.702291,2019-09-07 15:34:22,0.0
2006.0,-0.025146484,0.048034667999999996,-0.111816406,-66.9313,24.06107,-20.251910000000002,2019-09-07 15:34:22,0.0
2007.0,-0.015380858999999998,0.03741455,-0.103027344,-12.236641,-1.2748091000000001,-29.793894,2019-09-07 15:34:22,0.0
2008.0,-0.015686035,0.048217773,-0.10443115,-16.38168,8.114504,-32.374046,2019-09-07 15:34:22,0.0
2009.0,-0.020019531,0.057006836,-0.09643555,-6.8549619999999996,7.0534353,-36.44275,2019-09-07 15:34:22,0.0
2010.0,-0.019592285,0.055114746,-0.085998535,-33.030533,5.4580154,-23.557251,2019-09-07 15:34:22,0.0
2011.0,-0.02758789,0.066589355,-0.09954834,-18.992367,12.206107000000001,-20.755726,2019-09-07 15:34:22,0.0
2012.0,-0.024230957,0.07922363,-0.11065674,-45.48855,0.15267175,-17.450382,2019-09-07 15:34:22,0.0
2013.0,-0.022155762000000002,0.06347656,-0.10601807,-57.69465600000001,34.068703,-13.603053,2019-09-07 15:34:22,0.0
2014.0,-0.020446777,0.051879882999999995,-0.090026855,-14.893129,28.0,-16.717558,2019-09-07 15:34:23,0.0
2015.0,-0.013793945,0.06597900400000001,-0.08416748,7.9160304,18.809160000000002,-18.259542,2019-09-07 15:34:23,0.0
2016.0,-0.018005371000000003,0.07397461,-0.07775879,-19.51145,32.374046,-16.816793,2019-09-07 15:34:23,0.0
2017.0,-0.019470215,0.06750488,-0.07574463,-43.91603,14.534351000000001,-17.877863,2019-09-07 15:34:23,0.0
2018.0,-0.0234375,0.07171631,-0.07727051,-66.73283,-3.9770992,-12.671756,2019-09-07 15:34:23,0.0
2019.0,-0.03125,0.07476807,-0.06964111,-62.290077000000004,-8.946565,-10.450381,2019-09-07 15:34:23,0.0
2020.0,-0.039978027,0.08496094,-0.07708739999999999,-75.816795,-28.854961,-13.389313000000001,2019-09-07 15:34:23,0.0
2021.0,-0.050842285,0.10632324,-0.089660645,-135.19083999999998,-61.068703,-11.564885,2019-09-07 15:34:23,0.0
2022.0,-0.050598145,0.07873535,-0.084106445,-85.458015,-78.938934,-16.045801,2019-09-07 15:34:23,0.0
2023.0,-0.057739257999999995,0.095214844,-0.093811035,-11.435115,-92.12214,-20.06107,2019-09-07 15:34:23,0.0
2024.0,-0.05731201,0.11358642599999999,-0.08496094,-27.412214000000002,-69.862595,-11.328244,2019-09-07 15:34:23,0.0
2025.0,-0.059387207000000004,0.1038208,-0.062438965,-17.89313,-62.30534399999999,-6.473282299999999,2019-09-07 15:34:23,0.0
2026.0,-0.053833007999999995,0.10430908,-0.05682373,-27.328245000000003,-54.038166000000004,9.427481,2019-09-07 15:34:23,0.0
2027.0,-0.052368164,0.10284424,-0.07470703,-33.519085,-28.23664,13.740458499999999,2019-09-07 15:34:23,0.0
2028.0,-0.05999756,0.10620117,-0.07019043,-35.618320000000004,-19.297710000000002,10.038167999999999,2019-09-07 15:34:23,0.0
2029.0,-0.050048828,0.10437012,-0.07489014,-25.91603,-27.694656,0.16030534,2019-09-07 15:34:23,0.0
2030.0,-0.052978515999999996,0.10040283,-0.06567383,-21.51145,-21.541985,-5.664122,2019-09-07 15:34:23,0.0
2031.0,-0.052612305,0.09606933599999999,-0.046569824,-6.068702,-21.442749,-6.3893127,2019-09-07 15:34:23,0.0
2032.0,-0.030151367000000002,0.08795166,-0.044067382999999995,-4.053435299999999,-21.076335999999998,-5.8625956,2019-09-07 15:34:23,0.0
2033.0,-0.034362792999999996,0.08795166,-0.042114257999999995,3.8854961,-12.473283,-5.9007635,2019-09-07 15:34:23,0.0
2034.0,-0.031982422,0.09008789,-0.04248047,1.6564884999999998,-9.656488000000001,-11.427481,2019-09-07 15:34:23,0.0
2035.0,-0.032836914,0.08685303,-0.046325684000000006,7.236641400000001,-8.083969,-14.541985,2019-09-07 15:34:23,0.0
2036.0,-0.03186035,0.09088135,-0.045715332000000004,7.5496182,-5.9541984,-16.633587,2019-09-07 15:34:23,0.0
2037.0,-0.03326416,0.09924316400000001,-0.047790527,6.152672,-6.900763499999999,-15.793892999999999,2019-09-07 15:34:23,0.0
2038.0,-0.03967285,0.105529785,-0.041625977,6.8778625,-2.4885497,-13.793892999999999,2019-09-07 15:34:23,0.0
2039.0,-0.046203613,0.103637695,-0.047546387,2.870229,0.6488550000000001,-11.442748,2019-09-07 15:34:23,0.0
2040.0,-0.051818848,0.11352539,-0.054748535,15.19084,3.6641220000000003,-8.893129,2019-09-07 15:34:23,0.0
2041.0,-0.06024169999999999,0.12298584,-0.060791015999999996,5.946564700000001,3.7251909,-11.458015,2019-09-07 15:34:23,0.0
2042.0,-0.06384277,0.12426758,-0.060424805,-7.259542,7.1221375,-8.832061,2019-09-07 15:34:23,0.0
2043.0,-0.06811523400000001,0.117126465,-0.057739257999999995,3.9694656999999998,8.954199000000001,-8.427481,2019-09-07 15:34:23,0.0
2044.0,-0.07110596,0.119262695,-0.06201172,5.4580154,-4.1374044,-9.877863,2019-09-07 15:34:23,0.0
2045.0,-0.070251465,0.12805176,-0.07043457,10.625955000000001,12.541985,-17.694656,2019-09-07 15:34:23,0.0
2046.0,-0.06970215,0.11663818,-0.055358887,15.656488000000001,1.1068702,-10.244275,2019-09-07 15:34:23,0.0
2047.0,-0.06604004,0.10186767599999999,-0.051757812,9.770992,16.12977,-2.3206108,2019-09-07 15:34:23,0.0
2048.0,-0.06628418,0.07977295,-0.040649414,-19.473282,20.709923,7.374046000000001,2019-09-07 15:34:23,0.0
2049.0,-0.054382324,0.07458496,-0.047546387,-26.389313,18.145039,12.839694999999999,2019-09-07 15:34:24,0.0
2050.0,-0.059387207000000004,0.07312012,-0.044311523,-64.778625,17.656488,4.053435299999999,2019-09-07 15:34:24,0.0
2051.0,-0.07293701,0.06829834,-0.060180664,-69.41221999999999,11.748092,-13.7786255,2019-09-07 15:34:24,0.0
2052.0,-0.07000732400000001,0.07470703,-0.05718994,-44.343509999999995,-5.053435299999999,-32.160305,2019-09-07 15:34:24,0.0
2053.0,-0.0680542,0.074279785,-0.044677734000000004,-38.74046,-13.129771,-40.282444,2019-09-07 15:34:24,0.0
2054.0,-0.07067871,0.06500244,-0.03540039,-24.076335999999998,-15.61832,-45.87786,2019-09-07 15:34:24,0.0
2055.0,-0.07299805,0.06915283,-0.022155762000000002,-29.633587,-17.656488,-52.74046,2019-09-07 15:34:24,0.0
2056.0,-0.06878662,0.06298828,-0.015014648,-57.564884,-26.419846999999997,-59.541985,2019-09-07 15:34:24,0.0
2057.0,-0.07165527,0.06573486,-0.013671875,-96.44275,-25.236639999999998,-73.74809,2019-09-07 15:34:24,0.0
2058.0,-0.08013916,0.058532715,-0.014709473,-125.67175,-26.08397,-95.80153,2019-09-07 15:34:24,0.0
2059.0,-0.0914917,0.06298828,-0.009521484,-171.0229,-35.221375,-122.862595,2019-09-07 15:34:24,0.0
2060.0,-0.09338379,0.06939697,-0.008056641,-225.7939,-35.08397,-151.48856,2019-09-07 15:34:24,0.0
2061.0,-0.09826660000000001,0.06347656,-0.00390625,-250.1374,-23.053434,-187.44275,2019-09-07 15:34:24,0.0
2062.0,-0.10894775400000001,0.054382324,-0.0052490233999999995,-250.1374,0.64122134,-230.10687000000001,2019-09-07 15:34:24,0.0
2063.0,-0.11785889,0.0423584,-0.01373291,-250.1374,58.450382,-250.1374,2019-09-07 15:34:24,0.0
2064.0,-0.15112305,-0.008361816,-0.023132324,-250.1374,118.27481,-250.1374,2019-09-07 15:34:24,0.0
2065.0,-0.17132568,-0.02923584,-0.0068969727,-249.78625,150.58015,-238.32825,2019-09-07 15:34:24,0.0
2066.0,-0.17108154,-0.04119873,-0.00592041,-108.96183,175.44275,-182.99237,2019-09-07 15:34:24,0.0
2067.0,-0.1977539,-0.039367676000000004,-0.020996094,51.870228000000004,186.80916000000002,-135.71756000000002,2019-09-07 15:34:24,0.0
2068.0,-0.19207764,-0.038085938,-0.02178955,148.8626,143.08397,-74.40458000000001,2019-09-07 15:34:24,0.0
2069.0,-0.15112305,-0.018493652,-0.014465332,229.54199,93.64886,-27.465649,2019-09-07 15:34:24,0.0
2070.0,-0.123168945,0.0018310547,-0.0072021483999999995,248.771,76.08397,2.3740457999999998,2019-09-07 15:34:24,0.0
2071.0,-0.125,0.011169433999999999,0.0048828125,210.62596000000002,65.15267,18.519083,2019-09-07 15:34:24,0.0
2072.0,-0.12084961,0.012634277,0.0061035156000000005,156.22137,47.21374,32.305344,2019-09-07 15:34:24,0.0
2073.0,-0.122558594,0.016601562,0.007019043000000001,117.73283,34.48855,37.251907,2019-09-07 15:34:24,0.0
2074.0,-0.125,0.023742676,0.006652831999999999,87.21374,8.427481,41.748093,2019-09-07 15:34:24,0.0
2075.0,-0.12097168,0.014282227,0.008300781,41.068703,-16.236639999999998,42.12214,2019-09-07 15:34:24,0.0
2076.0,-0.11749267599999999,0.016357422,0.013000488000000001,25.763360000000002,-26.969465000000003,40.007633,2019-09-07 15:34:24,0.0
2077.0,-0.12512207,0.004699707,0.008361816,13.740458499999999,-37.633587,46.282444,2019-09-07 15:34:24,0.0
2078.0,-0.12963867,-0.016967773000000002,0.013977051,21.786259,-37.809162,54.114502,2019-09-07 15:34:24,0.0
2079.0,-0.13568115,-0.0056152343999999995,0.010070800999999999,39.366413,-28.19084,61.290077000000004,2019-09-07 15:34:24,0.0
2080.0,-0.14404297,-0.010986328,0.016784668,31.045801,-32.038166,67.541985,2019-09-07 15:34:24,0.0
2081.0,-0.14190674,-0.018005371000000003,0.016479492,14.007632999999998,-32.732826,69.99235999999999,2019-09-07 15:34:24,0.0
2082.0,-0.13256836,-0.007873535,0.019348145,3.534351,-32.85496,67.83969,2019-09-07 15:34:24,0.0
2083.0,-0.13659668,-0.0119018555,0.016296387,4.0076336999999995,-28.358778000000004,61.49618,2019-09-07 15:34:25,-2.0
2084.0,-0.13031006,-0.018737793,0.022033691,-3.7099237,-33.55725,55.18320500000001,2019-09-07 15:34:25,-2.0
2085.0,-0.1281128,-0.028442382999999998,0.018371582,0.27480915,-33.389313,45.404579999999996,2019-09-07 15:34:25,-2.0
2086.0,-0.12591553,-0.029052734,0.015991211,7.099236500000001,-32.206109999999995,33.625954,2019-09-07 15:34:25,-2.0
2087.0,-0.11932373,-0.025390625,0.019592285,21.328245000000003,-29.984734000000003,22.931297,2019-09-07 15:34:25,-2.0
2088.0,-0.11773682,-0.022888184,0.018554688,28.93893,-21.076335999999998,10.435115,2019-09-07 15:34:25,-2.0
2089.0,-0.12927246,-0.0134887695,0.024169922000000003,41.404579999999996,-15.343511999999999,1.8091604,2019-09-07 15:34:25,-2.0
2090.0,-0.13543701,-0.012634277,0.023498535,45.625954,-12.114504,-4.847328,2019-09-07 15:34:25,-2.0
2091.0,-0.12982178,-0.006713866999999999,0.024902344,51.664124,-13.923664000000002,-9.824428,2019-09-07 15:34:25,-2.0
2092.0,-0.1281128,0.0014038085999999999,0.020507812,58.129771999999996,-14.435115,-14.160305,2019-09-07 15:34:25,-2.0
2093.0,-0.12310791,0.0018920898,0.022644043,60.458015,-18.221375,-15.503817000000002,2019-09-07 15:34:25,-2.0
2094.0,-0.12817383,0.011108398,0.023132324,66.62595,-18.809160000000002,-21.267176,2019-09-07 15:34:25,-2.0
2095.0,-0.123046875,0.008361816,0.027832031,72.48855,-17.259542,-25.389313,2019-09-07 15:34:25,-2.0
2096.0,-0.1296997,0.02178955,0.024475097999999997,78.66412,-15.877863,-27.022902000000002,2019-09-07 15:34:25,-2.0
2097.0,-0.11743164,0.023132324,0.02734375,72.816795,-20.396946,-19.404581,2019-09-07 15:34:25,-2.0
2098.0,-0.12261963,0.02355957,0.02532959,86.20611,-20.89313,-4.9770994,2019-09-07 15:34:25,-2.0
2099.0,-0.1260376,0.02935791,0.035888672,107.45038000000001,-22.877863,13.549619,2019-09-07 15:34:25,-2.0
2100.0,-0.1307373,0.041320800000000005,0.033508300000000005,127.32061000000002,-23.801527,33.183205,2019-09-07 15:34:25,-2.0
2101.0,-0.12792969,0.052368164,0.034484863,129.89313,-31.19084,61.12214,2019-09-07 15:34:25,-2.0
2102.0,-0.13049316,0.054260254,0.029907227,151.54962,-33.717556,87.52672,2019-09-07 15:34:25,-2.0
2103.0,-0.123168945,0.07397461,0.03656006,153.35878,-36.770992,115.44275,2019-09-07 15:34:25,-2.0
2104.0,-0.12408447,0.07855224599999999,0.032470703,157.0687,-38.625954,144.77863,2019-09-07 15:34:25,-2.0
2105.0,-0.12469482400000001,0.091308594,0.030944824,156.77100000000002,-29.221375,165.01527,2019-09-07 15:34:25,-2.0
2106.0,-0.1171875,0.09527588,0.024475097999999997,152.77100000000002,-23.908398000000002,182.38931000000002,2019-09-07 15:34:25,-2.0
2107.0,-0.09796142599999999,0.09490967,0.020263672,154.28243999999998,-8.946565,190.19847,2019-09-07 15:34:25,-2.0
2108.0,-0.09625244,0.10589599599999999,0.00982666,168.38931000000002,-2.221374,194.93893,2019-09-07 15:34:25,-2.0
2109.0,-0.07476807,0.10534668,0.011108398,164.48856,18.022902,193.3435,2019-09-07 15:34:25,-2.0
2110.0,-0.07098389,0.10394287,0.009338379,147.46565,29.603053999999997,187.66412,2019-09-07 15:34:25,-2.0
2111.0,-0.061767578,0.09362793,-0.006042480500000001,147.35115,24.366413,179.771,2019-09-07 15:34:25,-2.0
2112.0,-0.04876709,0.09240723,-0.0020751953,149.45038,13.320610999999998,161.8855,2019-09-07 15:34:25,-2.0
2113.0,-0.03387451,0.09826660000000001,-0.0087890625,122.46565,3.8625953,139.51908999999998,2019-09-07 15:34:25,-2.0
2114.0,-0.024414062,0.09643555,-0.026794434,123.57252,-1.1679389999999998,114.14503500000001,2019-09-07 15:34:25,-2.0
2115.0,-0.010070800999999999,0.08917236,-0.035339355,108.20611000000001,-17.801527,102.12214,2019-09-07 15:34:25,-2.0
2116.0,0.0007934570299999999,0.08807373,-0.02923584,74.854965,-9.572519,78.061066,2019-09-07 15:34:25,-2.0
2117.0,0.006042480500000001,0.095825195,-0.037963867000000005,87.0458,2.129771,59.053436,2019-09-07 15:34:25,-2.0
2118.0,-0.0017700195,0.11645508,-0.04058838,30.87023,-13.106871,47.610687,2019-09-07 15:34:25,-2.0
2119.0,-0.00042724610000000003,0.15338135,-0.0025024414000000004,-16.190839999999998,3.40458,11.938931,2019-09-07 15:34:25,-2.0
2120.0,-0.019042969,0.109313965,-0.036071777,-22.152672,-48.648853,32.78626,2019-09-07 15:34:26,-2.0
2121.0,-0.00036621094,0.10198974599999999,-0.041748047,-6.740458,-75.57252,49.358779999999996,2019-09-07 15:34:26,-2.0
2122.0,0.018371582,0.08679199,-0.08581543,45.862595,-88.824425,31.32061,2019-09-07 15:34:26,-2.0
2123.0,0.041320800000000005,0.08441162,-0.10308838,-15.748092000000002,-48.427483,38.358779999999996,2019-09-07 15:34:26,-2.0
2124.0,0.021118164,0.080078125,-0.0993042,67.66412,-22.908398000000002,19.755726,2019-09-07 15:34:26,-2.0
2125.0,0.030456543,0.10107422,-0.0925293,36.473279999999995,-46.78626,26.832062,2019-09-07 15:34:26,-2.0
2126.0,0.023376465,0.08618164,-0.10144043,13.343511999999999,-17.335878,28.687022999999996,2019-09-07 15:34:26,-2.0
2127.0,0.008544922,0.070129395,-0.10015869,40.21374,-25.87023,29.687022999999996,2019-09-07 15:34:26,-2.0
2128.0,0.011291503999999999,0.07910156,-0.08764648400000001,54.78626,-22.923664000000002,38.633587,2019-09-07 15:34:26,-2.0
2129.0,0.012451172,0.06854248,-0.07232666,48.351147,-12.236641,42.366413,2019-09-07 15:34:26,-2.0
2130.0,0.0079956055,0.08203125,-0.07983398400000001,49.801525,-20.42748,42.412212,2019-09-07 15:34:26,-2.0
2131.0,0.015014648,0.07940674,-0.06860351599999999,27.412214000000002,-10.7786255,49.374046,2019-09-07 15:34:26,-2.0
2132.0,0.01361084,0.0881958,-0.060546875,20.923664000000002,-16.259542,51.55725,2019-09-07 15:34:26,-2.0
2133.0,0.014221191000000001,0.06011963,-0.078125,-13.274809,-2.2824428,57.938930000000006,2019-09-07 15:34:26,-2.0
2134.0,0.009094238000000001,0.089904785,-0.056884765999999996,79.183205,-17.251910000000002,50.885498,2019-09-07 15:34:26,-2.0
2135.0,0.02508545,0.099121094,-0.09051514,34.648853,-51.48855,62.106869999999994,2019-09-07 15:34:26,-2.0
2136.0,0.019104003999999997,0.10003662,-0.097717285,40.656490000000005,-10.305344,50.389313,2019-09-07 15:34:26,-2.0
2137.0,0.008178711,0.09094238,-0.10192871,8.0,-23.06107,53.78626,2019-09-07 15:34:26,-2.0
2138.0,0.014221191000000001,0.09100342,-0.09216308599999999,-3.6030532999999996,-24.862595000000002,53.106869999999994,2019-09-07 15:34:26,-2.0
2139.0,0.0078125,0.1026001,-0.10852051,11.435115,-45.48855,51.305344,2019-09-07 15:34:26,-2.0
2140.0,-0.009399414,0.117004395,-0.11431885,4.809159999999999,-33.923664,45.580154,2019-09-07 15:34:26,-2.0
2141.0,-0.004760742,0.09796142599999999,-0.10369873,-88.91603,-60.458015,57.49618,2019-09-07 15:34:26,-2.0
2142.0,-0.012573242,0.06927489999999999,-0.15374756,-9.465649,-97.96183,41.900764,2019-09-07 15:34:26,-2.0
2143.0,-0.011291503999999999,0.09613037,-0.13171387,63.12214,-53.74046,36.91603,2019-09-07 15:34:26,-2.0
2144.0,-0.016052246000000003,0.111816406,-0.11895752,-51.93893,-58.427482999999995,55.885498,2019-09-07 15:34:26,-2.0
2145.0,-0.020874023000000002,0.09429932,-0.09997558599999999,-60.870228000000004,-33.503820000000005,67.41984599999999,2019-09-07 15:34:26,-2.0
2146.0,-0.022521972999999997,0.09210205,-0.085998535,-92.900764,-48.404579999999996,88.48092,2019-09-07 15:34:26,-2.0
2147.0,-0.021606445,0.061950684000000006,-0.08129883,-107.55725,-72.70229,96.908394,2019-09-07 15:34:26,-2.0
2148.0,-0.013977051,0.044921875,-0.087402344,-45.229008,-96.24428,90.41221999999999,2019-09-07 15:34:26,-2.0
2149.0,-0.005126953,0.057373047,-0.091308594,-30.412214000000002,-104.0229,93.9771,2019-09-07 15:34:26,-2.0
2150.0,0.007019043000000001,0.057983400000000004,-0.09045410000000001,-32.679390000000005,-91.618324,96.96183,2019-09-07 15:34:26,-2.0
2151.0,0.014160156,0.064575195,-0.090026855,-28.396946000000003,-93.458015,96.099236,2019-09-07 15:34:26,-2.0
2152.0,0.019042969,0.057678223,-0.08691406,-14.015267000000001,-91.43511,94.33588,2019-09-07 15:34:26,-2.0
2153.0,0.026306152000000003,0.06860351599999999,-0.08862305,-19.145039,-76.03053,83.46565,2019-09-07 15:34:26,-2.0
2154.0,0.03491211,0.05718994,-0.08825683599999999,-7.9465647,-65.58015400000001,74.28244000000001,2019-09-07 15:34:26,-2.0
2155.0,0.028869628999999997,0.06976318,-0.08856201,1.5572518999999998,-56.0,57.12214,2019-09-07 15:34:26,-2.0
2156.0,0.03375244,0.07080078,-0.09039307,5.8244276,-30.160304999999997,44.14504,2019-09-07 15:34:27,-2.0
2157.0,0.020690918,0.07849121,-0.09094238,2.1221373,-24.045801,32.625954,2019-09-07 15:34:27,-2.0
2158.0,0.026428222999999997,0.08081055,-0.10058594,12.709924,-17.122137,17.961832,2019-09-07 15:34:27,-2.0
2159.0,0.027282715,0.08996582,-0.11730957,3.2900763,1.1068702,5.236641400000001,2019-09-07 15:34:27,-2.0
2160.0,0.017456055,0.09106445,-0.104003906,-22.717558,19.824427,-2.3969467,2019-09-07 15:34:27,-2.0
2161.0,0.013977051,0.08538818,-0.10980224599999999,-23.030535,11.2595415,-13.473282999999999,2019-09-07 15:34:27,-2.0
2162.0,0.019714355,0.07769775400000001,-0.11883545,8.2595415,18.236639999999998,-28.114503999999997,2019-09-07 15:34:27,-2.0
2163.0,0.008911133,0.09051514,-0.11694336,16.076335999999998,37.0229,-39.206109999999995,2019-09-07 15:34:27,-2.0
2164.0,0.0049438477,0.09320068,-0.08428955,-13.473282999999999,72.40458000000001,-37.862595,2019-09-07 15:34:27,-2.0
2165.0,0.0026245116999999997,0.07006836,-0.08654785,-16.587785999999998,39.305344,-39.129771999999996,2019-09-07 15:34:27,-2.0
2166.0,0.018920898000000002,0.07507324,-0.09552002,-11.068703,38.412212,-45.755726,2019-09-07 15:34:27,-2.0
2167.0,0.00579834,0.08148193,-0.09851074,-1.9160305,57.580154,-49.801525,2019-09-07 15:34:27,-2.0
2168.0,0.0029296875,0.08666992,-0.09442139,-13.290076000000001,37.549618,-45.89313,2019-09-07 15:34:27,-2.0
2169.0,0.011108398,0.07470703,-0.09613037,-27.519083000000002,40.015266,-42.374046,2019-09-07 15:34:27,-2.0
2170.0,-0.0021972656,0.07739258,-0.08947754,-14.015267000000001,47.198475,-37.206109999999995,2019-09-07 15:34:27,-2.0
2171.0,0.0026855469,0.08288574,-0.07781982400000001,-4.5725193,38.770992,-33.206109999999995,2019-09-07 15:34:27,-2.0
2172.0,-0.00048828125,0.07916260000000001,-0.08160400400000001,-0.54198474,34.717556,-26.641221999999996,2019-09-07 15:34:27,-2.0
2173.0,0.0034790040000000004,0.08166504,-0.07312012,-1.1068702,31.030534999999997,-22.595419,2019-09-07 15:34:27,-2.0
2174.0,0.0025634766,0.08831787,-0.07623291,5.343511599999999,22.343512,-19.793894,2019-09-07 15:34:27,-2.0
2175.0,0.0073242188,0.08972168,-0.074157715,-1.8549619,23.045801,-17.816793,2019-09-07 15:34:27,-2.0
2176.0,0.011291503999999999,0.09136963,-0.07635498,0.26717559,19.549618,-14.977098999999999,2019-09-07 15:34:27,-2.0
2177.0,0.006225586,0.08215332,-0.07928467,-4.89313,13.129771,-16.045801,2019-09-07 15:34:27,-2.0
2178.0,0.008972168,0.091796875,-0.08502197,-3.206107,10.198473,-15.114504,2019-09-07 15:34:27,-2.0
2179.0,0.010437011999999999,0.09576416,-0.08862305,-13.465648999999999,8.480916,-13.496182999999998,2019-09-07 15:34:27,-2.0
2180.0,0.009887695,0.10113525400000001,-0.0993042,-14.40458,-1.5954198999999998,-14.519084,2019-09-07 15:34:27,-2.0
2181.0,0.0033569335999999996,0.10656738,-0.1026001,-16.694656,2.8244274,-12.572519,2019-09-07 15:34:27,-2.0
2182.0,-0.0032958984000000004,0.09979248,-0.10125732400000001,-28.526718,0.35114503,-9.412213000000001,2019-09-07 15:34:27,-2.0
2183.0,-0.00091552734,0.09423828,-0.10028076,-6.1374044,-18.259542,-9.572519,2019-09-07 15:34:27,-2.0
2184.0,0.0037231445,0.10473633,-0.113464355,9.312977,-22.610687,-11.160305000000001,2019-09-07 15:34:27,-2.0
2185.0,0.0018310547,0.09887695,-0.100097656,-19.412214000000002,20.343512,-1.4427481000000002,2019-09-07 15:34:27,-2.0
2186.0,-0.0041503906,0.08758545,-0.07104492,-14.763359,-2.7862597,6.442748,2019-09-07 15:34:27,-2.0
2187.0,0.01171875,0.089904785,-0.09057617,-9.511451,-17.816793,12.076336,2019-09-07 15:34:27,-2.0
2188.0,-0.0012207030999999999,0.08953857400000001,-0.09814453,-11.755725,12.702291,12.083969,2019-09-07 15:34:27,-2.0
2189.0,-0.0037231445,0.09057617,-0.08551025400000001,-24.42748,11.480916,17.08397,2019-09-07 15:34:27,-2.0
2190.0,0.0007934570299999999,0.07983398400000001,-0.0871582,-17.725191,-12.954199000000001,17.992367,2019-09-07 15:34:27,-2.0
2191.0,0.004333496,0.07989502,-0.08746338,0.32824427,7.847328,13.709923999999999,2019-09-07 15:34:28,-2.0
2192.0,0.004028320300000001,0.08618164,-0.078308105,0.8396947,4.923664,15.641221,2019-09-07 15:34:28,-2.0
2193.0,0.009277344,0.08294678,-0.074035645,-4.259542,-4.2977099999999995,15.541985,2019-09-07 15:34:28,-2.0
2194.0,0.0099487305,0.08343506,-0.07647705,0.28244275,-0.21374045,15.0992365,2019-09-07 15:34:28,-2.0
2195.0,0.016235351999999998,0.070129395,-0.06829834,4.0,1.1297709999999999,12.282442999999999,2019-09-07 15:34:28,-2.0
2196.0,0.027709961,0.07543945,-0.08630371,17.282442,-8.412213000000001,8.145039,2019-09-07 15:34:28,-2.0
2197.0,0.022033691,0.08569336,-0.08013916,8.083969,6.0992365,6.5725193,2019-09-07 15:34:28,-2.0
2198.0,0.023803711,0.08172607400000001,-0.07904053,17.923664000000002,6.9923663000000005,0.77862597,2019-09-07 15:34:28,-2.0
2199.0,0.026550293,0.08795166,-0.08935547,6.3893127,11.885496,-0.259542,2019-09-07 15:34:28,-2.0
2200.0,0.022399902000000003,0.08520508,-0.087402344,15.091603,18.610687,-2.8625952999999997,2019-09-07 15:34:28,-2.0
2201.0,0.029174805,0.09020996,-0.09112549,-8.572519,23.450382,-4.7175574000000005,2019-09-07 15:34:28,-2.0
2202.0,0.029541016,0.10021973,-0.09863281,-7.0839696,18.374046,-9.816792999999999,2019-09-07 15:34:28,-2.0
2203.0,0.014160156,0.10803223,-0.10632324,-2.7480917000000002,22.87023,-13.091603,2019-09-07 15:34:28,-2.0
2204.0,0.022583007999999998,0.113464355,-0.111328125,-14.374045,32.450382,-16.244274,2019-09-07 15:34:28,-2.0
2205.0,0.0138549805,0.10546875,-0.11273193,-31.29771,35.961834,-17.793894,2019-09-07 15:34:28,-2.0
2206.0,0.012329102,0.10498047,-0.11547851599999999,-26.175573,26.503816999999998,-24.473282,2019-09-07 15:34:28,-2.0
2207.0,0.01373291,0.105407715,-0.11315918,-42.717556,52.85496,-28.496183000000002,2019-09-07 15:34:28,-2.0
2208.0,0.008239746,0.07727051,-0.07232666,-83.503815,82.71755999999999,-20.709923,2019-09-07 15:34:28,-2.0
2209.0,0.008056641,0.052368164,-0.068237305,-48.816795,31.885496000000003,-23.152672,2019-09-07 15:34:28,-2.0
2210.0,0.025268555,0.06945801,-0.08581543,-8.366412,38.93893,-32.687022999999996,2019-09-07 15:34:28,-2.0
2211.0,0.017578125,0.07910156,-0.08807373,-19.541985,59.938930000000006,-40.244274,2019-09-07 15:34:28,-2.0
2212.0,0.014465332,0.076293945,-0.09289551,-10.656488000000001,43.114502,-37.53435,2019-09-07 15:34:28,-2.0
2213.0,0.024291992000000002,0.07006836,-0.09515381,-9.0992365,40.78626,-36.809162,2019-09-07 15:34:28,-2.0
2214.0,0.017028809,0.07525635,-0.08422851599999999,-7.6412214999999994,56.038166000000004,-39.015266,2019-09-07 15:34:28,-2.0
2215.0,0.010559082,0.08062744,-0.08068848,-8.19084,49.0229,-36.114502,2019-09-07 15:34:28,-2.0
2216.0,0.015258788999999998,0.07745361,-0.08300781,-13.511451000000001,45.992367,-32.91603,2019-09-07 15:34:28,-2.0
2217.0,0.009521484,0.07885742,-0.07916260000000001,3.2137403,47.06107,-33.427483,2019-09-07 15:34:28,-2.0
2218.0,0.014465332,0.09423828,-0.08044433599999999,1.648855,44.08397,-30.923664000000002,2019-09-07 15:34:28,-2.0
2219.0,0.01776123,0.08764648400000001,-0.07897949,-11.984733,47.76336,-27.526718,2019-09-07 15:34:28,-2.0
2220.0,0.024353027000000003,0.08905029,-0.080200195,-10.19084,47.244274,-27.38168,2019-09-07 15:34:28,-2.0
2221.0,0.02130127,0.093811035,-0.08270264,3.70229,40.641220000000004,-27.343512,2019-09-07 15:34:28,-2.0
2222.0,0.018493652,0.09295654,-0.08917236,0.122137405,40.633587,-26.732824,2019-09-07 15:34:28,-2.0
2223.0,0.02178955,0.09857178,-0.083862305,-4.603053599999999,40.572517,-23.458015,2019-09-07 15:34:28,-2.0
2224.0,0.017578125,0.10522461,-0.090026855,-0.77862597,33.641220000000004,-27.625953999999997,2019-09-07 15:34:28,-2.0
2225.0,0.01184082,0.10168457,-0.080566406,-9.2595415,39.412212,-24.603054,2019-09-07 15:34:28,-2.0
2226.0,0.015686035,0.10668945,-0.08361816400000001,11.7786255,26.793894,-29.885496000000003,2019-09-07 15:34:28,-2.0
2227.0,0.01586914,0.09899902,-0.09436035,-0.73282444,15.251907999999998,-26.992366999999998,2019-09-07 15:34:29,-2.0
2228.0,0.016784668,0.06842041,-0.09967041,30.51145,-0.28244275,-25.648854999999998,2019-09-07 15:34:29,-2.0
2229.0,0.008728027,0.11297607400000001,-0.09454346,163.12978,-15.312976999999998,-60.83969499999999,2019-09-07 15:34:29,-2.0
2230.0,-0.017944336,0.1449585,-0.09857178,48.83206,7.1450380000000004,-48.83206,2019-09-07 15:34:29,-2.0
2231.0,-0.014770508,0.08758545,-0.07543945,-25.175573,42.038166,-28.167938,2019-09-07 15:34:29,-2.0
2232.0,-0.0072021483999999995,0.08666992,-0.064941406,49.206109999999995,-3.59542,-24.702289999999998,2019-09-07 15:34:29,-2.0
2233.0,-0.0037841796999999997,0.09875488,-0.08233642599999999,-14.335876999999998,15.152672,-8.442748,2019-09-07 15:34:29,-2.0
2234.0,-0.014709473,0.09051514,-0.085998535,-29.687022999999996,31.114503999999997,-9.992367,2019-09-07 15:34:29,-2.0
2235.0,-0.007019043000000001,0.085998535,-0.09326172,-28.282442,8.725191,-0.35114503,2019-09-07 15:34:29,-2.0
2236.0,-0.002380371,0.081848145,-0.09265137,-22.435114000000002,12.854961,-2.1145039,2019-09-07 15:34:29,-2.0
2237.0,-0.0072631836,0.0758667,-0.08520508,-24.480917,20.984734,-0.6335878,2019-09-07 15:34:29,-2.0
2238.0,-0.0067749023,0.07983398400000001,-0.08166504,-18.717558,7.1984735,2.2595419999999997,2019-09-07 15:34:29,-2.0
2239.0,0.002319336,0.08013916,-0.07867432,-28.625953999999997,8.854961,6.6946563999999995,2019-09-07 15:34:29,-2.0
2240.0,0.010803223,0.06799316400000001,-0.06665039,4.1679387000000006,2.4580152,1.9923664,2019-09-07 15:34:29,-2.0
