measurement,Acc_X,Acc_Y,Acc_Z,Gyr_X,Gyr_Y,Gyr_Z,Time(hh:mm:ss),Label
349.0,-0.0014038085999999999,-0.12225342,0.050231934000000006,1.1297709999999999,6.2061067,-4.412214,2019-08-29 13:09:00,18.0
350.0,0.0021972656,-0.11529541,0.045043945,-0.8854962,7.0229006,-4.114504,2019-08-29 13:09:00,18.0
351.0,0.0037841796999999997,-0.11596680000000001,0.041809082000000004,-5.9694657,3.1450381000000003,-1.3206106000000002,2019-08-29 13:09:00,18.0
352.0,-0.0048828125,-0.11975098,0.051574707000000004,-6.8015265,6.9541984,-4.0305343,2019-08-29 13:09:00,18.0
353.0,0.0067749023,-0.12414551,0.05505371,-2.5038167999999996,4.3511453,-3.351145,2019-08-29 13:09:00,18.0
354.0,-0.001953125,-0.1149292,0.052001953,-8.320611,2.9160306,-3.7633588,2019-08-29 13:09:00,18.0
355.0,0.0033569335999999996,-0.10864258,0.05340576,-5.0839696,5.4351144,-3.2671757,2019-08-29 13:09:00,18.0
356.0,0.0037231445,-0.11895752,0.05340576,-6.5725193,4.59542,-1.5038168,2019-08-29 13:09:00,18.0
357.0,0.0012207030999999999,-0.11785889,0.057373047,-4.6793895,6.7328243,-2.793893,2019-08-29 13:09:00,18.0
358.0,-0.007385254,-0.11853027,0.046936035,-5.4656487,4.7862597000000004,-2.0687022,2019-08-29 13:09:00,18.0
359.0,0.007751465,-0.11993408,0.052978515999999996,-2.3282442000000003,4.8778625,-2.9923662999999996,2019-08-29 13:09:00,18.0
360.0,0.008361816,-0.12207031,0.049682617000000005,-5.7175574000000005,4.923664,-2.2671757,2019-08-29 13:09:00,18.0
361.0,-0.0033569335999999996,-0.113464355,0.051696777,-7.0076336999999995,5.4274807,-2.8931298,2019-08-29 13:09:00,18.0
362.0,0.0032958984000000004,-0.12329101599999999,0.04541015599999999,-5.0610685,5.633588,-2.4122138,2019-08-29 13:09:00,18.0
363.0,0.0038452148,-0.12384033,0.0423584,1.9770991999999998,5.0839696,-2.3969467,2019-08-29 13:09:00,18.0
364.0,-0.0008544922000000001,-0.11810303,0.051757812,7.587786,6.3893127,-2.2900763,2019-08-29 13:09:00,18.0
365.0,0.0040893555,-0.12408447,0.04626465,11.938931,4.3587785000000006,-0.9541985000000001,2019-08-29 13:09:00,18.0
366.0,0.0045166016,-0.11694336,0.040649414,16.740458,6.4503818,-0.49618322,2019-08-29 13:09:00,18.0
367.0,-0.001159668,-0.11364746,0.06024169999999999,12.198473,4.7022900000000005,1.5648855,2019-08-29 13:09:00,18.0
368.0,-0.0031738281,-0.11828613,0.05053711,13.366412,2.8091602000000004,1.519084,2019-08-29 13:09:00,18.0
369.0,0.006591797,-0.11505127,0.059814453,10.21374,5.7175574000000005,-1.1679389999999998,2019-08-29 13:09:00,18.0
370.0,0.005737304699999999,-0.10705566400000001,0.057861328,-0.022900764,1.8015267,-1.0534351,2019-08-29 13:09:00,18.0
371.0,0.0015869141,-0.10949707,0.061706542999999996,-8.297709,3.7175572,-1.7633588,2019-08-29 13:09:00,18.0
372.0,0.0073242188,-0.11260986,0.059020996,-2.1908397999999996,1.7328244,-3.793893,2019-08-29 13:09:00,18.0
373.0,0.005737304699999999,-0.10986328,0.059570312,-3.3358779999999997,4.2061067,-4.9160304,2019-08-29 13:09:00,18.0
374.0,-0.0025024414000000004,-0.11694336,0.05493164,-8.687023,4.7099237,-5.2671757,2019-08-29 13:09:00,18.0
375.0,0.0075683593999999995,-0.11206055,0.06408691400000001,-8.801527,4.6488547,-4.2671757,2019-08-29 13:09:00,18.0
376.0,0.0064086914,-0.119628906,0.06463623,-10.091603,5.6488547,-2.3435113,2019-08-29 13:09:00,18.0
377.0,0.0065307617,-0.10589599599999999,0.052368164,-12.954199000000001,6.80916,-2.3664122000000005,2019-08-29 13:09:00,18.0
378.0,0.0033569335999999996,-0.1171875,0.06359863,-10.2595415,4.9389315,-3.3587787000000002,2019-08-29 13:09:00,18.0
379.0,0.00036621094,-0.123168945,0.054748535,-15.106871,6.442748,-1.4198473999999999,2019-08-29 13:09:00,18.0
380.0,0.013549805,-0.10888672,0.052978515999999996,-15.114504,5.2519083,-3.3358779999999997,2019-08-29 13:09:00,18.0
381.0,0.009643555,-0.11730957,0.052368164,-12.992367,7.885496000000001,-4.0152674,2019-08-29 13:09:00,18.0
382.0,-0.009155273,-0.11230469,0.051452637,-17.213741,5.7709923,-1.9160305,2019-08-29 13:09:00,18.0
383.0,0.0036010741999999997,-0.12078857400000001,0.052368164,-16.816793,7.152672,-2.3358779999999997,2019-08-29 13:09:00,18.0
384.0,0.0007324219,-0.11090088,0.060302734000000004,-14.908397,6.145038,-2.4961832000000004,2019-08-29 13:09:01,18.0
385.0,0.012878418,-0.11639404,0.057556152,-11.984733,7.2442746,-2.2519082999999998,2019-08-29 13:09:01,18.0
386.0,0.007385254,-0.11938476599999999,0.05328369,-13.297709,7.8244276,-3.534351,2019-08-29 13:09:01,18.0
387.0,-0.0119018555,-0.11889648400000001,0.057006836,-2.8549618999999997,5.6183205,-1.1297709999999999,2019-08-29 13:09:01,18.0
388.0,0.008056641,-0.11730957,0.053771973,-2.0305343000000002,3.6030532999999996,0.66412216,2019-08-29 13:09:01,18.0
389.0,0.0032348633000000003,-0.11059569999999999,0.052856445,-3.2290077,5.0305343,-0.8396947,2019-08-29 13:09:01,18.0
390.0,0.0006713867,-0.10803223,0.059631348,-7.2671757,2.5114503,0.17557251,2019-08-29 13:09:01,18.0
391.0,0.0032958984000000004,-0.11602783,0.045654297,-3.3969467000000004,2.1450381000000003,1.1679389999999998,2019-08-29 13:09:01,18.0
392.0,-0.00091552734,-0.12268066400000001,0.060180664,-0.45038167,-0.6946565,1.8549619,2019-08-29 13:09:01,18.0
393.0,-0.0067749023,-0.11773682,0.051513672,9.534351,0.8167939000000001,1.2290076,2019-08-29 13:09:01,18.0
394.0,-0.009338379,-0.11956787,0.06005859400000001,-1.7328244,-0.091603056,4.7251905999999995,2019-08-29 13:09:01,18.0
395.0,-0.002380371,-0.12518310000000002,0.05267334,-8.236641,-7.3587785000000006,5.091603299999999,2019-08-29 13:09:01,18.0
396.0,0.013671875,-0.11749267599999999,0.050048828,-2.8854961,-3.1526718,9.229008,2019-08-29 13:09:01,18.0
397.0,0.008483886999999999,-0.11352539,0.06036377,0.0,-3.2595419999999997,7.3053436000000005,2019-08-29 13:09:01,18.0
398.0,0.0048217773,-0.10980224599999999,0.05834961,3.3893129999999996,-8.656488000000001,7.6488547,2019-08-29 13:09:01,18.0
399.0,0.007507324,-0.11590576,0.056518555,6.038168,-10.854961,7.8015265,2019-08-29 13:09:01,18.0
400.0,0.001953125,-0.117248535,0.059509277,9.687023,-10.2595415,2.8549618999999997,2019-08-29 13:09:01,18.0
401.0,-0.005554199,-0.117004395,0.061645507999999995,23.206106,-13.290076000000001,-2.1984732000000005,2019-08-29 13:09:01,18.0
402.0,0.005676269499999999,-0.11846924,0.07305908,31.435114000000002,-12.19084,-6.4961834000000005,2019-08-29 13:09:01,18.0
403.0,0.0075683593999999995,-0.11639404,0.06024169999999999,46.85496,-12.916031,-9.137404,2019-08-29 13:09:01,18.0
404.0,-0.0009765625,-0.12042236,0.057800292999999996,76.10687,-16.549618,-14.885496,2019-08-29 13:09:01,18.0
405.0,0.007507324,-0.09484863,0.07470703,74.94655999999999,-15.679389000000002,-16.534351,2019-08-29 13:09:01,18.0
406.0,0.013244628999999999,-0.093933105,0.051940917999999996,42.923664,-15.259541500000001,-14.312976999999998,2019-08-29 13:09:01,18.0
407.0,0.019592285,-0.08374023400000001,0.051452637,8.755725,-13.427481,-16.93893,2019-08-29 13:09:01,18.0
408.0,0.029785156,-0.07946777,0.05718994,-17.213741,-21.694656,-23.091601999999998,2019-08-29 13:09:01,18.0
409.0,0.026123047000000003,-0.10296631,0.057739257999999995,2.5648854,-18.923664000000002,-36.83206,2019-08-29 13:09:01,18.0
410.0,0.0007324219,-0.20080566,0.12689209,19.374046,6.4274807,0.8167939000000001,2019-08-29 13:09:01,18.0
411.0,0.024597168,-0.11480713,0.050842285,108.51908,-10.19084,-7.099236500000001,2019-08-29 13:09:01,18.0
412.0,0.024536132999999998,-0.07006836,0.06512451,1.4656489,9.541985,12.366412,2019-08-29 13:09:01,18.0
413.0,0.022399902000000003,-0.13635254,0.07373047,49.679390000000005,-11.519084,4.114504,2019-08-29 13:09:01,18.0
414.0,0.032226562,-0.11639404,0.081848145,138.2061,9.312977,-2.427481,2019-08-29 13:09:01,18.0
415.0,0.0053100586,-0.06628418,0.099121094,130.49618999999998,8.145039,1.0534351,2019-08-29 13:09:01,18.0
416.0,0.019104003999999997,-0.052978515999999996,0.10821533,66.80915999999999,4.221374,5.946564700000001,2019-08-29 13:09:01,18.0
417.0,0.0020141601999999997,-0.0871582,0.11407471,29.48855,-3.465649,10.412213000000001,2019-08-29 13:09:01,18.0
418.0,-0.00030517577999999995,-0.06500244,0.1104126,83.83206,-3.129771,1.4427481000000002,2019-08-29 13:09:01,18.0
419.0,0.00390625,-0.041259766,0.14331055,65.57252,14.564885,12.290076,2019-08-29 13:09:01,18.0
420.0,0.018859863,-0.047790527,0.1437378,17.229008,12.419847500000001,15.40458,2019-08-29 13:09:01,18.0
421.0,-0.008605957,-0.051574707000000004,0.16461182,-26.160304999999997,34.885498,21.900763,2019-08-29 13:09:02,18.0
422.0,0.0,-0.053710938,0.1453247,-24.122137,49.15267,20.305344,2019-08-29 13:09:02,18.0
423.0,0.0036621094,-0.04638672,0.12530518,-28.404581,58.679390000000005,16.458015,2019-08-29 13:09:02,18.0
424.0,-0.017211914,-0.047424315999999994,0.11682129,-54.74046,52.0229,14.564885,2019-08-29 13:09:02,18.0
425.0,-0.007690429699999999,-0.05029297,0.09112549,-87.824425,37.656490000000005,12.885496,2019-08-29 13:09:02,18.0
426.0,-0.002380371,-0.07940674,0.06976318,-82.33588,28.801527,9.503817,2019-08-29 13:09:02,18.0
427.0,-0.031677246,-0.07745361,0.080566406,-29.900763,25.038168,-5.4961834000000005,2019-08-29 13:09:02,18.0
428.0,-0.01727295,-0.049926757999999995,0.07824707,-22.419847,7.7557254,-15.496182999999998,2019-08-29 13:09:02,18.0
429.0,0.0033569335999999996,-0.060913086,0.06060791,-83.79389,-14.435115,-13.534351000000001,2019-08-29 13:09:02,18.0
430.0,0.008239746,-0.08428955,0.0546875,-95.16031,-13.679389000000002,-18.770992,2019-08-29 13:09:02,18.0
431.0,0.006652831999999999,-0.081970215,0.04541015599999999,-98.1145,-39.251907,-18.847328,2019-08-29 13:09:02,18.0
432.0,0.014770508,-0.1296997,0.059387207000000004,-66.938934,-24.832062,-20.259542,2019-08-29 13:09:02,18.0
433.0,0.018676758,-0.09411621,0.08551025400000001,-45.16794,-24.969465,-24.038168,2019-08-29 13:09:02,18.0
434.0,0.012084961000000002,-0.1116333,0.09082031,-48.946564,-28.351145000000002,-32.862595,2019-08-29 13:09:02,18.0
435.0,0.024475097999999997,-0.13372803,0.08728027,-23.770992,-41.17557,-41.282444,2019-08-29 13:09:02,18.0
436.0,0.026489257999999998,-0.22747803,0.091918945,50.89313,-10.969465,-11.671756,2019-08-29 13:09:02,18.0
437.0,0.01751709,-0.028869628999999997,0.11419678,105.618324,61.732826,-11.389313000000001,2019-08-29 13:09:02,18.0
438.0,0.017944336,-0.075683594,0.07104492,-42.045803,-19.862595000000002,-1.70229,2019-08-29 13:09:02,18.0
439.0,0.016540527,-0.1361084,0.10559082,38.51145,22.679389999999998,-12.122137,2019-08-29 13:09:02,18.0
440.0,0.017822266,-0.10369873,0.084106445,44.389313,1.9541985,-5.3511453,2019-08-29 13:09:02,18.0
441.0,0.012268066000000001,-0.0881958,0.08166504,24.908398000000002,10.312977,-1.6259542,2019-08-29 13:09:02,18.0
442.0,0.020568848,-0.087890625,0.09814453,23.679389999999998,4.0610685,0.8549618,2019-08-29 13:09:02,18.0
443.0,0.009887695,-0.08441162,0.09777832,12.916031,5.816794,8.419847500000001,2019-08-29 13:09:02,18.0
444.0,-0.0018310547,-0.09765625,0.07263183599999999,35.954197,9.664123,1.0839695,2019-08-29 13:09:02,18.0
445.0,0.0040893555,-0.057617188,0.099609375,41.961834,5.480916000000001,-9.19084,2019-08-29 13:09:02,18.0
446.0,0.021240234,-0.07421875,0.12658691,-16.007633,9.427481,-10.305344,2019-08-29 13:09:02,18.0
447.0,0.015808105,-0.08905029,0.09387207,-21.992367,12.038167999999999,-11.984733,2019-08-29 13:09:02,18.0
448.0,0.009094238000000001,-0.08331299,0.09997558599999999,-12.679389,13.183207000000001,-13.320610999999998,2019-08-29 13:09:02,18.0
449.0,0.0134887695,-0.11077881,0.09045410000000001,5.9923663000000005,3.3053436,-15.59542,2019-08-29 13:09:02,18.0
450.0,0.016662598,-0.091918945,0.09692383,27.717558,6.5419846,-14.832060999999998,2019-08-29 13:09:02,18.0
451.0,0.026855469,-0.06860351599999999,0.10095215,17.152672,3.076336,-9.763359,2019-08-29 13:09:02,18.0
452.0,0.028686523,-0.06469726599999999,0.10571289,-2.70229,4.442748,-13.59542,2019-08-29 13:09:02,18.0
453.0,0.020507812,-0.07678223,0.10064697,-24.030535,18.954199,-10.847328,2019-08-29 13:09:02,18.0
454.0,0.018249512,-0.07952881,0.09716797,-29.67939,14.534351000000001,-8.854961,2019-08-29 13:09:02,18.0
455.0,0.016113281,-0.0859375,0.09289551,-20.534351,11.145039,-8.114504,2019-08-29 13:09:03,18.0
456.0,-0.0045166016,-0.08489989999999999,0.100097656,-8.557252,11.549619,-10.358779,2019-08-29 13:09:03,18.0
457.0,0.016479492,-0.10070801,0.09552002,-1.6412214,4.2442746,-15.564885,2019-08-29 13:09:03,18.0
458.0,0.018127441,-0.09332275400000001,0.09588623,13.603053,-6.374046,-15.244275,2019-08-29 13:09:03,18.0
459.0,0.026916503999999997,-0.07067871,0.09417724599999999,9.366412,-2.3206108,0.6870229,2019-08-29 13:09:03,18.0
460.0,0.022766112999999998,-0.07800293,0.09362793,-5.183206,20.267176,7.862595599999999,2019-08-29 13:09:03,18.0
461.0,0.020385742,-0.05847168,0.10046387,-7.885496000000001,5.366412,-2.053435,2019-08-29 13:09:03,18.0
462.0,0.015991211,-0.08343506,0.106933594,-25.877863,5.259542,-0.90839696,2019-08-29 13:09:03,18.0
463.0,0.012268066000000001,-0.08319092,0.09887695,-8.381680000000001,1.1603054,-8.076336,2019-08-29 13:09:03,18.0
464.0,0.020019531,-0.10998535,0.08770752,19.030535,-6.412214,-8.305344,2019-08-29 13:09:03,18.0
465.0,0.019836426,-0.057434082000000004,0.10974121,18.809160000000002,-0.6259541999999999,-3.8549618999999997,2019-08-29 13:09:03,18.0
466.0,0.018005371000000003,-0.06506348,0.11065674,1.9465648999999998,15.450381,-4.114504,2019-08-29 13:09:03,18.0
467.0,0.016296387,-0.07147217,0.09094238,-7.9160304,12.938931,1.1450381,2019-08-29 13:09:03,18.0
468.0,0.0087890625,-0.07836914,0.095703125,-12.198473,0.9236641,-2.8549618999999997,2019-08-29 13:09:03,18.0
469.0,0.019042969,-0.09289551,0.101379395,-5.412214,-6.7175574000000005,-6.259542,2019-08-29 13:09:03,18.0
470.0,0.031311035,-0.0647583,0.09545898400000001,0.045801528,13.374045,-3.6106870000000004,2019-08-29 13:09:03,18.0
471.0,0.015380858999999998,-0.09637451,0.10180664,-8.748092,13.862596,-0.6335878,2019-08-29 13:09:03,18.0
472.0,-0.0056152343999999995,-0.08532715,0.107299805,13.320610999999998,11.152672,-0.7099236999999999,2019-08-29 13:09:03,18.0
473.0,0.02709961,-0.07757568,0.09814453,-12.0,-22.87023,-7.6106872999999995,2019-08-29 13:09:03,18.0
474.0,0.02734375,-0.088378906,0.09924316400000001,-13.137404,-2.5419848,-4.1297708,2019-08-29 13:09:03,18.0
475.0,0.022399902000000003,-0.029846191,0.13964844,-68.496185,18.824427,5.740458,2019-08-29 13:09:03,18.0
476.0,0.027832031,-0.03112793,0.11010742,-172.81679,22.091601999999998,14.473282999999999,2019-08-29 13:09:03,18.0
477.0,0.016174316,-0.12835693,0.08343506,-158.2519,9.641221,10.053435,2019-08-29 13:09:03,18.0
478.0,0.010009766,-0.07745361,0.115234375,-135.80916000000002,19.603054,14.145039,2019-08-29 13:09:03,18.0
479.0,0.00018310547,-0.15930176,0.06726074,-98.900764,63.396946,21.732824,2019-08-29 13:09:03,18.0
480.0,-0.0040893555,-0.12048339999999998,0.07745361,-31.045801,55.969467,16.167938,2019-08-29 13:09:03,18.0
481.0,0.009338379,-0.10980224599999999,0.066345215,-0.31297709999999995,46.038166,12.572519,2019-08-29 13:09:03,18.0
482.0,-0.0020141601999999997,-0.1149292,0.04510498,50.572517,26.068703,-2.7175572,2019-08-29 13:09:03,18.0
483.0,-0.004638672,-0.09234619,0.03515625,79.31298000000001,15.908397,-20.656488,2019-08-29 13:09:03,18.0
484.0,0.005065918,-0.08489989999999999,0.05596924,40.221375,-10.183207000000001,-27.625953999999997,2019-08-29 13:09:03,18.0
485.0,0.005676269499999999,-0.08166504,0.06024169999999999,-7.519083999999999,-19.786259,-23.801527,2019-08-29 13:09:03,18.0
486.0,0.014587402,-0.1227417,0.08166504,0.97709924,-23.778625,-17.007633,2019-08-29 13:09:03,18.0
487.0,0.025268555,-0.14172363,0.09588623,30.23664,-17.587785999999998,-4.9389315,2019-08-29 13:09:03,18.0
488.0,0.011291503999999999,-0.11547851599999999,0.08752441400000001,48.297709999999995,2.4885497,9.832061,2019-08-29 13:09:03,18.0
489.0,-0.00579834,-0.07250976599999999,0.07965088,28.76336,-4.0458016,12.343511999999999,2019-08-29 13:09:03,18.0
490.0,-0.0079956055,-0.057678223,0.06744385,3.7328242999999994,-5.5038165999999995,2.0458016,2019-08-29 13:09:03,18.0
491.0,-0.0018310547,-0.055480957000000004,0.07061767599999999,-5.2137402999999996,-25.770992,-26.29771,2019-08-29 13:09:04,18.0
492.0,0.05895996,-0.17370605,0.18035889,-32.10687,-44.221375,-32.87786,2019-08-29 13:09:04,18.0
493.0,0.027770996000000003,-0.08245849599999999,0.095214844,45.190838,67.38931,-2.4045799999999997,2019-08-29 13:09:04,18.0
494.0,0.017822266,-0.10632324,0.10406494,-50.770992,12.885496,12.396947,2019-08-29 13:09:04,18.0
495.0,0.040039062,-0.0881958,0.07348633,-24.877863,26.137404999999998,8.702291,2019-08-29 13:09:04,18.0
496.0,0.018798828,-0.105407715,0.0859375,1.1297709999999999,0.65648854,1.0610687,2019-08-29 13:09:04,18.0
497.0,0.022094727,-0.10467529,0.08508301,15.511451000000001,12.206107000000001,-2.8778627,2019-08-29 13:09:04,18.0
498.0,0.016052246000000003,-0.090026855,0.103637695,12.80916,6.480916000000001,-0.099236645,2019-08-29 13:09:04,18.0
499.0,0.016479492,-0.10217285,0.08374023400000001,9.954199000000001,10.328244,5.1374044,2019-08-29 13:09:04,18.0
500.0,0.0029296875,-0.09277344,0.09197998,12.267176,5.3206105,7.885496000000001,2019-08-29 13:09:04,18.0
501.0,0.01171875,-0.07946777,0.088378906,13.969465,7.7862597000000004,2.9541984,2019-08-29 13:09:04,18.0
502.0,0.0036010741999999997,-0.06921387,0.10577392599999999,6.2290077,10.160305000000001,-6.473282299999999,2019-08-29 13:09:04,18.0
503.0,0.007019043000000001,-0.07946777,0.11126709,-4.3587785000000006,2.9770992,-10.923664,2019-08-29 13:09:04,18.0
504.0,0.014282227,-0.099487305,0.093933105,-17.984734,7.2442746,-6.40458,2019-08-29 13:09:04,18.0
505.0,0.010192871,-0.08685303,0.092285156,-9.893129,5.633588,-5.0992365,2019-08-29 13:09:04,18.0
506.0,0.019165039,-0.08746338,0.09735107400000001,-16.862595000000002,6.183206,-6.2900763,2019-08-29 13:09:04,18.0
507.0,0.013122558999999999,-0.0993042,0.085876465,-7.4732823,7.374046000000001,-8.2213745,2019-08-29 13:09:04,18.0
508.0,0.015258788999999998,-0.08764648400000001,0.09887695,-3.0839694,8.847328,-5.7709923,2019-08-29 13:09:04,18.0
509.0,0.025024414,-0.09240723,0.09265137,-1.0610687,7.969465700000001,-4.519083999999999,2019-08-29 13:09:04,18.0
510.0,0.018798828,-0.09057617,0.09533691400000001,-1.1145038999999999,4.946564700000001,-1.2748091000000001,2019-08-29 13:09:04,18.0
511.0,0.016296387,-0.08508301,0.09405517599999999,-1.8167938999999997,5.664122,-1.7480916000000002,2019-08-29 13:09:04,18.0
512.0,0.025695799999999998,-0.09753418,0.10052489999999999,-0.71755725,4.9541984,0.35114503,2019-08-29 13:09:04,18.0
513.0,0.01373291,-0.07751465,0.09545898400000001,3.0229008,5.8702292,-1.9007633999999998,2019-08-29 13:09:04,18.0
514.0,0.011962891000000002,-0.08441162,0.10223389,-4.6488547,7.10687,0.46564886,2019-08-29 13:09:04,18.0
515.0,0.014038086000000002,-0.08312988,0.08831787,-5.1984735,1.8167938999999997,0.27480915,2019-08-29 13:09:04,18.0
516.0,0.010681152,-0.08270264,0.10241699,-6.900763499999999,7.076336,-3.648855,2019-08-29 13:09:04,18.0
517.0,0.009765625,-0.08306885,0.10089111,-15.38168,6.0076336999999995,-6.412214,2019-08-29 13:09:04,18.0
518.0,0.004760742,-0.09039307,0.08404541,-11.603053,5.7480917,-5.1297708,2019-08-29 13:09:04,18.0
519.0,0.014587402,-0.08728027,0.09411621,-6.366412,1.8320610000000002,-5.473282299999999,2019-08-29 13:09:04,18.0
520.0,0.013916016000000002,-0.08898926,0.10028076,-8.2595415,9.480916,-6.1603055,2019-08-29 13:09:04,18.0
521.0,0.015991211,-0.09106445,0.09088135,-8.78626,4.59542,-4.5343513,2019-08-29 13:09:04,18.0
522.0,0.015991211,-0.08709717,0.08526611,-9.0,9.557252,-5.1984735,2019-08-29 13:09:04,18.0
523.0,0.010681152,-0.087402344,0.09033203,-7.137404400000001,5.816794,-2.5954200000000003,2019-08-29 13:09:04,18.0
524.0,0.020629883,-0.084472656,0.099609375,-7.442748,6.961832000000001,-2.3435113,2019-08-29 13:09:04,18.0
525.0,0.014770508,-0.08917236,0.10144043,-4.633588,8.923664,-2.7404580000000003,2019-08-29 13:09:04,18.0
526.0,0.014465332,-0.08697510000000001,0.09436035,2.0839694,7.9465647,-3.5190839999999994,2019-08-29 13:09:04,18.0
527.0,0.016357422,-0.10198974599999999,0.0859375,-8.870229,3.8396947,-0.78625953,2019-08-29 13:09:05,18.0
528.0,0.024475097999999997,-0.08087158,0.09924316400000001,-4.076336,4.1603055,-3.1450381000000003,2019-08-29 13:09:05,18.0
529.0,0.005065918,-0.08050537,0.099121094,-7.160305499999999,8.664123,-2.9923662999999996,2019-08-29 13:09:05,18.0
530.0,0.013122558999999999,-0.08190918,0.0949707,-3.9541983999999997,9.893129,-5.366412,2019-08-29 13:09:05,18.0
531.0,0.010314941,-0.084106445,0.097839355,-2.3358779999999997,6.526717700000001,-2.2366412,2019-08-29 13:09:05,18.0
532.0,0.012145996000000001,-0.08618164,0.09222412,-7.2824425999999995,4.2290077,-1.2061069,2019-08-29 13:09:05,18.0
533.0,0.009643555,-0.08892822,0.09887695,-12.2595415,3.1984732000000005,-5.374046,2019-08-29 13:09:05,18.0
534.0,0.011962891000000002,-0.083496094,0.08917236,-13.549619,4.885496,-3.1221373,2019-08-29 13:09:05,18.0
535.0,0.014770508,-0.09399414,0.09307861,-13.19084,7.5038165999999995,-2.183206,2019-08-29 13:09:05,18.0
536.0,0.016662598,-0.09008789,0.09729004,-0.79389316,9.748092,-5.7251905999999995,2019-08-29 13:09:05,18.0
537.0,0.01953125,-0.090026855,0.09576416,-6.0,3.908397,-1.0229008,2019-08-29 13:09:05,18.0
538.0,0.014953613000000001,-0.07788086,0.10357666,-6.7709923,6.9923663000000005,-2.3664122000000005,2019-08-29 13:09:05,18.0
539.0,0.020202637,-0.09143066400000001,0.09173584,-7.1297708,6.59542,-4.2671757,2019-08-29 13:09:05,18.0
540.0,0.0053710938,-0.09527588,0.09423828,-8.870229,5.664122,-3.648855,2019-08-29 13:09:05,18.0
541.0,0.015014648,-0.08618164,0.09277344,-7.3511453,2.9389312000000003,-5.2137402999999996,2019-08-29 13:09:05,18.0
542.0,0.0115356445,-0.0949707,0.09405517599999999,-2.2519082999999998,6.3129773,-4.7251905999999995,2019-08-29 13:09:05,18.0
543.0,0.016418457,-0.08898926,0.09509277,-1.4351145,8.19084,-3.0229008,2019-08-29 13:09:05,18.0
544.0,0.029785156,-0.09027099599999999,0.09436035,-1.2824427,6.8778625,-2.961832,2019-08-29 13:09:05,18.0
545.0,0.010803223,-0.09552002,0.08972168,-9.954199000000001,6.091603299999999,-3.6564887,2019-08-29 13:09:05,18.0
546.0,0.006713866999999999,-0.09637451,0.09350586,4.190840000000001,2.6641220000000003,-5.4656487,2019-08-29 13:09:05,18.0
547.0,0.01776123,-0.08728027,0.095581055,2.4351146,8.328244,-3.053435,2019-08-29 13:09:05,18.0
548.0,0.02355957,-0.08013916,0.09674072,-5.183206,8.435115,-2.4045799999999997,2019-08-29 13:09:05,18.0
549.0,0.010681152,-0.07910156,0.08459473,-5.6946564,9.9007635,-2.4045799999999997,2019-08-29 13:09:05,18.0
550.0,0.0065307617,-0.08911133,0.10211182,-4.412214,3.2824428,-3.5648854,2019-08-29 13:09:05,18.0
551.0,0.015563965,-0.09069824,0.10070801,-0.35114503,2.6641220000000003,-4.3129773,2019-08-29 13:09:05,18.0
552.0,0.017456055,-0.078186035,0.09820557,-11.160305000000001,-0.41221374,-1.8854961,2019-08-29 13:09:05,18.0
553.0,0.022827148,-0.08880615,0.10064697,-10.526717,7.923664,-2.6641220000000003,2019-08-29 13:09:05,18.0
554.0,0.014282227,-0.08660889,0.09222412,-14.129771,6.8244276,-0.5801527,2019-08-29 13:09:05,18.0
555.0,0.021240234,-0.08850098,0.08581543,0.10687023,3.3206108,-2.5648854,2019-08-29 13:09:05,18.0
556.0,0.020629883,-0.080078125,0.10089111,3.1374047000000003,4.9389315,-2.9694657,2019-08-29 13:09:05,18.0
557.0,0.016967773000000002,-0.07769775400000001,0.10406494,-24.030535,3.6412212999999998,0.83206105,2019-08-29 13:09:05,18.0
558.0,0.0065307617,-0.08679199,0.10455322,-41.068703,13.396947,-0.47328246,2019-08-29 13:09:05,18.0
559.0,0.015991211,-0.09490967,0.09777832,-33.503820000000005,6.1755724,1.6412214,2019-08-29 13:09:05,18.0
560.0,0.010192871,-0.115234375,0.088012695,-2.206107,9.847328,1.8702290000000001,2019-08-29 13:09:05,18.0
561.0,0.021728516,-0.14184570000000002,0.09313965,59.893130000000006,9.923664,9.519084,2019-08-29 13:09:05,18.0
562.0,0.0072021483999999995,-0.14196777,0.11566162,157.46565,37.206109999999995,22.824427,2019-08-29 13:09:06,18.0
563.0,-0.013366699,-0.07305908,0.11907959,175.23665,37.312977000000004,30.93893,2019-08-29 13:09:06,18.0
564.0,-0.022399902000000003,-0.047302246,0.11456299,124.99236,46.14504,27.274809,2019-08-29 13:09:06,18.0
565.0,-0.023254395,-0.038757323999999996,0.09863281,93.56489,42.679390000000005,20.312977,2019-08-29 13:09:06,18.0
566.0,-0.03253174,-0.06707764,0.087890625,126.31298000000001,42.900764,4.656488400000001,2019-08-29 13:09:06,18.0
567.0,-0.020812988,-0.033813477,0.09320068,159.39694,33.862595,-9.549619,2019-08-29 13:09:06,18.0
568.0,-0.010925293,-0.027709961,0.10546875,149.72519,30.595419,-13.083969,2019-08-29 13:09:06,18.0
569.0,-0.026733398,-0.010437011999999999,0.10198974599999999,88.19847,18.816793,-9.854961,2019-08-29 13:09:06,18.0
570.0,0.003540039,0.0029296875,0.11590576,36.572517,-11.610686999999999,-5.3816795,2019-08-29 13:09:06,18.0
571.0,0.020263672,-0.0032348633000000003,0.13317871,-5.0458016,-15.312976999999998,1.70229,2019-08-29 13:09:06,18.0
572.0,0.027709961,-0.04522705,0.11645508,-4.7022900000000005,-5.9694657,8.282442999999999,2019-08-29 13:09:06,18.0
573.0,0.029846191,-0.0138549805,0.1227417,44.702290000000005,-35.984734,5.2519083,2019-08-29 13:09:06,18.0
574.0,0.039733887,-0.009094238000000001,0.15747070000000002,27.67939,-18.091601999999998,7.1679387000000006,2019-08-29 13:09:06,18.0
575.0,0.061645507999999995,0.02520752,0.1484375,11.290076,-22.312977,6.0610685,2019-08-29 13:09:06,18.0
576.0,0.03265381,0.06683349599999999,0.17907715,-161.64122,5.5648856,30.778625,2019-08-29 13:09:06,18.0
577.0,0.03942871,-0.043395996,0.13311768,-197.84734,24.244274,19.412214000000002,2019-08-29 13:09:06,18.0
578.0,0.037597656,-0.028503418,0.11932373,-153.60306,21.473282,7.6412214999999994,2019-08-29 13:09:06,18.0
579.0,0.031433105,-0.019165039,0.12249756,-181.50381000000002,23.847328,7.2671757,2019-08-29 13:09:06,18.0
580.0,0.030944824,-0.047302246,0.10772705,-156.67938,23.755726,-4.0076336999999995,2019-08-29 13:09:06,18.0
581.0,0.01727295,-0.058532715,0.087402344,-132.6565,15.374045,-6.847328,2019-08-29 13:09:06,18.0
582.0,0.017211914,-0.076171875,0.07556152,-97.48855,25.93893,-19.824427,2019-08-29 13:09:06,18.0
583.0,-0.007019043000000001,-0.0680542,0.08001709,-94.74809,10.374044999999999,-20.404581,2019-08-29 13:09:06,18.0
584.0,-0.008422852,-0.08465576,0.07672119,-76.1145,18.351145000000002,-32.351147,2019-08-29 13:09:06,18.0
585.0,-0.028869628999999997,-0.09057617,0.07849121,-60.007633,13.366412,-34.748093,2019-08-29 13:09:06,18.0
586.0,-0.03277588,-0.10235596,0.079589844,-61.396946,5.183206,-32.335876,2019-08-29 13:09:06,18.0
587.0,-0.030151367000000002,-0.10223389,0.09210205,-39.351147,-7.89313,-36.89313,2019-08-29 13:09:06,18.0
588.0,-0.028625487999999998,-0.1149292,0.109313965,-17.732824,-11.748092,-36.366413,2019-08-29 13:09:06,18.0
589.0,-0.022155762000000002,-0.10870361,0.09729004,-2.923664,-18.824427,-32.312977000000004,2019-08-29 13:09:06,18.0
590.0,-0.01727295,-0.09704589999999999,0.09741211,-10.473283,-7.1984735,-31.29771,2019-08-29 13:09:06,18.0
591.0,0.013244628999999999,-0.09112549,0.10852051,-59.312977000000004,-22.282442,-22.519083,2019-08-29 13:09:06,18.0
592.0,0.002746582,-0.12884521,0.09692383,-51.725190000000005,-0.15267175,-2.3969467,2019-08-29 13:09:06,18.0
593.0,0.020751953,-0.12402344,0.07293701,27.122137,-4.0992365,-0.9389313,2019-08-29 13:09:06,18.0
594.0,0.013366699,-0.09185791,0.07196045,45.656490000000005,3.4580152,-8.534351,2019-08-29 13:09:06,18.0
595.0,0.040893555,-0.0960083,0.10021973,47.839695,0.08396947,-15.229007999999999,2019-08-29 13:09:06,18.0
596.0,0.0234375,-0.09259033,0.10437012,71.862595,7.0839696,-7.0229006,2019-08-29 13:09:06,18.0
597.0,0.014709473,-0.07263183599999999,0.07983398400000001,77.32825,13.038167999999999,-4.4351144,2019-08-29 13:09:06,18.0
598.0,0.0146484375,-0.0637207,0.10797119,56.14504,17.022902,-8.526717,2019-08-29 13:09:07,18.0
599.0,0.011291503999999999,-0.09661865,0.10308838,53.274809999999995,2.946565,-14.450381,2019-08-29 13:09:07,18.0
600.0,0.007446289,-0.07879639,0.099121094,81.31298000000001,10.0,-18.717558,2019-08-29 13:09:07,18.0
601.0,0.035705566,-0.041931152,0.12432861,21.12977,-18.862595000000002,-10.19084,2019-08-29 13:09:07,18.0
602.0,0.03137207,-0.04309082,0.12237549,11.450381,13.954199,-6.366412,2019-08-29 13:09:07,18.0
603.0,0.029968262000000002,-0.052612305,0.1171875,-10.274809,5.114504,-3.7480917000000002,2019-08-29 13:09:07,18.0
604.0,0.022094727,-0.08496094,0.10998535,-59.656490000000005,-7.80916,2.557252,2019-08-29 13:09:07,18.0
605.0,0.0029296875,-0.107299805,0.10449219,-2.29771,20.42748,-6.328244000000001,2019-08-29 13:09:07,18.0
606.0,-0.007080078,-0.09210205,0.11016846,31.122137,2.8625952999999997,-3.961832,2019-08-29 13:09:07,18.0
607.0,0.010986328,-0.061645507999999995,0.10577392599999999,36.14504,-8.374044999999999,-11.80916,2019-08-29 13:09:07,18.0
608.0,0.011291503999999999,-0.044006348,0.13250732,13.297709,28.786259,-0.9465648999999999,2019-08-29 13:09:07,18.0
609.0,0.051086426,-0.05218506,0.090026855,-18.87023,-38.931297,4.7709923,2019-08-29 13:09:07,18.0
610.0,0.021911621000000003,-0.067871094,0.12683105,-6.9541984,38.633587,7.099236500000001,2019-08-29 13:09:07,18.0
611.0,0.033508300000000005,-0.078308105,0.11212158,-32.526720000000005,-34.618320000000004,-2.3587787000000002,2019-08-29 13:09:07,18.0
612.0,0.012023926,-0.066223145,0.12109375,-8.7786255,24.671754999999997,-5.9007635,2019-08-29 13:09:07,18.0
613.0,-0.006652831999999999,-0.064453125,0.12109375,9.732824,20.10687,-8.236641,2019-08-29 13:09:07,18.0
614.0,0.021240234,-0.078308105,0.09020996,14.458015,-11.343511999999999,-9.80916,2019-08-29 13:09:07,18.0
615.0,0.0234375,-0.06542969,0.113098145,31.908398,7.6946563999999995,-10.0,2019-08-29 13:09:07,18.0
616.0,0.007873535,-0.0793457,0.13372803,-8.534351,-27.603053999999997,-1.7480916000000002,2019-08-29 13:09:07,18.0
617.0,0.028503418,-0.0637207,0.10900879,-13.870229,41.358779999999996,0.5648854999999999,2019-08-29 13:09:07,18.0
618.0,0.022399902000000003,-0.057373047,0.113098145,-35.290077000000004,-5.6793895,2.6793892,2019-08-29 13:09:07,18.0
619.0,0.028320312,-0.08734131,0.08850098,-23.702289999999998,10.374044999999999,-1.0992366000000002,2019-08-29 13:09:07,18.0
620.0,-0.0037231445,-0.076171875,0.10980224599999999,-3.1526718,-5.763358599999999,-0.22900763,2019-08-29 13:09:07,18.0
621.0,0.014831543,-0.06707764,0.11291504,8.717557000000001,-11.923664,-4.335878,2019-08-29 13:09:07,18.0
622.0,0.03491211,-0.07299805,0.101745605,19.068703,-6.4274807,-4.89313,2019-08-29 13:09:07,18.0
623.0,-0.0048217773,-0.0007324219,0.21374512,4.152672,63.091602,-9.648855000000001,2019-08-29 13:09:07,18.0
624.0,0.058410645,-0.066467285,0.10028076,-9.679389,-6.2824425999999995,-12.648855000000001,2019-08-29 13:09:07,18.0
625.0,0.0087890625,-0.0501709,0.13085938,-24.832062,18.732824,-2.6183207000000004,2019-08-29 13:09:07,18.0
626.0,0.009155273,-0.057495117000000005,0.10266113,-48.923664,14.664123000000002,1.3358778999999998,2019-08-29 13:09:07,18.0
627.0,-0.0022583008,-0.07946777,0.08911133,-8.175572,31.450382,-0.610687,2019-08-29 13:09:07,18.0
628.0,0.003540039,-0.07073974599999999,0.10913086,14.396947,-7.1755724,-10.938931,2019-08-29 13:09:07,18.0
629.0,0.012451172,-0.06542969,0.09832764,3.2748091,4.1755724,-7.5038165999999995,2019-08-29 13:09:07,18.0
630.0,0.024353027000000003,-0.06872558599999999,0.10601807,45.221375,12.961832000000001,-17.694656,2019-08-29 13:09:07,18.0
631.0,0.014404297,-0.078308105,0.115356445,-36.183205,-64.33588,4.4580154,2019-08-29 13:09:07,18.0
632.0,0.040649414,-0.06738281,0.11596680000000001,22.305344,44.0,-3.091603,2019-08-29 13:09:07,18.0
633.0,0.0068359375,-0.032836914,0.12426758,-19.450382,0.71755725,1.1832061000000003,2019-08-29 13:09:07,18.0
634.0,0.017944336,-0.06640625,0.099731445,-39.007633,2.183206,1.3816794,2019-08-29 13:09:08,18.0
635.0,-0.0020141601999999997,-0.08148193,0.08691406,5.0076336999999995,4.7099237,-6.9923663000000005,2019-08-29 13:09:08,18.0
636.0,0.021484375,-0.0769043,0.103393555,23.91603,-7.183206,-6.015267400000001,2019-08-29 13:09:08,18.0
637.0,0.028564452999999997,-0.032104492000000005,0.13043213,33.473279999999995,24.519083,-15.709923999999999,2019-08-29 13:09:08,18.0
638.0,0.0107421875,-0.08435058599999999,0.10424805,-15.40458,-26.274809,-4.221374,2019-08-29 13:09:08,18.0
639.0,0.020019531,-0.056030273,0.10803223,5.2442746,24.068703,-2.2671757,2019-08-29 13:09:08,18.0
640.0,0.011108398,-0.035095215,0.12402344,-32.221375,3.5190839999999994,-3.3206108,2019-08-29 13:09:08,18.0
641.0,0.02935791,-0.06958008,0.10375976599999999,-42.183205,-4.259542,-3.0610687999999997,2019-08-29 13:09:08,18.0
642.0,0.033325195,-0.054992676,0.10406494,-54.007633,-4.6488547,4.480916000000001,2019-08-29 13:09:08,18.0
643.0,0.04107666,-0.06085205,0.11267089999999998,-91.36641,23.167938,11.78626,2019-08-29 13:09:08,18.0
644.0,0.018127441,-0.08251953,0.09643555,-170.35115,18.977098,26.91603,2019-08-29 13:09:08,18.0
645.0,-0.009460449000000001,-0.10015869,0.082214355,-165.0458,23.770992,46.702290000000005,2019-08-29 13:09:08,18.0
646.0,-0.010437011999999999,-0.09197998,0.075683594,-177.45801,-34.89313,48.778625,2019-08-29 13:09:08,18.0
647.0,-0.010009766,-0.10089111,0.09082031,-136.23665,-24.824427,22.908398000000002,2019-08-29 13:09:08,18.0
648.0,0.020935059,-0.08099365,0.12200928,-94.64886,-0.54198474,-4.4198474999999995,2019-08-29 13:09:08,18.0
649.0,0.017822266,-0.16320801,0.03503418,-54.076336,1.2519083999999998,-16.282442,2019-08-29 13:09:08,18.0
650.0,0.026977539,-0.17956543,0.08551025400000001,-21.12977,64.96947,14.687023000000002,2019-08-29 13:09:08,18.0
651.0,0.0073242188,-0.1296997,0.07769775400000001,145.90076000000002,82.061066,-2.3969467,2019-08-29 13:09:08,18.0
652.0,0.028137207,-0.06933594,0.05596924,133.87787,51.10687,-10.488549,2019-08-29 13:09:08,18.0
653.0,0.004272461,-0.07537842,0.09765625,110.80916,56.893130000000006,-10.465649,2019-08-29 13:09:08,18.0
654.0,0.00030517577999999995,-0.06298828,0.10479736,6.0076336999999995,14.770992000000001,9.458015,2019-08-29 13:09:08,18.0
655.0,-0.007080078,-0.11694336,0.08050537,28.015265999999997,12.603053,4.9923663000000005,2019-08-29 13:09:08,18.0
656.0,-0.022888184,-0.091308594,0.06689453,115.49618500000001,14.374045,-8.320611,2019-08-29 13:09:08,18.0
657.0,-0.014343261999999999,-0.060424805,0.083862305,130.49618999999998,-3.2290077,-15.641221,2019-08-29 13:09:08,18.0
658.0,-0.006958008000000001,-0.082092285,0.10015869,144.85497,-10.129771,-29.770992,2019-08-29 13:09:08,18.0
659.0,0.0095825195,-0.093811035,0.10046387,164.64122,-15.923664000000002,-32.473279999999995,2019-08-29 13:09:08,18.0
660.0,0.023010253999999997,-0.014038086000000002,0.09326172,113.73283,-19.885496,-29.580153000000003,2019-08-29 13:09:08,18.0
661.0,0.05999756,0.016296387,0.10748291,-8.893129,-13.610686999999999,-10.603053,2019-08-29 13:09:08,18.0
662.0,0.063964844,-0.10089111,0.17382812,-4.0610685,25.755726,4.221374,2019-08-29 13:09:08,18.0
663.0,0.05419922,-0.01965332,0.18353271,-19.007633,35.618320000000004,11.305344,2019-08-29 13:09:08,18.0
664.0,0.03125,-0.07122803,0.13110352,-86.98473,54.709922999999996,34.46565,2019-08-29 13:09:08,18.0
665.0,0.0041503906,-0.07159424,0.12792969,-75.862595,64.45038000000001,35.14504,2019-08-29 13:09:08,18.0
666.0,0.00970459,-0.018493652,0.109313965,-158.9542,34.160305,44.10687,2019-08-29 13:09:08,18.0
667.0,-0.011657715,-0.05230713,0.054016113,-182.75572,6.7251906,33.404579999999996,2019-08-29 13:09:08,18.0
668.0,-0.016052246000000003,-0.09484863,0.022644043,-140.17557,-11.015267,16.969465,2019-08-29 13:09:08,18.0
669.0,-0.036132812,-0.07324219,0.063964844,-70.19084000000001,-29.351145000000002,-3.9389312000000007,2019-08-29 13:09:08,18.0
670.0,-0.01940918,-0.07861328,0.09722900400000001,-49.351147,-43.267174,-19.778625,2019-08-29 13:09:09,18.0
671.0,-0.014831543,-0.08087158,0.08508301,-51.900764,-38.83206,-19.89313,2019-08-29 13:09:09,18.0
672.0,-0.009460449000000001,-0.10272217,0.09344482400000001,-33.015266,-20.541985,-29.045801,2019-08-29 13:09:09,18.0
673.0,0.0115356445,-0.09936523400000001,0.1161499,-22.824427,-26.610687,-31.89313,2019-08-29 13:09:09,18.0
674.0,0.010253906,-0.099731445,0.095703125,-41.015266,-21.931297,-26.847328000000005,2019-08-29 13:09:09,18.0
675.0,0.03845215,-0.13128662,0.10845947,7.969465700000001,-4.7938933,-19.832062,2019-08-29 13:09:09,18.0
676.0,0.026733398,-0.11053467,0.07952881,13.030535,-8.381680000000001,-3.8015267999999995,2019-08-29 13:09:09,18.0
677.0,0.030944824,-0.09350586,0.07354736,13.916031,11.80916,1.2442749,2019-08-29 13:09:09,18.0
678.0,0.01739502,-0.09100342,0.08624267599999999,23.396946,-4.259542,6.3206105,2019-08-29 13:09:09,18.0
679.0,0.006713866999999999,-0.11596680000000001,0.08636474599999999,48.396946,4.664122,3.3664122000000005,2019-08-29 13:09:09,18.0
680.0,-0.005065918,-0.08898926,0.09686279,55.290077000000004,3.4274809999999998,0.83206105,2019-08-29 13:09:09,18.0
681.0,0.0036621094,-0.07421875,0.10223389,31.595419,-0.6946565,-0.8549618,2019-08-29 13:09:09,18.0
682.0,0.015625,-0.06274414,0.09893799,10.137404,2.8931298,-5.7328243,2019-08-29 13:09:09,18.0
683.0,0.022399902000000003,-0.06756592,0.1083374,-2.0839694,6.053435299999999,-13.236641,2019-08-29 13:09:09,18.0
684.0,0.021057128999999997,-0.08758545,0.0993042,-19.259542,4.442748,-11.549619,2019-08-29 13:09:09,18.0
685.0,0.025878906,-0.0847168,0.099487305,-7.6946563999999995,6.923664,-11.862596,2019-08-29 13:09:09,18.0
686.0,0.00970459,-0.08544922,0.08679199,-14.984732999999999,8.053435,-10.175572,2019-08-29 13:09:09,18.0
687.0,0.024169922000000003,-0.09503174,0.09576416,-13.702291,2.7862597,-4.3893127,2019-08-29 13:09:09,18.0
688.0,0.011962891000000002,-0.08721924,0.09844971,-3.9007633000000004,7.1679387000000006,-2.4732822999999997,2019-08-29 13:09:09,18.0
689.0,0.013244628999999999,-0.085998535,0.09838867,-3.923664,8.21374,-4.2824425999999995,2019-08-29 13:09:09,18.0
690.0,0.016906738,-0.08154297,0.09429932,-8.847328,8.541985,-5.5496182,2019-08-29 13:09:09,18.0
691.0,0.018005371000000003,-0.08514404,0.0993042,-13.442748000000002,2.4503817999999997,-5.5496182,2019-08-29 13:09:09,18.0
692.0,0.019226074,-0.09216308599999999,0.08972168,-12.198473,8.679389,-5.6793895,2019-08-29 13:09:09,18.0
693.0,0.016601562,-0.08843994,0.103515625,-9.526717,9.053435,-4.40458,2019-08-29 13:09:09,18.0
694.0,0.015808105,-0.08654785,0.0914917,-13.2213745,6.1679387000000006,-1.4732825,2019-08-29 13:09:09,18.0
695.0,0.0146484375,-0.08160400400000001,0.09985351599999999,-10.687023,7.9923663000000005,-3.183206,2019-08-29 13:09:09,18.0
696.0,0.017578125,-0.08752441400000001,0.09698486,-11.412213000000001,4.603053599999999,-1.8702290000000001,2019-08-29 13:09:09,18.0
697.0,0.013366699,-0.08843994,0.10247803,-5.0458016,8.358779,-3.1755726,2019-08-29 13:09:09,18.0
698.0,0.022644043,-0.08093262,0.09136963,-12.2595415,3.4198472,-2.1145039,2019-08-29 13:09:09,18.0
699.0,0.016906738,-0.08569336,0.10046387,-10.068703,8.587786999999999,-3.4274809999999998,2019-08-29 13:09:09,18.0
700.0,0.016479492,-0.08758545,0.09539795,-14.61832,3.9007633000000004,-0.58778626,2019-08-29 13:09:09,18.0
701.0,0.016296387,-0.08111572,0.0949707,-9.770992,7.374046000000001,-2.3435113,2019-08-29 13:09:09,18.0
702.0,0.015686035,-0.0925293,0.0914917,-5.038168,5.6793895,-3.8854961,2019-08-29 13:09:09,18.0
703.0,0.016662598,-0.08508301,0.09674072,-4.7862597000000004,4.664122,-2.8549618999999997,2019-08-29 13:09:09,18.0
704.0,0.0095825195,-0.08721924,0.095581055,-8.114504,4.664122,-4.0992365,2019-08-29 13:09:09,18.0
705.0,0.014953613000000001,-0.08703613,0.095214844,-8.129771,5.366412,1.0229008,2019-08-29 13:09:10,18.0
706.0,0.020507812,-0.08959961,0.08953857400000001,-4.8702292,7.3511453,-1.9465648999999998,2019-08-29 13:09:10,18.0
707.0,0.02154541,-0.08337402,0.09100342,-5.053435299999999,5.183206,-1.9236640999999999,2019-08-29 13:09:10,18.0
708.0,0.017700195,-0.08984375,0.09606933599999999,-4.9694657,3.9770992,-1.7480916000000002,2019-08-29 13:09:10,18.0
709.0,0.019348145,-0.082214355,0.09289551,-10.076336,0.6946565,0.84732825,2019-08-29 13:09:10,18.0
710.0,0.017456055,-0.093933105,0.08880615,-8.320611,3.2137403,-0.31297709999999995,2019-08-29 13:09:10,18.0
711.0,0.018615723,-0.09222412,0.08972168,-10.21374,3.2519082999999998,-0.3053435,2019-08-29 13:09:10,18.0
712.0,0.018859863,-0.08862305,0.09765625,-23.480917,7.068702,-2.2671757,2019-08-29 13:09:10,18.0
713.0,0.01953125,-0.09155273400000001,0.08941650400000001,-20.320610000000002,12.793892999999999,-7.541984599999999,2019-08-29 13:09:10,18.0
714.0,0.01727295,-0.09204101599999999,0.097473145,-18.435114000000002,9.580152499999999,-4.740458,2019-08-29 13:09:10,18.0
715.0,0.011108398,-0.08764648400000001,0.090026855,-23.587785999999998,6.442748,-5.4198474999999995,2019-08-29 13:09:10,18.0
716.0,0.026062012000000002,-0.08685303,0.09143066400000001,-20.564885999999998,7.4503818,-3.4503817999999997,2019-08-29 13:09:10,18.0
717.0,0.010314941,-0.091674805,0.08532715,-16.664122,6.3816795,-5.366412,2019-08-29 13:09:10,18.0
718.0,0.013305663999999998,-0.097839355,0.0914917,-17.305344,6.0839696,-2.9923662999999996,2019-08-29 13:09:10,18.0
719.0,0.018615723,-0.10125732400000001,0.08416748,-7.3053436000000005,4.6793895,-2.7251909,2019-08-29 13:09:10,18.0
720.0,0.010925293,-0.08758545,0.08483887,-2.6335877999999995,6.931298,-4.0229006,2019-08-29 13:09:10,18.0
721.0,0.022460938,-0.09643555,0.08825683599999999,-3.7480917000000002,3.4122138,-3.29771,2019-08-29 13:09:10,18.0
722.0,0.018676758,-0.09649658,0.097717285,-4.603053599999999,7.6106872999999995,-3.29771,2019-08-29 13:09:10,18.0
723.0,0.02368164,-0.09210205,0.09271239999999999,-3.40458,1.8167938999999997,-0.7633588000000001,2019-08-29 13:09:10,18.0
724.0,0.020507812,-0.10107422,0.083984375,-4.816794,8.229008,-2.1374047000000003,2019-08-29 13:09:10,18.0
725.0,0.018676758,-0.10290527,0.09210205,1.8167938999999997,6.1221375,-2.2519082999999998,2019-08-29 13:09:10,18.0
726.0,0.021240234,-0.09014892599999999,0.08972168,-1.4122137,4.374046,-2.1526718,2019-08-29 13:09:10,18.0
727.0,0.019836426,-0.099731445,0.08764648400000001,2.9770992,7.557252,-3.6870230000000004,2019-08-29 13:09:10,18.0
728.0,0.016113281,-0.08825683599999999,0.08984375,6.1984735,8.839694999999999,-4.4961834000000005,2019-08-29 13:09:10,18.0
729.0,0.022277832,-0.08746338,0.08911133,1.4122137,3.7557251000000003,-4.0610685,2019-08-29 13:09:10,18.0
730.0,0.009399414,-0.09313965,0.08959961,0.519084,7.2137402999999996,-3.5038167999999996,2019-08-29 13:09:10,18.0
731.0,0.027893066,-0.08984375,0.08709717,2.312977,4.984732599999999,-3.0229008,2019-08-29 13:09:10,18.0
732.0,0.017089844,-0.08483887,0.09057617,3.8931297999999996,7.19084,-2.6717557999999997,2019-08-29 13:09:10,18.0
733.0,0.022949219,-0.09173584,0.09295654,9.7404585,7.923664,-2.6793892,2019-08-29 13:09:10,18.0
734.0,0.01977539,-0.08648682,0.09576416,9.854961,5.847328,-2.6641220000000003,2019-08-29 13:09:10,18.0
735.0,0.013305663999999998,-0.09863281,0.09082031,7.076336,3.2137403,-2.8931298,2019-08-29 13:09:10,18.0
736.0,0.0134887695,-0.088378906,0.0993042,6.9465647,6.0458016,-3.4274809999999998,2019-08-29 13:09:10,18.0
737.0,0.014892578,-0.08758545,0.095825195,4.763358599999999,6.7175574000000005,-3.1603053,2019-08-29 13:09:10,18.0
738.0,0.018371582,-0.07861328,0.097717285,2.7404580000000003,4.7328243,-3.908397,2019-08-29 13:09:10,18.0
739.0,0.019897461,-0.08361816400000001,0.10266113,0.23664123,8.465649,-5.2290077,2019-08-29 13:09:10,18.0
740.0,0.022705077999999997,-0.080078125,0.10046387,-1.3664121999999999,9.106871,-4.40458,2019-08-29 13:09:10,18.0
741.0,0.0115356445,-0.08703613,0.09442139,-4.671755999999999,4.931298,-3.4427480000000004,2019-08-29 13:09:11,18.0
742.0,0.012390136999999999,-0.08758545,0.09460449,-6.1984735,6.5648856,-3.1603053,2019-08-29 13:09:11,18.0
743.0,0.011413574,-0.09155273400000001,0.09332275400000001,-4.9694657,5.3511453,-3.5572519999999996,2019-08-29 13:09:11,18.0
744.0,0.01763916,-0.08795166,0.08868408,-6.9389315,6.183206,-2.2748091,2019-08-29 13:09:11,18.0
745.0,0.018310547,-0.08111572,0.10070801,-3.6412212999999998,5.9007635,-1.8167938999999997,2019-08-29 13:09:11,18.0
746.0,0.014404297,-0.08666992,0.09863281,-4.2748094000000005,5.526717700000001,-1.3740458,2019-08-29 13:09:11,18.0
747.0,0.007446289,-0.089660645,0.10125732400000001,-2.5954200000000003,6.374046,-2.038168,2019-08-29 13:09:11,18.0
748.0,0.012268066000000001,-0.07720947,0.09472656,-3.4198472,6.6488547,-3.3206108,2019-08-29 13:09:11,18.0
749.0,0.010681152,-0.083862305,0.10083008,-6.0610685,5.671755999999999,-2.3282442000000003,2019-08-29 13:09:11,18.0
750.0,0.015808105,-0.085754395,0.09307861,-5.1984735,6.068702,-2.6488549999999997,2019-08-29 13:09:11,18.0
751.0,0.009643555,-0.08856201,0.10058594,-7.656488400000001,5.2137402999999996,-2.2137403,2019-08-29 13:09:11,18.0
752.0,0.02142334,-0.08300781,0.09466553,-4.2748094000000005,6.3587785000000006,-1.70229,2019-08-29 13:09:11,18.0
753.0,0.017456055,-0.08453369,0.09814453,-6.4198474999999995,5.4580154,-3.5267177000000003,2019-08-29 13:09:11,18.0
754.0,0.014465332,-0.07836914,0.10040283,-5.816794,5.3816795,-2.4580152,2019-08-29 13:09:11,18.0
755.0,0.017028809,-0.07983398400000001,0.09643555,-7.9465647,5.40458,-2.6564887,2019-08-29 13:09:11,18.0
756.0,0.016662598,-0.084472656,0.09710693,-7.0610685,5.4351144,-2.8625952999999997,2019-08-29 13:09:11,18.0
757.0,0.015563965,-0.0836792,0.09417724599999999,-7.114503999999999,3.1755726,-2.816794,2019-08-29 13:09:11,18.0
758.0,0.016418457,-0.08331299,0.09985351599999999,-2.8473282,6.6793895,-2.6259542000000002,2019-08-29 13:09:11,18.0
759.0,0.016479492,-0.08374023400000001,0.09918213,-4.8320612999999994,3.9770992,-2.557252,2019-08-29 13:09:11,18.0
760.0,0.009338379,-0.08319092,0.09765625,-7.236641400000001,4.3816795,-2.4732822999999997,2019-08-29 13:09:11,18.0
761.0,0.024963378999999997,-0.09008789,0.09271239999999999,-5.4580154,3.129771,-2.0839694,2019-08-29 13:09:11,18.0
762.0,0.014221191000000001,-0.08276367,0.09429932,-7.19084,6.5038165999999995,-3.4427480000000004,2019-08-29 13:09:11,18.0
763.0,0.0178833,-0.0836792,0.09155273400000001,-6.89313,4.3511453,-2.3740457999999998,2019-08-29 13:09:11,18.0
764.0,0.009765625,-0.08996582,0.09301758,-5.633588,4.9923663000000005,-2.29771,2019-08-29 13:09:11,18.0
765.0,0.01739502,-0.09893799,0.09686279,-6.145038,6.656488400000001,-2.3740457999999998,2019-08-29 13:09:11,18.0
766.0,0.012329102,-0.07910156,0.09924316400000001,-7.7251906,5.885496,-2.221374,2019-08-29 13:09:11,18.0
767.0,0.0234375,-0.082214355,0.09436035,-7.7175574000000005,6.053435299999999,-2.6335877999999995,2019-08-29 13:09:11,18.0
768.0,0.014709473,-0.08886719,0.09674072,-5.7328243,7.465648700000001,-2.4351146,2019-08-29 13:09:11,18.0
769.0,0.023620605,-0.09313965,0.08923339999999999,-4.3511453,6.5343513,-1.8702290000000001,2019-08-29 13:09:11,18.0
770.0,0.011962891000000002,-0.08673096,0.09729004,-5.5725193,3.7633588,-2.1755726,2019-08-29 13:09:11,18.0
771.0,0.01776123,-0.08660889,0.09637451,-7.19084,5.374046,-1.6335878000000001,2019-08-29 13:09:11,18.0
772.0,0.016662598,-0.09625244,0.09753418,-6.335878,6.931298,-3.8473281999999998,2019-08-29 13:09:11,18.0
773.0,0.025878906,-0.07849121,0.10089111,-7.0152674,6.221374,-3.8625953,2019-08-29 13:09:11,18.0
774.0,0.014892578,-0.07965088,0.095581055,-6.4503818,6.2519083,-2.0839694,2019-08-29 13:09:11,18.0
775.0,0.024780273,-0.08026123,0.09326172,-6.740458,6.366412,-2.8473282,2019-08-29 13:09:11,18.0
776.0,0.01361084,-0.08276367,0.10040283,-3.091603,5.5725193,-3.7862597,2019-08-29 13:09:12,18.0
777.0,0.018676758,-0.07788086,0.09375,-4.3129773,6.4961834000000005,-2.6183207000000004,2019-08-29 13:09:12,18.0
778.0,0.013061523,-0.07824707,0.09423828,-5.473282299999999,5.8396945,-2.427481,2019-08-29 13:09:12,18.0
779.0,0.021728516,-0.08374023400000001,0.08758545,-16.076335999999998,1.3816794,-1.2519083999999998,2019-08-29 13:09:12,18.0
780.0,0.020629883,-0.089782715,0.09765625,-11.870229,12.015267,-2.091603,2019-08-29 13:09:12,18.0
781.0,0.02142334,-0.09063721,0.10577392599999999,10.870229,16.610687,-2.5267177000000003,2019-08-29 13:09:12,18.0
782.0,0.010437011999999999,-0.08782959,0.09204101599999999,7.709923700000001,5.809159999999999,-0.8396947,2019-08-29 13:09:12,18.0
783.0,0.01928711,-0.09838867,0.10125732400000001,18.992367,15.083969,-0.061068702,2019-08-29 13:09:12,18.0
784.0,0.0119018555,-0.07458496,0.10607910000000002,15.290076000000001,24.961832,5.2137402999999996,2019-08-29 13:09:12,18.0
785.0,0.01940918,-0.07458496,0.08929443,-2.4503817999999997,8.206107000000001,7.4274807,2019-08-29 13:09:12,18.0
786.0,0.007507324,-0.0769043,0.10809326,-1.4122137,8.816792999999999,2.3740457999999998,2019-08-29 13:09:12,18.0
787.0,0.0068969727,-0.07019043,0.10760498,-17.732824,1.8473282,0.2519084,2019-08-29 13:09:12,18.0
788.0,0.00793457,-0.07977295,0.1083374,-30.923664000000002,-7.0076336999999995,-6.0229006,2019-08-29 13:09:12,18.0
789.0,0.0072631836,-0.08081055,0.09735107400000001,-35.78626,-11.9007635,-8.083969,2019-08-29 13:09:12,18.0
790.0,0.017150878999999997,-0.08435058599999999,0.10040283,-16.091601999999998,0.29007635,-7.8702292,2019-08-29 13:09:12,18.0
791.0,0.016479492,-0.084472656,0.09332275400000001,-10.122137,6.0839696,-6.9465647,2019-08-29 13:09:12,18.0
792.0,0.012878418,-0.09271239999999999,0.10186767599999999,-21.412214000000002,7.183206,-6.6106872999999995,2019-08-29 13:09:12,18.0
793.0,0.013916016000000002,-0.08813476599999999,0.08770752,-8.893129,4.3053436,-4.9923663000000005,2019-08-29 13:09:12,18.0
794.0,0.022155762000000002,-0.08117676,0.089782715,-4.4274807,3.4198472,-5.2442746,2019-08-29 13:09:12,18.0
795.0,0.01928711,-0.08233642599999999,0.09576416,6.2290077,5.847328,-3.8244274,2019-08-29 13:09:12,18.0
796.0,0.010131836,-0.08923339999999999,0.09832764,5.0458016,3.6793892,-4.9160304,2019-08-29 13:09:12,18.0
797.0,0.016235351999999998,-0.08459473,0.10125732400000001,0.091603056,5.0992365,-5.8778625,2019-08-29 13:09:12,18.0
798.0,0.014404297,-0.080078125,0.10321045,-3.4198472,6.091603299999999,-4.519083999999999,2019-08-29 13:09:12,18.0
799.0,0.016479492,-0.08343506,0.09118652,-9.145039,6.839694500000001,-4.0458016,2019-08-29 13:09:12,18.0
800.0,0.016418457,-0.0881958,0.09265137,-5.8396945,8.618319999999999,-3.1984732000000005,2019-08-29 13:09:12,18.0
801.0,0.020385742,-0.08996582,0.09277344,-3.1221373,6.396946400000001,-2.6793892,2019-08-29 13:09:12,18.0
802.0,0.018920898000000002,-0.07983398400000001,0.09136963,4.6106873,6.3206105,-3.183206,2019-08-29 13:09:12,18.0
803.0,0.012634277,-0.07977295,0.09863281,3.4809160000000006,6.1603055,-3.0687022,2019-08-29 13:09:12,18.0
804.0,0.013549805,-0.09320068,0.09924316400000001,-3.8625953,2.6488549999999997,-3.1603053,2019-08-29 13:09:12,18.0
805.0,0.0022583008,-0.10101318,0.09814453,3.8625953,6.4580154,-5.335878,2019-08-29 13:09:12,18.0
806.0,0.024108887000000002,-0.07653808599999999,0.10815430000000001,9.816792999999999,10.870229,0.36641222,2019-08-29 13:09:12,18.0
807.0,0.012451172,-0.07843017599999999,0.10864258,5.1297708,10.526717,4.2824425999999995,2019-08-29 13:09:12,18.0
808.0,0.028625487999999998,-0.06927489999999999,0.09545898400000001,-5.1755724,4.8778625,-0.34351146,2019-08-29 13:09:12,18.0
809.0,0.0115356445,-0.07281494,0.09112549,7.7557254,9.916031,-4.1221375,2019-08-29 13:09:12,18.0
810.0,0.017028809,-0.07342529,0.10723877,-3.6030532999999996,9.198473,-3.0152671000000004,2019-08-29 13:09:12,18.0
811.0,0.012939453,-0.076049805,0.09991455,-7.847328,5.984732599999999,-4.3816795,2019-08-29 13:09:12,18.0
812.0,0.01965332,-0.08380127,0.10681152,-17.496183,6.0610685,-3.3129769999999996,2019-08-29 13:09:13,18.0
813.0,0.011352538999999998,-0.076293945,0.09729004,-29.473282,1.1603054,1.2519083999999998,2019-08-29 13:09:13,18.0
814.0,0.012939453,-0.09350586,0.08276367,-10.396947,2.3282442000000003,-1.8244275,2019-08-29 13:09:13,18.0
815.0,0.020629883,-0.07592773400000001,0.09210205,18.213741,5.0458016,-6.0229006,2019-08-29 13:09:13,18.0
816.0,0.017211914,-0.08117676,0.10607910000000002,3.091603,7.5801525,-3.9007633000000004,2019-08-29 13:09:13,18.0
817.0,0.007507324,-0.07757568,0.10333252,-2.5954200000000003,5.480916000000001,-3.5190839999999994,2019-08-29 13:09:13,18.0
818.0,0.022277832,-0.07373047,0.09240723,-11.236641,2.7480917000000002,-1.9007633999999998,2019-08-29 13:09:13,18.0
819.0,0.014282227,-0.08496094,0.10052489999999999,13.587786999999999,8.381680000000001,-5.3587785000000006,2019-08-29 13:09:13,18.0
820.0,0.019165039,-0.07672119,0.11328125,11.465649,4.8702292,-3.351145,2019-08-29 13:09:13,18.0
821.0,0.022033691,-0.068481445,0.11401367,-7.847328,4.923664,-0.57251906,2019-08-29 13:09:13,18.0
822.0,0.008850098,-0.064941406,0.09698486,-34.450382,9.381680000000001,0.24427481,2019-08-29 13:09:13,18.0
823.0,0.011657715,-0.10516357400000001,0.08160400400000001,-14.030535,4.3816795,-2.6793892,2019-08-29 13:09:13,18.0
824.0,0.008666992,-0.07379150400000001,0.08935547,20.053434,5.4274807,-7.290076299999999,2019-08-29 13:09:13,18.0
825.0,0.024108887000000002,-0.072265625,0.10119629,9.564885,5.5496182,-5.5114503,2019-08-29 13:09:13,18.0
826.0,0.021606445,-0.057250977,0.11651611,0.40458015,-1.1068702,-3.8778627,2019-08-29 13:09:13,18.0
827.0,0.01776123,-0.070129395,0.10974121,-21.297710000000002,6.6335880000000005,-0.73282444,2019-08-29 13:09:13,18.0
828.0,0.010437011999999999,-0.09338379,0.08856201,-30.167938,7.908396700000001,-2.3282442000000003,2019-08-29 13:09:13,18.0
829.0,0.017700195,-0.10058594,0.09277344,4.145038,9.725191,-6.59542,2019-08-29 13:09:13,18.0
830.0,0.010070800999999999,-0.07678223,0.103027344,-0.64122134,10.076336,-3.0458016,2019-08-29 13:09:13,18.0
831.0,0.0034179688000000002,-0.08374023400000001,0.10198974599999999,4.6106873,1.6259542,-3.3816792999999996,2019-08-29 13:09:13,18.0
832.0,0.023010253999999997,-0.07159424,0.10290527,-8.175572,7.7709923,-0.79389316,2019-08-29 13:09:13,18.0
833.0,0.015563965,-0.070129395,0.09320068,-11.854961,7.343511599999999,-2.961832,2019-08-29 13:09:13,18.0
834.0,0.012512207,-0.07409668,0.09490967,-11.114504,5.412214,-3.29771,2019-08-29 13:09:13,18.0
835.0,0.008666992,-0.09301758,0.103027344,-7.8702292,4.6946564,-3.2900763,2019-08-29 13:09:13,18.0
836.0,0.014038086000000002,-0.08483887,0.09936523400000001,5.3053436,-0.03816794,-5.8702292,2019-08-29 13:09:13,18.0
837.0,0.021240234,-0.08239746,0.10308838,4.625954,4.923664,-4.778626,2019-08-29 13:09:13,18.0
838.0,0.014709473,-0.07836914,0.10070801,-16.61832,9.030535,1.9160305,2019-08-29 13:09:13,18.0
839.0,0.010070800999999999,-0.08355713,0.10107422,-29.305344,7.3053436000000005,0.022900764,2019-08-29 13:09:13,18.0
840.0,0.0021362305,-0.093811035,0.09985351599999999,-14.923664000000002,5.0458016,-2.870229,2019-08-29 13:09:13,18.0
841.0,0.018188476999999998,-0.087768555,0.09875488,15.488548999999999,4.816794,-6.8244276,2019-08-29 13:09:13,18.0
842.0,0.013427733999999998,-0.0647583,0.09722900400000001,0.5954198,3.0610687999999997,-3.1068702,2019-08-29 13:09:13,18.0
843.0,0.02520752,-0.07580566400000001,0.10101318,-20.137404999999998,5.3893127,0.10687023,2019-08-29 13:09:13,18.0
844.0,0.010803223,-0.0715332,0.09857178,-6.1221375,12.374044999999999,-4.9694657,2019-08-29 13:09:13,18.0
845.0,0.007751465,-0.08361816400000001,0.10296631,-9.251908,6.190840000000001,-4.89313,2019-08-29 13:09:13,18.0
846.0,0.017700195,-0.08453369,0.10052489999999999,-5.7099237,3.3206108,-5.4274807,2019-08-29 13:09:13,18.0
847.0,0.027893066,-0.07043457,0.10430908,-12.312977,7.4732823,-2.8015267999999995,2019-08-29 13:09:14,18.0
848.0,0.01953125,-0.08477783,0.095825195,-18.244274,12.664123,-0.83206105,2019-08-29 13:09:14,18.0
849.0,0.016967773000000002,-0.085754395,0.09320068,-3.4427480000000004,10.0,-1.6870228999999999,2019-08-29 13:09:14,18.0
850.0,0.009033203,-0.08319092,0.105651855,5.9694657,9.053435,-3.1068702,2019-08-29 13:09:14,18.0
851.0,0.016174316,-0.068847656,0.10198974599999999,-8.458015,0.40458015,-1.7938931,2019-08-29 13:09:14,18.0
852.0,0.0006103515599999999,-0.08489989999999999,0.09924316400000001,-10.557252,5.603053599999999,-4.0305343,2019-08-29 13:09:14,18.0
853.0,0.012634277,-0.07989502,0.09954834,5.59542,8.442748,-8.7404585,2019-08-29 13:09:14,18.0
854.0,0.015808105,-0.07421875,0.10186767599999999,11.435115,4.6488547,-6.847328,2019-08-29 13:09:14,18.0
855.0,0.014526367,-0.07043457,0.111328125,-11.091603,7.2824425999999995,0.06870229,2019-08-29 13:09:14,18.0
856.0,0.022949219,-0.09490967,0.09472656,-27.57252,11.083969,1.7862595000000001,2019-08-29 13:09:14,18.0
857.0,0.0072631836,-0.09967041,0.08557129,-13.61832,2.1145039,-2.4045799999999997,2019-08-29 13:09:14,18.0
858.0,0.018188476999999998,-0.07580566400000001,0.09265137,16.221375,7.839694500000001,-5.8320612999999994,2019-08-29 13:09:14,18.0
859.0,0.017700195,-0.05114746,0.11480713,-20.740458,4.885496,-2.0992367,2019-08-29 13:09:14,18.0
860.0,0.017211914,-0.06976318,0.10314941400000001,-40.053436,20.732824,-3.2595419999999997,2019-08-29 13:09:14,18.0
861.0,0.008178711,-0.07293701,0.10479736,-47.839695,11.80916,-5.8320612999999994,2019-08-29 13:09:14,18.0
862.0,0.013977051,-0.1071167,0.092285156,-29.496183000000002,6.4503818,-11.458015,2019-08-29 13:09:14,18.0
863.0,0.013183594,-0.09802246,0.09143066400000001,-1.610687,-3.5877862,-12.145039,2019-08-29 13:09:14,18.0
864.0,0.014892578,-0.08337402,0.10015869,23.030535,8.290076,-9.0992365,2019-08-29 13:09:14,18.0
865.0,0.020996094,-0.07061767599999999,0.08422851599999999,-6.2519083,6.70229,-4.2748094000000005,2019-08-29 13:09:14,18.0
866.0,0.026245117000000002,-0.07360839999999999,0.10406494,-7.6488547,12.106871,-3.6793892,2019-08-29 13:09:14,18.0
867.0,0.0040893555,-0.087890625,0.09484863,-4.9007635,9.267176,-4.519083999999999,2019-08-29 13:09:14,18.0
868.0,0.0044555664,-0.090026855,0.09490967,-7.9160304,3.053435,-5.5038165999999995,2019-08-29 13:09:14,18.0
869.0,0.015563965,-0.08441162,0.08520508,1.8549619,-0.740458,-6.236641400000001,2019-08-29 13:09:14,18.0
870.0,0.010498047,-0.09075928,0.09118652,7.534351299999999,9.198473,-3.923664,2019-08-29 13:09:14,18.0
871.0,0.023376465,-0.08642578,0.09527588,4.625954,9.122137,-2.3053436,2019-08-29 13:09:14,18.0
872.0,0.013244628999999999,-0.057800292999999996,0.11657715,-9.053435,5.763358599999999,-5.343511599999999,2019-08-29 13:09:14,18.0
873.0,0.013244628999999999,-0.09802246,0.09051514,-15.503817000000002,8.374044999999999,-8.381680000000001,2019-08-29 13:09:14,18.0
874.0,0.017822266,-0.10247803,0.08569336,8.9007635,2.1145039,-7.6946563999999995,2019-08-29 13:09:14,18.0
875.0,0.012878418,-0.07885742,0.10247803,16.267176,8.076336,-6.015267400000001,2019-08-29 13:09:14,18.0
876.0,0.0061035156000000005,-0.07556152,0.1038208,-4.7099237,5.778626,-3.091603,2019-08-29 13:09:14,18.0
877.0,0.016601562,-0.083862305,0.09844971,-3.7175572,8.854961,-1.7633588,2019-08-29 13:09:14,18.0
878.0,0.015991211,-0.09259033,0.09246826,-4.1603055,-3.8167940000000002,-1.2977100000000001,2019-08-29 13:09:14,18.0
879.0,0.026855469,-0.074157715,0.10546875,-7.1984735,-2.0152671000000004,-2.6641220000000003,2019-08-29 13:09:14,18.0
880.0,0.008361816,-0.08166504,0.10003662,-25.496183,4.343511599999999,0.7099236999999999,2019-08-29 13:09:14,18.0
881.0,0.01940918,-0.09777832,0.08453369,-12.664123,5.8320612999999994,-2.7251909,2019-08-29 13:09:14,18.0
882.0,0.0107421875,-0.09552002,0.09454346,15.412213000000001,5.015267400000001,-5.10687,2019-08-29 13:09:14,18.0
883.0,0.01953125,-0.08374023400000001,0.1104126,21.725191,13.557251999999998,-8.511451,2019-08-29 13:09:15,18.0
884.0,0.017028809,-0.07775879,0.11077881,8.274809,3.5877862,-7.40458,2019-08-29 13:09:15,18.0
885.0,0.021911621000000003,-0.07537842,0.11340332,-3.648855,5.59542,-3.3740457999999998,2019-08-29 13:09:15,18.0
886.0,0.014221191000000001,-0.06762695,0.10766601599999999,-12.587786999999999,15.664123000000002,-1.8015267,2019-08-29 13:09:15,18.0
887.0,0.022094727,-0.06640625,0.097595215,-17.526718,15.007632999999998,-3.5496182000000003,2019-08-29 13:09:15,18.0
888.0,-0.0028686523,-0.08245849599999999,0.10437012,-9.908397,11.633588,-1.0152671,2019-08-29 13:09:15,18.0
889.0,0.01171875,-0.08300781,0.10443115,-9.106871,-1.5038168,-4.3816795,2019-08-29 13:09:15,18.0
890.0,0.010925293,-0.09417724599999999,0.10430908,-6.2061067,-2.8091602000000004,-7.2137402999999996,2019-08-29 13:09:15,18.0
891.0,0.014709473,-0.06072998,0.09082031,-10.473283,0.18320611,-5.183206,2019-08-29 13:09:15,18.0
892.0,0.015380858999999998,-0.07659912,0.09985351599999999,-16.053434,16.06107,-3.1526718,2019-08-29 13:09:15,18.0
893.0,0.006225586,-0.08239746,0.09515381,-18.145039,13.9007635,-4.183206,2019-08-29 13:09:15,18.0
894.0,0.013061523,-0.09313965,0.09283447,1.0687023,5.6946564,-8.236641,2019-08-29 13:09:15,18.0
895.0,0.017944336,-0.07391357400000001,0.10076904,0.23664123,3.5801528,-3.4885497,2019-08-29 13:09:15,18.0
896.0,0.026062012000000002,-0.07318115,0.10247803,-10.053435,11.19084,-2.6030533,2019-08-29 13:09:15,18.0
897.0,0.0119018555,-0.08880615,0.10296631,-10.091603,12.068703,-3.8778627,2019-08-29 13:09:15,18.0
898.0,0.021606445,-0.08013916,0.105651855,-1.5725191,5.2519083,-4.396946400000001,2019-08-29 13:09:15,18.0
899.0,0.0119018555,-0.06988525400000001,0.10046387,-12.656488000000001,7.4732823,-3.4351146,2019-08-29 13:09:15,18.0
900.0,0.017822266,-0.08361816400000001,0.09649658,-13.870229,5.8396945,-3.8778627,2019-08-29 13:09:15,18.0
901.0,0.015625,-0.09295654,0.08807373,-6.091603299999999,1.8931297999999999,-3.3053436,2019-08-29 13:09:15,18.0
902.0,0.012329102,-0.070129395,0.09985351599999999,-7.839694500000001,4.9923663000000005,-4.2442746,2019-08-29 13:09:15,18.0
903.0,0.018310547,-0.08709717,0.09490967,-13.412213000000001,5.4351144,-3.4274809999999998,2019-08-29 13:09:15,18.0
904.0,0.0067749023,-0.08691406,0.08911133,-7.862595599999999,2.6335877999999995,-3.0839694,2019-08-29 13:09:15,18.0
905.0,0.01361084,-0.08850098,0.103027344,2.557252,2.9847328999999996,-3.40458,2019-08-29 13:09:15,18.0
906.0,0.013366699,-0.085754395,0.101623535,5.412214,6.236641400000001,-3.6030532999999996,2019-08-29 13:09:15,18.0
907.0,0.0138549805,-0.08129883,0.10418701,2.6183207000000004,-0.3053435,-2.4885497,2019-08-29 13:09:15,18.0
908.0,0.014770508,-0.079589844,0.09704589999999999,-23.12977,4.3511453,2.6259542000000002,2019-08-29 13:09:15,18.0
909.0,0.0044555664,-0.09063721,0.091674805,-16.374046,9.412213000000001,2.8854961,2019-08-29 13:09:15,18.0
910.0,0.011047363000000001,-0.082092285,0.1015625,6.4580154,8.694656,-1.9923664,2019-08-29 13:09:15,18.0
911.0,0.021850586,-0.06188965,0.10803223,-2.9160306,6.587786,-3.5267177000000003,2019-08-29 13:09:15,18.0
912.0,0.010864258,-0.07269287,0.10052489999999999,-17.541985,-0.17557251,-4.0,2019-08-29 13:09:15,18.0
913.0,0.017150878999999997,-0.08758545,0.089782715,-17.992367,-0.8854962,-3.3435113,2019-08-29 13:09:15,18.0
914.0,0.014465332,-0.09051514,0.09832764,-5.480916000000001,5.145038,-1.1526718,2019-08-29 13:09:15,18.0
915.0,0.014709473,-0.08660889,0.09674072,-1.5877863,6.2671757,-3.3664122000000005,2019-08-29 13:09:15,18.0
916.0,0.010192871,-0.08703613,0.10369873,-5.0610685,5.0839696,-2.4885497,2019-08-29 13:09:15,18.0
917.0,0.02520752,-0.07781982400000001,0.10479736,-9.732824,7.587786,0.8396947,2019-08-29 13:09:15,18.0
918.0,0.018310547,-0.08868408,0.097595215,-16.351145000000002,2.2442749,1.2519083999999998,2019-08-29 13:09:15,18.0
919.0,0.020507812,-0.08044433599999999,0.091796875,-6.0305343,5.557252,-2.427481,2019-08-29 13:09:16,18.0
920.0,0.0178833,-0.08074951,0.09515381,7.374046000000001,12.366412,-6.6488547,2019-08-29 13:09:16,18.0
921.0,0.018005371000000003,-0.079589844,0.1015625,-11.366412,3.8015267999999995,-4.2748094000000005,2019-08-29 13:09:16,18.0
922.0,0.027404785,-0.08148193,0.10119629,-11.244275,6.8702292,-2.5267177000000003,2019-08-29 13:09:16,18.0
923.0,0.018493652,-0.08721924,0.08752441400000001,-11.557252,7.076336,0.33587787,2019-08-29 13:09:16,18.0
924.0,0.018005371000000003,-0.0803833,0.097595215,-18.648854999999998,5.633588,-0.740458,2019-08-29 13:09:16,18.0
925.0,0.012573242,-0.08874512,0.09039307,-4.3511453,8.038167999999999,-3.6030532999999996,2019-08-29 13:09:16,18.0
926.0,0.01574707,-0.08392334,0.10266113,-1.2900764,1.1908396,-5.809159999999999,2019-08-29 13:09:16,18.0
927.0,0.02166748,-0.078125,0.10241699,-5.9389315,2.4503817999999997,-2.206107,2019-08-29 13:09:16,18.0
928.0,0.019470215,-0.08807373,0.095581055,-13.832060999999998,6.885496000000001,-0.21374045,2019-08-29 13:09:16,18.0
929.0,0.023010253999999997,-0.05053711,0.10449219,-31.580153000000003,14.877863,-3.8167940000000002,2019-08-29 13:09:16,18.0
930.0,0.028381347999999997,-0.06304932,0.1227417,-113.58778000000001,18.87023,10.236641,2019-08-29 13:09:16,18.0
931.0,0.0018310547,-0.10052489999999999,0.08465576,-95.67175,23.900763,7.3587785000000006,2019-08-29 13:09:16,18.0
932.0,-0.008300781,-0.09094238,0.10772705,-32.85496,47.221375,1.5038168,2019-08-29 13:09:16,18.0
933.0,-0.0012207030999999999,-0.11358642599999999,0.09124756,-26.961832,23.221375,5.8625956,2019-08-29 13:09:16,18.0
934.0,-0.0006713867,-0.11853027,0.062072754,50.709922999999996,16.290077,-6.6793895,2019-08-29 13:09:16,18.0
935.0,0.013366699,-0.06555176,0.051635742000000005,87.42748,5.396946400000001,-31.045801,2019-08-29 13:09:16,18.0
936.0,0.0078125,-0.049560547,0.038208007999999995,25.603054,-34.519085,-38.343509999999995,2019-08-29 13:09:16,18.0
937.0,0.053955078,-0.17102051,0.23858643,-57.969467,-1.0305344,-21.015266,2019-08-29 13:09:16,18.0
938.0,0.010070800999999999,-0.11151123,0.082092285,33.82443,78.137405,-0.24427481,2019-08-29 13:09:16,18.0
939.0,0.0072631836,-0.043518065999999994,0.07495117,-5.076336,-18.198473,-6.5419846,2019-08-29 13:09:16,18.0
940.0,0.025878906,-0.09124756,0.08392334,-14.007632999999998,-2.3435113,-5.396946400000001,2019-08-29 13:09:16,18.0
941.0,0.0010375977,-0.07366943,0.08239746,-3.1221373,5.664122,-11.358779,2019-08-29 13:09:16,18.0
942.0,0.020019531,-0.11254883,0.08782959,6.6335880000000005,-1.8931297999999999,-11.2595415,2019-08-29 13:09:16,18.0
943.0,0.024780273,-0.08233642599999999,0.09881592,11.9007635,4.4885497,-1.3816794,2019-08-29 13:09:16,18.0
944.0,0.035339355,-0.08673096,0.093688965,-6.1755724,15.167939000000002,-0.9160305000000001,2019-08-29 13:09:16,18.0
945.0,0.004699707,-0.08264160000000001,0.09991455,5.7099237,18.534351,-3.1603053,2019-08-29 13:09:16,18.0
946.0,0.007019043000000001,-0.08288574,0.09924316400000001,5.664122,2.9389312000000003,-5.3206105,2019-08-29 13:09:16,18.0
947.0,0.008666992,-0.08380127,0.09851074,1.2290076,-2.1908397999999996,-8.931297,2019-08-29 13:09:16,18.0
948.0,0.01953125,-0.09552002,0.10101318,-1.5114504,6.671755999999999,-7.7328243,2019-08-29 13:09:16,18.0
949.0,0.022583007999999998,-0.09246826,0.099121094,-8.091603,8.648855000000001,-2.221374,2019-08-29 13:09:16,18.0
950.0,0.012512207,-0.08874512,0.0993042,-12.244275,11.671756,-2.2290077,2019-08-29 13:09:16,18.0
951.0,0.018188476999999998,-0.095703125,0.08392334,-10.587786999999999,9.7786255,-3.9694656999999998,2019-08-29 13:09:16,18.0
952.0,0.017333984,-0.08721924,0.10278319999999999,1.3816794,6.1603055,-0.35877863,2019-08-29 13:09:16,18.0
953.0,0.011352538999999998,-0.07727051,0.09863281,3.1908397999999996,14.045801,-4.3511453,2019-08-29 13:09:17,18.0
954.0,0.009765625,-0.08343506,0.09722900400000001,6.9160304,6.900763499999999,-7.839694500000001,2019-08-29 13:09:17,18.0
955.0,0.014404297,-0.078186035,0.09576416,-5.7480917,-4.740458,-6.9465647,2019-08-29 13:09:17,18.0
956.0,0.019348145,-0.06536865,0.104003906,-21.335878,3.2290077,-4.259542,2019-08-29 13:09:17,18.0
957.0,0.015197753999999999,-0.089660645,0.097839355,-37.229008,11.145039,-0.26717559,2019-08-29 13:09:17,18.0
958.0,0.017150878999999997,-0.10809326,0.091918945,-21.984734,10.816792999999999,1.8473282,2019-08-29 13:09:17,18.0
959.0,0.017333984,-0.100097656,0.09417724599999999,13.122137,2.312977,-7.89313,2019-08-29 13:09:17,18.0
960.0,0.021362305,-0.07580566400000001,0.095825195,14.198473000000002,-3.8854961,-6.328244000000001,2019-08-29 13:09:17,18.0
961.0,0.012878418,-0.059509277,0.09643555,-13.603053,1.221374,-4.2442746,2019-08-29 13:09:17,18.0
962.0,0.018005371000000003,-0.093566895,0.09387207,-32.351147,9.053435,1.7099236,2019-08-29 13:09:17,18.0
963.0,0.011047363000000001,-0.09063721,0.08544922,-14.160305,8.656488000000001,-0.099236645,2019-08-29 13:09:17,18.0
964.0,0.013244628999999999,-0.10369873,0.088012695,12.206107000000001,3.7328242999999994,-6.7251906,2019-08-29 13:09:17,18.0
965.0,0.018920898000000002,-0.07446289,0.09259033,26.175573,2.534351,-7.038167999999999,2019-08-29 13:09:17,18.0
966.0,0.031188965,-0.060913086,0.10876465,-0.96183205,6.923664,-2.2900763,2019-08-29 13:09:17,18.0
967.0,0.025512695,-0.08544922,0.099731445,-25.366413,16.473282,0.71755725,2019-08-29 13:09:17,18.0
968.0,0.016723633,-0.08905029,0.09503174,-17.335878,1.9465648999999998,-1.6030535,2019-08-29 13:09:17,18.0
969.0,0.019897461,-0.081970215,0.10412598,-6.6793895,12.893129,-0.8778626,2019-08-29 13:09:17,18.0
970.0,0.026489257999999998,-0.09234619,0.095703125,-4.152672,5.40458,-1.6717557,2019-08-29 13:09:17,18.0
971.0,0.011169433999999999,-0.07434082,0.09686279,-5.8244276,7.8015265,-3.40458,2019-08-29 13:09:17,18.0
972.0,0.022949219,-0.09045410000000001,0.09289551,-12.480916,1.7099236,-4.3053436,2019-08-29 13:09:17,18.0
973.0,0.014892578,-0.08514404,0.09161377,-11.946565,4.0076336999999995,-4.076336,2019-08-29 13:09:17,18.0
974.0,0.019348145,-0.09143066400000001,0.09008789,-12.106871,6.3816795,-3.5496182000000003,2019-08-29 13:09:17,18.0
975.0,0.01928711,-0.08666992,0.09204101599999999,-8.114504,5.2900763,-3.1908397999999996,2019-08-29 13:09:17,18.0
976.0,0.0126953125,-0.08319092,0.10107422,-7.9389315,5.053435299999999,-3.221374,2019-08-29 13:09:17,18.0
977.0,0.019226074,-0.09210205,0.09576416,-5.59542,6.4885497,-3.2671757,2019-08-29 13:09:17,18.0
978.0,0.0178833,-0.09069824,0.10229492,-0.6335878,5.59542,-0.66412216,2019-08-29 13:09:17,18.0
979.0,0.021362305,-0.08917236,0.095703125,-4.4580154,6.603053599999999,-0.9465648999999999,2019-08-29 13:09:17,18.0
980.0,0.026306152000000003,-0.085754395,0.097839355,-8.610686999999999,5.2748094000000005,-1.5648855,2019-08-29 13:09:17,18.0
981.0,0.023864746000000003,-0.08251953,0.09680176,-6.8778625,8.664123,-4.3511453,2019-08-29 13:09:17,18.0
982.0,0.009033203,-0.09033203,0.09887695,-17.068703,11.358779,-2.8473282,2019-08-29 13:09:17,18.0
983.0,0.017211914,-0.087890625,0.0993042,-12.335877,9.541985,-5.5114503,2019-08-29 13:09:17,18.0
984.0,0.01171875,-0.09332275400000001,0.09405517599999999,2.4351146,2.1145039,-5.9389315,2019-08-29 13:09:17,18.0
985.0,0.022827148,-0.07952881,0.10168457,7.480916000000001,5.374046,-5.3816795,2019-08-29 13:09:17,18.0
986.0,0.018737793,-0.07983398400000001,0.10760498,-18.687023,7.969465700000001,2.6183207000000004,2019-08-29 13:09:17,18.0
987.0,0.021911621000000003,-0.09674072,0.08892822,-37.84733,9.595419999999999,-0.022900764,2019-08-29 13:09:17,18.0
988.0,0.020690918,-0.11004639,0.07470703,-11.206107000000001,5.5343513,0.86259544,2019-08-29 13:09:17,18.0
989.0,0.01171875,-0.09332275400000001,0.092285156,20.343512,1.8854961,-1.2290076,2019-08-29 13:09:17,18.0
990.0,0.026489257999999998,-0.06188965,0.10534668,2.7175572,0.39694658,-5.0,2019-08-29 13:09:18,18.0
991.0,0.021362305,-0.08764648400000001,0.09808349599999999,-21.053434,0.114503816,-3.3358779999999997,2019-08-29 13:09:18,18.0
992.0,0.011474608999999998,-0.09790039,0.087768555,-4.7938933,4.5343513,-3.923664,2019-08-29 13:09:18,18.0
993.0,0.02520752,-0.081848145,0.09185791,7.900763499999999,10.534351,-4.0152674,2019-08-29 13:09:18,18.0
994.0,0.009033203,-0.08361816400000001,0.09844971,4.4656487,6.923664,-4.7862597000000004,2019-08-29 13:09:18,18.0
995.0,0.020996094,-0.08422851599999999,0.10192871,0.8854962,5.5343513,-3.1450381000000003,2019-08-29 13:09:18,18.0
996.0,0.020751953,-0.08422851599999999,0.10095215,-7.076336,6.0839696,0.22137405,2019-08-29 13:09:18,18.0
997.0,0.017089844,-0.07983398400000001,0.09887695,-10.564885,5.3129773,-2.7557251,2019-08-29 13:09:18,18.0
998.0,0.0064697266000000005,-0.08581543,0.08502197,-13.587786999999999,2.687023,-0.9312976999999999,2019-08-29 13:09:18,18.0
999.0,0.0234375,-0.09094238,0.08160400400000001,14.175572,6.1297708,-4.89313,2019-08-29 13:09:18,18.0
1000.0,0.026306152000000003,-0.07891846,0.11047363,23.442749,11.572519,-4.7328243,2019-08-29 13:09:18,18.0
1001.0,0.024719237999999998,-0.049133300000000005,0.11676025400000001,-52.15267,6.221374,10.687023,2019-08-29 13:09:18,18.0
1002.0,0.02508545,-0.07476807,0.10089111,-102.69466,18.923664000000002,14.175572,2019-08-29 13:09:18,18.0
1003.0,0.02960205,-0.11187744,0.08874512,-124.9542,9.389313000000001,25.145039,2019-08-29 13:09:18,18.0
1004.0,0.023254395,-0.13598633,0.061401367000000005,-126.34351000000001,18.366413,39.809162,2019-08-29 13:09:18,18.0
1005.0,0.026428222999999997,-0.15478516,0.047851562,-110.87023,30.557251,57.69465600000001,2019-08-29 13:09:18,18.0
1006.0,0.01763916,-0.15301514,0.048217773,-71.061066,-13.396947,61.81679499999999,2019-08-29 13:09:18,18.0
1007.0,-0.0048828125,-0.11157226599999999,0.042663574,-37.694656,-14.419847500000001,51.946564,2019-08-29 13:09:18,18.0
1008.0,-0.008178711,-0.10430908,0.034179688,-33.687022999999996,-50.305344,54.12214,2019-08-29 13:09:18,18.0
1009.0,-0.009399414,-0.09692383,0.048828125,13.587786999999999,-38.648853,29.76336,2019-08-29 13:09:18,18.0
1010.0,-0.013122558999999999,-0.08245849599999999,0.06915283,39.984734,-44.900764,11.114504,2019-08-29 13:09:18,18.0
1011.0,-0.022216797000000003,-0.08142089999999999,0.07360839999999999,31.351145000000002,-51.419846,9.572519,2019-08-29 13:09:18,18.0
1012.0,-0.022766112999999998,-0.104003906,0.09985351599999999,36.404579999999996,-41.007633,2.3664122000000005,2019-08-29 13:09:18,18.0
1013.0,-0.0087890625,-0.10064697,0.11022949,58.732826,-36.44275,2.572519,2019-08-29 13:09:18,18.0
1014.0,0.016113281,-0.09387207,0.08044433599999999,89.60305,-32.21374,-4.8015265,2019-08-29 13:09:18,18.0
1015.0,0.010986328,-0.08062744,0.09259033,112.74045600000001,-5.1603055,-17.854961,2019-08-29 13:09:18,18.0
1016.0,0.0034179688000000002,-0.0546875,0.09411621,57.0229,-18.343512,-16.549618,2019-08-29 13:09:18,18.0
1017.0,0.014221191000000001,-0.09014892599999999,0.08630371,18.694656,-30.152671999999995,-24.297710000000002,2019-08-29 13:09:18,18.0
1018.0,0.044799805,-0.13555908,0.13391113,79.0229,-1.9694656000000004,-22.419847,2019-08-29 13:09:18,18.0
1019.0,0.018859863,-0.07501221,0.07775879,57.290077000000004,4.2671757,-5.4580154,2019-08-29 13:09:18,18.0
1020.0,0.01751709,-0.07373047,0.09509277,-0.8549618,-7.343511599999999,-0.5648854999999999,2019-08-29 13:09:18,18.0
1021.0,0.018188476999999998,-0.08355713,0.11425781,10.389313000000001,12.145039,-13.122137,2019-08-29 13:09:18,18.0
1022.0,0.013793945,-0.09399414,0.08581543,26.816793,2.2824428,-8.198473,2019-08-29 13:09:18,18.0
1023.0,0.014282227,-0.07452392599999999,0.10113525400000001,36.908398,4.0152674,-7.6870227,2019-08-29 13:09:18,18.0
1024.0,0.010070800999999999,-0.06774902,0.1083374,35.053436,10.282442999999999,-11.541985,2019-08-29 13:09:18,18.0
1025.0,0.022460938,-0.055847167999999996,0.11029053,3.129771,4.8702292,-6.2748094000000005,2019-08-29 13:09:19,18.0
1026.0,0.013122558999999999,-0.07318115,0.1015625,-17.664122,6.442748,-1.9694656000000004,2019-08-29 13:09:19,18.0
1027.0,0.013671875,-0.0871582,0.09765625,6.145038,4.5648856,-2.7480917000000002,2019-08-29 13:09:19,18.0
1028.0,0.018310547,-0.06970215,0.10003662,16.641222,1.3816794,-3.1221373,2019-08-29 13:09:19,18.0
1029.0,0.011962891000000002,-0.06842041,0.11431885,17.007633,6.328244000000001,-6.3511453,2019-08-29 13:09:19,18.0
1030.0,0.016418457,-0.060302734000000004,0.10894775400000001,-16.557251,6.5496182,-3.0229008,2019-08-29 13:09:19,18.0
1031.0,0.023742676,-0.06781006,0.11303711,-39.923664,6.2900763,-2.2824428,2019-08-29 13:09:19,18.0
1032.0,0.017822266,-0.07843017599999999,0.10101318,-24.099237,6.969465700000001,-2.70229,2019-08-29 13:09:19,18.0
1033.0,0.023864746000000003,-0.08850098,0.09539795,-2.0610688,14.045801,-5.2900763,2019-08-29 13:09:19,18.0
1034.0,0.006286621,-0.08758545,0.09979248,28.923664000000002,1.5725191,-7.7557254,2019-08-29 13:09:19,18.0
1035.0,0.031799316,-0.048461914,0.12561035,-3.1908397999999996,0.17557251,-2.0610688,2019-08-29 13:09:19,18.0
1036.0,0.020080566,-0.030090332,0.1295166,-78.43511,9.312977,3.7862597,2019-08-29 13:09:19,18.0
1037.0,0.038024902,-0.072387695,0.11016846,-112.43511000000001,8.648855000000001,4.8625956,2019-08-29 13:09:19,18.0
1038.0,0.020202637,-0.08282471,0.08551025400000001,-122.221375,11.343511999999999,5.587786,2019-08-29 13:09:19,18.0
1039.0,0.016418457,-0.09936523400000001,0.08770752,-72.39695,33.885498,-1.4732825,2019-08-29 13:09:19,18.0
1040.0,0.0007324219,-0.09680176,0.10473633,-62.458015,40.82443,3.7480917000000002,2019-08-29 13:09:19,18.0
1041.0,-0.0048217773,-0.12322998,0.057434082000000004,-30.740458,33.183205,6.3053436,2019-08-29 13:09:19,18.0
1042.0,-0.012512207,-0.10992432,0.06121826,37.198475,15.496182999999998,-6.2137402999999996,2019-08-29 13:09:19,18.0
1043.0,-0.0037231445,-0.09362793,0.061645507999999995,80.35878000000001,-1.1450381,-20.717558,2019-08-29 13:09:19,18.0
1044.0,0.006591797,-0.07965088,0.07562256,80.9542,-14.671756,-25.778625,2019-08-29 13:09:19,18.0
1045.0,0.029968262000000002,-0.10644531,0.1539917,49.931297,-24.389313,-21.709923,2019-08-29 13:09:19,18.0
1046.0,0.0067749023,-0.06579589999999999,0.10607910000000002,31.503816999999998,46.396946,2.1755726,2019-08-29 13:09:19,18.0
1047.0,0.026977539,-0.05871582,0.09942627,9.816792999999999,-12.916031,-11.595419999999999,2019-08-29 13:09:19,18.0
1048.0,0.033203125,-0.09289551,0.10644531,3.2595419999999997,16.801527,-7.068702,2019-08-29 13:09:19,18.0
1049.0,0.011291503999999999,-0.077941895,0.09539795,5.038168,5.053435299999999,-3.832061,2019-08-29 13:09:19,18.0
1050.0,0.018859863,-0.06958008,0.10546875,-2.1603053,6.900763499999999,0.97709924,2019-08-29 13:09:19,18.0
1051.0,0.0095825195,-0.07244873,0.10455322,-14.931297,5.8244276,0.022900764,2019-08-29 13:09:19,18.0
1052.0,0.013671875,-0.08026123,0.10052489999999999,-15.969465,3.3969467000000004,-1.5419847,2019-08-29 13:09:19,18.0
1053.0,0.014709473,-0.0803833,0.10333252,-2.1374047000000003,-0.015267176,-3.0839694,2019-08-29 13:09:19,18.0
1054.0,0.010314941,-0.07379150400000001,0.10107422,-2.4122138,3.6717557999999997,-4.587786,2019-08-29 13:09:19,18.0
1055.0,0.013916016000000002,-0.06744385,0.09887695,-2.2519082999999998,5.076336,-5.10687,2019-08-29 13:09:19,18.0
1056.0,0.0126953125,-0.09008789,0.09851074,-4.89313,5.625954,-1.7251908999999999,2019-08-29 13:09:19,18.0
1057.0,0.0138549805,-0.07562256,0.099487305,-6.3587785000000006,5.7328243,-4.961832,2019-08-29 13:09:19,18.0
1058.0,0.007507324,-0.071777344,0.10357666,-6.328244000000001,6.190840000000001,-2.870229,2019-08-29 13:09:19,18.0
1059.0,0.018310547,-0.088378906,0.10107422,-6.366412,6.343511599999999,-3.3206108,2019-08-29 13:09:19,18.0
1060.0,0.020324707,-0.08190918,0.09729004,-1.4045801000000002,7.961832000000001,-3.1068702,2019-08-29 13:09:19,18.0
1061.0,0.014831543,-0.07727051,0.09899902,-4.664122,3.6183207000000004,-3.6870230000000004,2019-08-29 13:09:20,18.0
1062.0,0.012878418,-0.08551025400000001,0.10534668,0.67175573,4.2290077,-4.2519083,2019-08-29 13:09:20,18.0
1063.0,0.021728516,-0.06762695,0.103637695,4.366412,6.4885497,-4.7022900000000005,2019-08-29 13:09:20,18.0
1064.0,0.007385254,-0.061401367000000005,0.10766601599999999,-13.305344,7.2671757,-1.4274809,2019-08-29 13:09:20,18.0
1065.0,0.015686035,-0.08325195,0.099731445,-11.374044999999999,9.068703,-2.038168,2019-08-29 13:09:20,18.0
1066.0,0.014587402,-0.08239746,0.099121094,-6.091603299999999,8.053435,-2.3511450000000003,2019-08-29 13:09:20,18.0
1067.0,0.008483886999999999,-0.07952881,0.09173584,-0.58778626,4.3893127,-3.8625953,2019-08-29 13:09:20,18.0
1068.0,0.008361816,-0.07434082,0.10235596,10.381680000000001,5.190840000000001,-6.6412214999999994,2019-08-29 13:09:20,18.0
1069.0,0.017578125,-0.06512451,0.109191895,0.07633588,-2.5648854,-1.3816794,2019-08-29 13:09:20,18.0
1070.0,0.016845703,-0.052978515999999996,0.10858154,-31.076335999999998,0.96183205,4.1221375,2019-08-29 13:09:20,18.0
1071.0,0.012512207,-0.06774902,0.10815430000000001,-51.12214,7.969465700000001,4.4351144,2019-08-29 13:09:20,18.0
1072.0,0.012084961000000002,-0.08929443,0.08917236,-15.328244,13.435115,-5.664122,2019-08-29 13:09:20,18.0
1073.0,0.0048828125,-0.09478760000000001,0.09790039,-3.0,12.854961,-3.5419848,2019-08-29 13:09:20,18.0
1074.0,0.020507812,-0.07592773400000001,0.10345459,17.007633,1.648855,-6.961832000000001,2019-08-29 13:09:20,18.0
1075.0,0.025817871000000003,-0.06732178,0.10314941400000001,9.526717,9.137404,-2.5877862,2019-08-29 13:09:20,18.0
1076.0,0.0071411133,-0.07916260000000001,0.1026001,-3.7251909,8.366412,-1.5496184,2019-08-29 13:09:20,18.0
1077.0,0.014709473,-0.07623291,0.10229492,-5.1221375,11.0,-5.1679387000000006,2019-08-29 13:09:20,18.0
1078.0,0.00579834,-0.076293945,0.10321045,-3.534351,10.480916,-5.3816795,2019-08-29 13:09:20,18.0
1079.0,0.018310547,-0.09027099599999999,0.10186767599999999,3.7404580000000003,6.0458016,-6.6183205,2019-08-29 13:09:20,18.0
1080.0,0.009338379,-0.08013916,0.11151123,7.778625999999999,2.832061,-5.10687,2019-08-29 13:09:20,18.0
1081.0,0.024169922000000003,-0.06329346,0.10345459,-5.4503818,4.7099237,1.3053435,2019-08-29 13:09:20,18.0
1082.0,0.026184082,-0.072265625,0.10864258,-19.946566,9.488549,1.0839695,2019-08-29 13:09:20,18.0
1083.0,0.019042969,-0.08282471,0.09875488,-13.167939000000002,7.557252,-1.7557251,2019-08-29 13:09:20,18.0
1084.0,0.015319824,-0.07122803,0.09545898400000001,-3.5114503,14.541985,-3.3969467000000004,2019-08-29 13:09:20,18.0
1085.0,0.004272461,-0.07147217,0.10748291,-8.763359,0.40458015,-2.4198472,2019-08-29 13:09:20,18.0
1086.0,0.00024414062000000002,-0.08569336,0.103515625,-0.77099234,3.0,-5.4885497,2019-08-29 13:09:20,18.0
1087.0,0.0075683593999999995,-0.07067871,0.117248535,5.0229006,-0.129771,-4.2900763,2019-08-29 13:09:20,18.0
1088.0,0.025939941,-0.06518555,0.09863281,-3.053435,0.7633588000000001,0.40458015,2019-08-29 13:09:20,18.0
1089.0,0.017211914,-0.07061767599999999,0.09661865,-10.480916,3.9389312000000007,-1.9389313000000001,2019-08-29 13:09:20,18.0
1090.0,0.014465332,-0.07672119,0.10180664,-6.0,11.053435,-5.3816795,2019-08-29 13:09:20,18.0
1091.0,0.024169922000000003,-0.079956055,0.09661865,1.3358778999999998,8.274809,-4.740458,2019-08-29 13:09:20,18.0
1092.0,0.014282227,-0.08233642599999999,0.09777832,13.824428,4.984732599999999,-3.6412212999999998,2019-08-29 13:09:20,18.0
1093.0,0.029785156,-0.055236815999999994,0.11706543,2.5038167999999996,-1.0,-6.2290077,2019-08-29 13:09:20,18.0
1094.0,0.014465332,-0.07495117,0.10095215,-3.9694656999999998,7.763358599999999,-2.5267177000000003,2019-08-29 13:09:20,18.0
1095.0,0.02355957,-0.07769775400000001,0.09820557,-13.38168,6.2671757,-1.4885496,2019-08-29 13:09:20,18.0
1096.0,0.013305663999999998,-0.07733154,0.10443115,-16.08397,4.778626,-2.3664122000000005,2019-08-29 13:09:20,18.0
1097.0,0.009765625,-0.07574463,0.10760498,-15.175572,1.4427481000000002,-2.8931298,2019-08-29 13:09:21,18.0
1098.0,0.014282227,-0.07330322,0.099609375,-20.778625,11.21374,-0.099236645,2019-08-29 13:09:21,18.0
1099.0,0.005004883,-0.077941895,0.1038208,-15.580152499999999,6.0,-3.6641220000000003,2019-08-29 13:09:21,18.0
1100.0,0.016174316,-0.08502197,0.103393555,-6.0229006,7.4732823,-4.7557254,2019-08-29 13:09:21,18.0
1101.0,0.020751953,-0.0758667,0.10717773400000001,-4.1297708,8.916031,-3.9312977999999994,2019-08-29 13:09:21,18.0
1102.0,0.013427733999999998,-0.06921387,0.1071167,-6.038168,7.519083999999999,-3.2519082999999998,2019-08-29 13:09:21,18.0
1103.0,0.020263672,-0.06726074,0.10870361,-10.19084,9.702291,-4.0839696000000005,2019-08-29 13:09:21,18.0
1104.0,0.0045166016,-0.09020996,0.09344482400000001,-9.175572,8.335877,-3.7633588,2019-08-29 13:09:21,18.0
1105.0,0.012451172,-0.078186035,0.103027344,-0.17557251,5.091603299999999,-4.0,2019-08-29 13:09:21,18.0
1106.0,0.016174316,-0.07067871,0.11248779,-1.3282443000000002,2.6641220000000003,-1.9312977,2019-08-29 13:09:21,18.0
1107.0,0.025390625,-0.06530762,0.10803223,-12.389313000000001,6.2137402999999996,-3.1221373,2019-08-29 13:09:21,18.0
1108.0,0.007019043000000001,-0.07940674,0.09576416,-21.175573,5.6946564,-1.2290076,2019-08-29 13:09:21,18.0
1109.0,0.01739502,-0.09033203,0.09942627,-2.4961832000000004,2.816794,-1.259542,2019-08-29 13:09:21,18.0
1110.0,0.018493652,-0.08227539,0.10662842,21.549618,11.122137,-5.152672,2019-08-29 13:09:21,18.0
1111.0,0.02166748,-0.060302734000000004,0.11053467,11.076336,4.3129773,-4.3587785000000006,2019-08-29 13:09:21,18.0
1112.0,0.02508545,-0.07110596,0.10858154,-15.2213745,4.0839696000000005,-0.610687,2019-08-29 13:09:21,18.0
1113.0,0.005004883,-0.07196045,0.10589599599999999,-3.5267177000000003,10.755725,-4.9389315,2019-08-29 13:09:21,18.0
1114.0,0.017944336,-0.08892822,0.1104126,-2.8244274,4.671755999999999,-3.3206108,2019-08-29 13:09:21,18.0
1115.0,0.005065918,-0.07281494,0.10333252,-6.7709923,1.389313,-5.6106873,2019-08-29 13:09:21,18.0
1116.0,0.0073242188,-0.08331299,0.11022949,-9.702291,7.2137402999999996,-3.908397,2019-08-29 13:09:21,18.0
1117.0,0.011169433999999999,-0.07495117,0.10437012,-0.8702290000000001,7.4961834000000005,-2.8091602000000004,2019-08-29 13:09:21,18.0
1118.0,0.015136719,-0.062072754,0.11376953,-4.4961834000000005,6.862595599999999,-3.0839694,2019-08-29 13:09:21,18.0
1119.0,0.016906738,-0.07366943,0.10321045,-18.778625,7.396946400000001,2.9923662999999996,2019-08-29 13:09:21,18.0
1120.0,0.012878418,-0.07727051,0.10125732400000001,-14.015267000000001,3.6030532999999996,-3.2595419999999997,2019-08-29 13:09:21,18.0
1121.0,0.01159668,-0.088378906,0.08374023400000001,-7.0458016,1.4427481000000002,-1.7328244,2019-08-29 13:09:21,18.0
1122.0,0.02923584,-0.06011963,0.11303711,-28.10687,4.480916000000001,2.2442749,2019-08-29 13:09:21,18.0
1123.0,0.019226074,-0.06726074,0.124938965,-77.68701999999999,13.862596,20.229008,2019-08-29 13:09:21,18.0
1124.0,0.0079956055,-0.07922363,0.097839355,-30.244274,29.549618,11.007633,2019-08-29 13:09:21,18.0
1125.0,-0.004760742,-0.07421875,0.10571289,34.89313,54.030533,-6.2290077,2019-08-29 13:09:21,18.0
1126.0,-0.0022583008,-0.06811523400000001,0.10607910000000002,10.061069,26.053434,-11.358779,2019-08-29 13:09:21,18.0
1127.0,0.004272461,-0.09057617,0.080200195,10.068703,10.061069,-20.404581,2019-08-29 13:09:21,18.0
1128.0,0.011291503999999999,-0.06610107400000001,0.05822754,18.404581,-13.893129,-31.580153000000003,2019-08-29 13:09:21,18.0
1129.0,0.029846191,-0.08880615,0.1428833,-17.206106,-7.740458,-25.587785999999998,2019-08-29 13:09:21,18.0
1130.0,0.024536132999999998,-0.10101318,0.07672119,-27.312977000000004,-24.458015,1.6641221000000002,2019-08-29 13:09:21,18.0
1131.0,0.00982666,-0.04168701,0.10076904,5.9923663000000005,3.1984732000000005,-14.977098999999999,2019-08-29 13:09:21,18.0
1132.0,0.019104003999999997,-0.08782959,0.115722656,7.9770994,6.961832000000001,-16.87023,2019-08-29 13:09:21,18.0
1133.0,0.014953613000000001,-0.07611084,0.10308838,-1.5572518999999998,6.038168,-8.625955000000001,2019-08-29 13:09:22,18.0
1134.0,0.026428222999999997,-0.07330322,0.10467529,3.961832,5.4274807,-10.541985,2019-08-29 13:09:22,18.0
1135.0,0.02154541,-0.07458496,0.11248779,3.8167940000000002,-0.8702290000000001,-5.7175574000000005,2019-08-29 13:09:22,18.0
1136.0,0.021728516,-0.08691406,0.10241699,-7.8702292,5.4274807,4.4198474999999995,2019-08-29 13:09:22,18.0
1137.0,0.011047363000000001,-0.07452392599999999,0.10394287,-5.6412214999999994,2.8854961,2.6335877999999995,2019-08-29 13:09:22,18.0
1138.0,0.022583007999999998,-0.085754395,0.09436035,-9.488549,5.4503818,-1.6641221000000002,2019-08-29 13:09:22,18.0
1139.0,0.01965332,-0.06097412,0.11102295,-1.8015267,12.748092,-9.2595415,2019-08-29 13:09:22,18.0
1140.0,0.010131836,-0.09375,0.10650635,-5.885496,9.465649,-5.2061067,2019-08-29 13:09:22,18.0
1141.0,0.009643555,-0.07354736,0.10406494,-7.5725193,2.2137403,-4.5343513,2019-08-29 13:09:22,18.0
1142.0,0.014343261999999999,-0.070251465,0.09338379,-1.8091604,1.2137405,-4.0458016,2019-08-29 13:09:22,18.0
1143.0,0.013244628999999999,-0.08294678,0.10455322,13.59542,2.5954200000000003,-10.557252,2019-08-29 13:09:22,18.0
1144.0,0.011108398,-0.06390381,0.10998535,15.0,8.557252,-6.5801525,2019-08-29 13:09:22,18.0
1145.0,0.022949219,-0.06536865,0.10845947,4.5114503,8.534351,-2.8473282,2019-08-29 13:09:22,18.0
1146.0,0.020690918,-0.06011963,0.12231445,-27.740458,11.21374,-0.5038168,2019-08-29 13:09:22,18.0
1147.0,0.018615723,-0.08050537,0.10736084,-31.603053999999997,11.335877,-1.1984733,2019-08-29 13:09:22,18.0
1148.0,0.0068969727,-0.07733154,0.09307861,-25.38168,13.473282999999999,-4.885496,2019-08-29 13:09:22,18.0
1149.0,0.015686035,-0.08874512,0.10498047,-0.7557252,12.038167999999999,-9.656488000000001,2019-08-29 13:09:22,18.0
1150.0,0.014831543,-0.07659912,0.09924316400000001,2.0076337,6.473282299999999,-6.8549619999999996,2019-08-29 13:09:22,18.0
1151.0,0.02758789,-0.068847656,0.10681152,-18.748089999999998,8.908397,-3.038168,2019-08-29 13:09:22,18.0
1152.0,0.014709473,-0.083862305,0.099121094,-23.633587,8.053435,-0.8854962,2019-08-29 13:09:22,18.0
1153.0,0.017578125,-0.08502197,0.09454346,-4.3206105,3.1145039,-2.3969467,2019-08-29 13:09:22,18.0
1154.0,0.010498047,-0.07141113,0.10217285,-1.7480916000000002,5.9770994,-3.946565,2019-08-29 13:09:22,18.0
1155.0,0.014831543,-0.07159424,0.10705566400000001,12.748092,8.954199000000001,-7.4503818,2019-08-29 13:09:22,18.0
1156.0,0.018798828,-0.07305908,0.10467529,-4.0458016,5.9389315,-3.1908397999999996,2019-08-29 13:09:22,18.0
1157.0,0.013427733999999998,-0.06549072,0.09576416,-15.458015,1.3358778999999998,-0.6488550000000001,2019-08-29 13:09:22,18.0
1158.0,0.006652831999999999,-0.080200195,0.10375976599999999,-6.2519083,4.6946564,-4.6488547,2019-08-29 13:09:22,18.0
1159.0,0.0061035156000000005,-0.07928467,0.11254883,3.3358779999999997,9.931297,-6.931298,2019-08-29 13:09:22,18.0
1160.0,0.015136719,-0.08441162,0.10052489999999999,12.0,2.9541984,-1.3740458,2019-08-29 13:09:22,18.0
1161.0,0.026733398,-0.049865723,0.11669922,-10.78626,6.396946400000001,-0.6488550000000001,2019-08-29 13:09:22,18.0
1162.0,0.0126953125,-0.07061767599999999,0.09832764,-26.57252,8.770992,0.70229006,2019-08-29 13:09:22,18.0
1163.0,0.020385742,-0.08984375,0.08734131,-24.984734,0.16030534,0.5038168,2019-08-29 13:09:22,18.0
1164.0,0.015930176,-0.07751465,0.11010742,2.1145039,7.3664119999999995,-2.5419848,2019-08-29 13:09:22,18.0
1165.0,0.01550293,-0.051696777,0.10852051,9.618319999999999,13.007633,-4.4503818,2019-08-29 13:09:22,18.0
1166.0,0.016479492,-0.07269287,0.109375,-28.450382,-7.763358599999999,1.0839695,2019-08-29 13:09:22,18.0
1167.0,0.0107421875,-0.08148193,0.10632324,-33.381679999999996,0.2519084,-5.412214,2019-08-29 13:09:22,18.0
1168.0,0.019165039,-0.09020996,0.09808349599999999,-5.664122,3.7251909,-9.503817,2019-08-29 13:09:22,18.0
1169.0,0.018554688,-0.08874512,0.101623535,14.679389000000002,4.961832,-7.778625999999999,2019-08-29 13:09:23,18.0
1170.0,0.02758789,-0.06988525400000001,0.10699463,16.51145,10.549619,-1.6183206,2019-08-29 13:09:23,18.0
1171.0,0.020263672,-0.06359863,0.10986328,0.129771,18.961832,-3.832061,2019-08-29 13:09:23,18.0
1172.0,0.015808105,-0.07220459,0.09814453,-15.068703,6.9847326,-3.206107,2019-08-29 13:09:23,18.0
1173.0,0.0044555664,-0.07720947,0.10546875,-6.091603299999999,13.671756,-0.28244275,2019-08-29 13:09:23,18.0
1174.0,0.009338379,-0.08477783,0.10095215,-4.053435299999999,2.6412212999999998,-0.23664123,2019-08-29 13:09:23,18.0
1175.0,0.009155273,-0.07281494,0.10705566400000001,-2.0305343000000002,-5.2671757,-5.7251905999999995,2019-08-29 13:09:23,18.0
1176.0,0.021057128999999997,-0.08306885,0.09143066400000001,-13.984732999999999,-3.3282442000000003,-2.3206108,2019-08-29 13:09:23,18.0
1177.0,0.016723633,-0.06939697,0.10443115,-6.847328,6.473282299999999,-4.8778625,2019-08-29 13:09:23,18.0
1178.0,0.017456055,-0.07019043,0.11401367,-3.9694656999999998,15.167939000000002,-4.59542,2019-08-29 13:09:23,18.0
1179.0,0.010559082,-0.07470703,0.10894775400000001,-5.3587785000000006,8.236641,-4.2824425999999995,2019-08-29 13:09:23,18.0
1180.0,0.015563965,-0.07360839999999999,0.09655762,-7.038167999999999,5.778626,-3.465649,2019-08-29 13:09:23,18.0
1181.0,0.010498047,-0.081970215,0.10607910000000002,14.21374,4.740458,-7.442748,2019-08-29 13:09:23,18.0
1182.0,0.020324707,-0.06384277,0.11376953,11.236641,5.015267400000001,-5.152672,2019-08-29 13:09:23,18.0
1183.0,0.01586914,-0.048706055,0.11224365,-19.442749,14.687023000000002,0.97709924,2019-08-29 13:09:23,18.0
1184.0,0.021484375,-0.097473145,0.09564209,-33.450382,2.7251909,2.1603053,2019-08-29 13:09:23,18.0
1185.0,-0.00024414062000000002,-0.087402344,0.1038208,-26.099237,-1.2824427,-0.43511450000000007,2019-08-29 13:09:23,18.0
1186.0,0.011779785,-0.08868408,0.09936523400000001,8.961832000000001,12.244275,-6.5038165999999995,2019-08-29 13:09:23,18.0
1187.0,0.011779785,-0.06628418,0.11352539,2.5038167999999996,3.5572519999999996,-4.3511453,2019-08-29 13:09:23,18.0
1188.0,0.019042969,-0.06109619,0.10101318,-14.633588,7.6870227,-2.465649,2019-08-29 13:09:23,18.0
1189.0,0.006958008000000001,-0.08618164,0.10870361,-14.2213745,8.007633,-2.9923662999999996,2019-08-29 13:09:23,18.0
1190.0,0.016113281,-0.08795166,0.095825195,-6.076336,6.328244000000001,-1.70229,2019-08-29 13:09:23,18.0
1191.0,0.009643555,-0.06994629,0.11102295,3.9160306000000005,0.49618322,-5.0229006,2019-08-29 13:09:23,18.0
1192.0,0.01751709,-0.072143555,0.10784912,-6.1679387000000006,8.083969,-5.7709923,2019-08-29 13:09:23,18.0
1193.0,0.014831543,-0.08270264,0.09820557,-13.61832,7.5114503,-4.4656487,2019-08-29 13:09:23,18.0
1194.0,0.022827148,-0.07171631,0.10119629,-10.007633,8.419847500000001,-2.5801528,2019-08-29 13:09:23,18.0
1195.0,0.018127441,-0.06951904,0.109313965,-2.9007633,0.740458,-0.31297709999999995,2019-08-29 13:09:23,18.0
1196.0,0.016723633,-0.07928467,0.11035156,-14.091603,4.4961834000000005,0.9312976999999999,2019-08-29 13:09:23,18.0
1197.0,0.0063476562,-0.08691406,0.10223389,-12.091603,9.351144999999999,-1.0229008,2019-08-29 13:09:23,18.0
1198.0,0.020690918,-0.076171875,0.10913086,4.625954,9.488549,-3.3664122000000005,2019-08-29 13:09:23,18.0
1199.0,0.01751709,-0.061340332000000004,0.11199951,-2.0610688,9.267176,-3.5038167999999996,2019-08-29 13:09:23,18.0
1200.0,0.011291503999999999,-0.08502197,0.09094238,-10.931297,8.946565,-3.0992367,2019-08-29 13:09:23,18.0
1201.0,0.012512207,-0.07800293,0.10705566400000001,-25.89313,1.7938931,-2.816794,2019-08-29 13:09:23,18.0
1202.0,0.009155273,-0.105285645,0.10241699,1.5419847,13.832060999999998,-3.7175572,2019-08-29 13:09:23,18.0
1203.0,0.011352538999999998,-0.10778808599999999,0.09210205,41.450382,-8.946565,-4.091603299999999,2019-08-29 13:09:24,18.0
1204.0,0.0034790040000000004,-0.016418457,0.07531738,3.7480917000000002,-23.633587,-1.2290076,2019-08-29 13:09:24,18.0
1205.0,0.02960205,-0.032836914,0.11981201,-113.78626000000001,2.2900763,6.5038165999999995,2019-08-29 13:09:24,18.0
1206.0,0.03527832,-0.089904785,0.105285645,-164.63359,12.061069,17.305344,2019-08-29 13:09:24,18.0
1207.0,0.007019043000000001,-0.06292724599999999,0.10437012,-144.40458999999998,38.030533,8.687023,2019-08-29 13:09:24,18.0
1208.0,0.029907227,-0.123535156,0.10327148400000001,-186.69466,33.969467,21.679389999999998,2019-08-29 13:09:24,18.0
1209.0,0.0043945312,-0.15106201,0.09362793,-76.229004,69.63359,24.51145,2019-08-29 13:09:24,18.0
1210.0,0.0008544922000000001,-0.12170410000000002,0.058898926,9.572519,64.99235999999999,18.740458,2019-08-29 13:09:24,18.0
1211.0,-0.012145996000000001,-0.09802246,0.052734375,50.374046,51.137405,7.534351299999999,2019-08-29 13:09:24,18.0
1212.0,-0.0005493164,-0.10534668,0.053588867000000005,38.305344,29.931296999999997,-0.8549618,2019-08-29 13:09:24,18.0
1213.0,-0.006286621,-0.1026001,0.056396484000000004,55.687022999999996,15.763359,-17.290077,2019-08-29 13:09:24,18.0
1214.0,-0.0052490233999999995,-0.08728027,0.08270264,45.030533,6.114504,-21.595419,2019-08-29 13:09:24,18.0
1215.0,-0.0021972656,-0.099609375,0.074157715,3.7404580000000003,-15.9007635,-17.748089999999998,2019-08-29 13:09:24,18.0
1216.0,-0.0038452148,-0.09124756,0.09112549,-19.419847,-17.38168,-12.80916,2019-08-29 13:09:24,18.0
1217.0,0.0043945312,-0.101379395,0.07714844,14.770992000000001,-12.725191,-12.9007635,2019-08-29 13:09:24,18.0
1218.0,0.006958008000000001,-0.097717285,0.09777832,28.114503999999997,-17.045801,-12.122137,2019-08-29 13:09:24,18.0
1219.0,0.010070800999999999,-0.07434082,0.103393555,-13.167939000000002,-34.015266,-4.2137402999999996,2019-08-29 13:09:24,18.0
1220.0,0.007629394499999999,-0.08782959,0.07244873,-10.534351,-24.671754999999997,-16.564885999999998,2019-08-29 13:09:24,18.0
1221.0,0.03375244,-0.1171875,0.09674072,13.961832000000001,-10.847328,-25.045801,2019-08-29 13:09:24,18.0
1222.0,0.036254882999999995,-0.076660156,0.11395264,1.259542,2.610687,-13.106871,2019-08-29 13:09:24,18.0
1223.0,0.016418457,-0.10125732400000001,0.06359863,-23.748089999999998,3.4351146,-2.6793892,2019-08-29 13:09:24,18.0
1224.0,0.00970459,-0.09399414,0.099731445,4.8244276,3.778626,-11.053435,2019-08-29 13:09:24,18.0
1225.0,0.016601562,-0.12585449,0.07678223,14.610686999999999,6.763358599999999,-8.648855000000001,2019-08-29 13:09:24,18.0
1226.0,0.0029296875,-0.08233642599999999,0.083862305,4.625954,5.259542,-2.3206108,2019-08-29 13:09:24,18.0
1227.0,0.015808105,-0.09503174,0.08551025400000001,5.259542,8.038167999999999,-4.740458,2019-08-29 13:09:24,18.0
1228.0,0.0119018555,-0.09124756,0.09234619,10.206107000000001,11.992367,-9.587786999999999,2019-08-29 13:09:24,18.0
1229.0,0.018066406,-0.07971191400000001,0.1003418,-5.2290077,7.6946563999999995,-4.984732599999999,2019-08-29 13:09:24,18.0
1230.0,0.018432617,-0.08959961,0.091308594,-12.229008,8.312977,-3.351145,2019-08-29 13:09:24,18.0
1231.0,0.016296387,-0.10235596,0.095825195,2.5648854,7.0,-3.9923663,2019-08-29 13:09:24,18.0
1232.0,0.0026245116999999997,-0.09985351599999999,0.093933105,19.10687,4.221374,-5.076336,2019-08-29 13:09:24,18.0
1233.0,0.01574707,-0.08691406,0.10247803,18.145039,-3.29771,-4.984732599999999,2019-08-29 13:09:24,18.0
1234.0,0.011169433999999999,-0.088378906,0.085754395,-9.022901,-0.38167940000000006,0.18320611,2019-08-29 13:09:24,18.0
1235.0,0.009521484,-0.06982422,0.10272217,-3.1145039,18.030535,-8.587786999999999,2019-08-29 13:09:24,18.0
1236.0,0.0146484375,-0.1071167,0.08654785,-14.931297,7.5648856,-4.0610685,2019-08-29 13:09:24,18.0
1237.0,0.007690429699999999,-0.10418701,0.09533691400000001,24.229008,2.6564887,-11.091603,2019-08-29 13:09:24,18.0
1238.0,0.033691406,-0.05493164,0.12982178,10.343511999999999,4.984732599999999,-6.740458,2019-08-29 13:09:24,18.0
1239.0,0.024902344,-0.06866455,0.092285156,-45.396946,18.42748,0.8778626,2019-08-29 13:09:24,18.0
1240.0,0.020568848,-0.09777832,0.08563232400000001,-36.496179999999995,2.6717557999999997,1.6412214,2019-08-29 13:09:25,18.0
1241.0,0.016967773000000002,-0.10449219,0.09686279,-26.687022999999996,12.908397,6.59542,2019-08-29 13:09:25,18.0
1242.0,0.004699707,-0.10021973,0.08831787,-3.8015267999999995,32.328243,6.0610685,2019-08-29 13:09:25,18.0
1243.0,0.0073242188,-0.07464599599999999,0.10968017599999999,-9.526717,17.175573,-2.8396947,2019-08-29 13:09:25,18.0
1244.0,0.005004883,-0.089660645,0.09942627,-23.06107,4.7557254,-9.923664,2019-08-29 13:09:25,18.0
1245.0,0.016052246000000003,-0.10443115,0.084106445,-17.099237,-2.4961832000000004,-11.854961,2019-08-29 13:09:25,18.0
1246.0,0.0154418945,-0.09466553,0.08074951,-4.3206105,-1.4198473999999999,-12.511451,2019-08-29 13:09:25,18.0
1247.0,0.025756836,-0.08813476599999999,0.09417724599999999,2.167939,2.8396947,-9.458015,2019-08-29 13:09:25,18.0
1248.0,0.024902344,-0.08282471,0.09515381,-8.435115,7.1450380000000004,-1.5954198999999998,2019-08-29 13:09:25,18.0
1249.0,0.01550293,-0.100097656,0.09075928,-3.038168,7.7862597000000004,-3.2290077,2019-08-29 13:09:25,18.0
1250.0,0.013061523,-0.09606933599999999,0.09124756,16.053434,7.923664,-3.8931297999999996,2019-08-29 13:09:25,18.0
1251.0,0.02734375,-0.088012695,0.09259033,1.1068702,6.89313,0.9160305000000001,2019-08-29 13:09:25,18.0
1252.0,0.0178833,-0.07501221,0.09240723,-17.419847,7.6946563999999995,-0.47328246,2019-08-29 13:09:25,18.0
1253.0,0.0067749023,-0.09515381,0.08270264,-7.671755999999999,12.526717,-2.3435113,2019-08-29 13:09:25,18.0
1254.0,0.023986816,-0.09790039,0.08703613,15.251907999999998,2.1145039,-4.091603299999999,2019-08-29 13:09:25,18.0
1255.0,0.014770508,-0.07824707,0.09490967,24.015266,5.259542,-7.236641400000001,2019-08-29 13:09:25,18.0
1256.0,0.013366699,-0.06402588,0.10290527,2.2366412,7.206106699999999,-4.8702292,2019-08-29 13:09:25,18.0
1257.0,0.015563965,-0.07940674,0.09643555,-16.748089999999998,8.038167999999999,-1.5648855,2019-08-29 13:09:25,18.0
1258.0,0.024719237999999998,-0.09851074,0.09051514,-17.809160000000002,8.488549,-2.4885497,2019-08-29 13:09:25,18.0
1259.0,0.01739502,-0.092285156,0.09490967,-4.076336,7.0458016,-3.3587787000000002,2019-08-29 13:09:25,18.0
1260.0,0.015808105,-0.07940674,0.104003906,-3.6717557999999997,9.122137,-3.9007633000000004,2019-08-29 13:09:25,18.0
1261.0,0.014770508,-0.09332275400000001,0.08929443,-14.450381,2.832061,-0.77862597,2019-08-29 13:09:25,18.0
1262.0,0.009887695,-0.08111572,0.10101318,-2.687023,7.40458,-2.5877862,2019-08-29 13:09:25,18.0
1263.0,0.01739502,-0.085876465,0.0960083,3.6717557999999997,-1.8854961,-7.3587785000000006,2019-08-29 13:09:25,18.0
1264.0,0.020263672,-0.08569336,0.08538818,-9.526717,0.2977099,-5.4885497,2019-08-29 13:09:25,18.0
1265.0,0.02331543,-0.08093262,0.09204101599999999,-13.129771,10.122137,-4.4885497,2019-08-29 13:09:25,18.0
1266.0,0.024230957,-0.09851074,0.09082031,-3.0839694,9.358779,-1.7480916000000002,2019-08-29 13:09:25,18.0
1267.0,0.0134887695,-0.08868408,0.09436035,0.015267176,4.6793895,-3.0839694,2019-08-29 13:09:25,18.0
1268.0,0.017089844,-0.08996582,0.09240723,-8.770992,8.229008,1.5572518999999998,2019-08-29 13:09:25,18.0
1269.0,0.012207031,-0.09069824,0.09423828,-9.961832000000001,2.427481,-1.6564884999999998,2019-08-29 13:09:25,18.0
1270.0,0.0073242188,-0.08477783,0.097473145,7.8015265,12.656488000000001,-6.6870227,2019-08-29 13:09:25,18.0
1271.0,0.013671875,-0.08569336,0.091674805,-0.19083970000000003,5.183206,-4.1221375,2019-08-29 13:09:25,18.0
1272.0,0.011047363000000001,-0.08996582,0.08624267599999999,-2.3587787000000002,4.4503818,-2.961832,2019-08-29 13:09:25,18.0
1273.0,0.017944336,-0.08782959,0.09118652,9.045800999999999,1.9923664,-3.6641220000000003,2019-08-29 13:09:25,18.0
1274.0,0.025024414,-0.07312012,0.10455322,1.0458015,5.5038165999999995,-0.4274809,2019-08-29 13:09:25,18.0
1275.0,0.03173828,-0.05419922,0.1171875,-35.503820000000005,9.183207000000001,1.7099236,2019-08-29 13:09:25,18.0
1276.0,0.008056641,-0.09375,0.08532715,-74.16031,14.992367000000002,12.030535,2019-08-29 13:09:26,18.0
1277.0,0.014953613000000001,-0.11151123,0.11920166,-3.5725190000000002,13.2213745,-16.748089999999998,2019-08-29 13:09:26,18.0
1278.0,0.0012207030999999999,-0.07684326,0.12200928,15.40458,56.51145,-10.648855000000001,2019-08-29 13:09:26,18.0
1279.0,0.0029907227,-0.072387695,0.10614014,-77.72519,40.91603,5.236641400000001,2019-08-29 13:09:26,18.0
1280.0,0.0016479492000000002,-0.117370605,0.07562256,-59.62595400000001,22.862595000000002,1.0152671,2019-08-29 13:09:26,18.0
1281.0,-0.0051879883,-0.07757568,0.051757812,19.877863,3.6870230000000004,-19.671754999999997,2019-08-29 13:09:26,18.0
1282.0,0.014343261999999999,-0.074157715,0.04852295,14.923664000000002,-22.694656,-38.343509999999995,2019-08-29 13:09:26,18.0
1283.0,0.045288086,-0.10473633,0.19036865,8.862596,7.2748094,-40.870228000000004,2019-08-29 13:09:26,18.0
1284.0,0.00048828125,-0.14459229,-0.027160645,2.8091602000000004,-3.5496182000000003,21.931297,2019-08-29 13:09:26,18.0
1285.0,0.0014648438,-0.014282227,0.09039307,-12.656488000000001,-20.458015,-4.885496,2019-08-29 13:09:26,18.0
1286.0,0.016296387,-0.12915039,0.08135986,-15.725191,3.3435113,-5.3053436,2019-08-29 13:09:26,18.0
1287.0,0.0067749023,-0.08843994,0.08068848,11.129771,7.4274807,-5.59542,2019-08-29 13:09:26,18.0
1288.0,0.019226074,-0.09954834,0.08679199,-16.480917,-0.28244275,2.076336,2019-08-29 13:09:26,18.0
1289.0,0.012573242,-0.10070801,0.08636474599999999,10.305344,8.732824,-5.1984735,2019-08-29 13:09:26,18.0
1290.0,0.01550293,-0.08422851599999999,0.09405517599999999,-2.908397,2.2290077,-5.114504,2019-08-29 13:09:26,18.0
1291.0,0.017700195,-0.099487305,0.081848145,7.1221375,7.70229,-5.40458,2019-08-29 13:09:26,18.0
1292.0,0.025146484,-0.09411621,0.091918945,16.312977,1.2290076,-7.1679387000000006,2019-08-29 13:09:26,18.0
1293.0,0.014770508,-0.08709717,0.09851074,13.793892999999999,0.4427481,-1.0458015,2019-08-29 13:09:26,18.0
1294.0,0.016784668,-0.07495117,0.09893799,3.4427480000000004,1.9923664,-0.13740458,2019-08-29 13:09:26,18.0
1295.0,0.023864746000000003,-0.08911133,0.08984375,-24.57252,6.5114503,-1.3740458,2019-08-29 13:09:26,18.0
1296.0,0.017456055,-0.101623535,0.07244873,0.5496183000000001,9.709924,-1.5801526000000001,2019-08-29 13:09:26,18.0
1297.0,0.014343261999999999,-0.091674805,0.11016846,0.71755725,9.7786255,-5.3129773,2019-08-29 13:09:26,18.0
1298.0,0.020812988,-0.088012695,0.096191406,-2.9312978,8.488549,-3.2366412,2019-08-29 13:09:26,18.0
1299.0,0.01953125,-0.08135986,0.09820557,-17.671754999999997,5.1374044,-4.740458,2019-08-29 13:09:26,18.0
1300.0,0.027282715,-0.09100342,0.08959961,-12.038167999999999,12.343511999999999,-4.038168,2019-08-29 13:09:26,18.0
1301.0,0.006652831999999999,-0.09307861,0.08172607400000001,-1.4427481000000002,5.5038165999999995,-5.4351144,2019-08-29 13:09:26,18.0
1302.0,0.017089844,-0.07592773400000001,0.09423828,8.412213000000001,3.8931297999999996,-6.2748094000000005,2019-08-29 13:09:26,18.0
1303.0,0.02178955,-0.06994629,0.10070801,-10.526717,5.3893127,-4.2061067,2019-08-29 13:09:26,18.0
1304.0,0.01361084,-0.08862305,0.09680176,-21.305344,9.412213000000001,-2.7480917000000002,2019-08-29 13:09:26,18.0
1305.0,0.007019043000000001,-0.09399414,0.09222412,-17.412214000000002,9.244275,-1.2137405,2019-08-29 13:09:26,18.0
1306.0,0.009887695,-0.10192871,0.08959961,4.091603299999999,4.3893127,-7.328244000000001,2019-08-29 13:09:26,18.0
1307.0,0.01184082,-0.08111572,0.09265137,0.7480916,5.5725193,-5.3587785000000006,2019-08-29 13:09:26,18.0
1308.0,0.021728516,-0.08178711,0.09765625,-11.702291,6.1603055,-2.534351,2019-08-29 13:09:26,18.0
1309.0,0.01184082,-0.09161377,0.09027099599999999,-9.305344,8.328244,-1.70229,2019-08-29 13:09:26,18.0
1310.0,0.012207031,-0.083984375,0.08984375,-5.740458,8.603053,-2.1908397999999996,2019-08-29 13:09:26,18.0
1311.0,0.013977051,-0.088378906,0.09576416,-1.6335878000000001,5.2824425999999995,-4.480916000000001,2019-08-29 13:09:27,18.0
1312.0,0.016052246000000003,-0.08215332,0.09350586,-5.480916000000001,7.1984735,-3.6106870000000004,2019-08-29 13:09:27,18.0
1313.0,0.0032958984000000004,-0.08807373,0.09014892599999999,-2.6412212999999998,3.3206108,-1.3740458,2019-08-29 13:09:27,18.0
1314.0,0.010620117,-0.08831787,0.091796875,-4.633588,8.709924,-0.77862597,2019-08-29 13:09:27,18.0
1315.0,0.0053100586,-0.085998535,0.10266113,-4.068702,9.068703,-2.0992367,2019-08-29 13:09:27,18.0
1316.0,0.008117675999999999,-0.08569336,0.09399414,-9.160305000000001,6.9541984,-1.1603054,2019-08-29 13:09:27,18.0
1317.0,0.013977051,-0.08807373,0.09185791,-7.709923700000001,3.4351146,-2.4503817999999997,2019-08-29 13:09:27,18.0
1318.0,0.017822266,-0.09442139,0.09490967,-4.763358599999999,4.442748,-3.4351146,2019-08-29 13:09:27,18.0
1319.0,0.015625,-0.08557129,0.09014892599999999,-1.038168,5.6488547,-5.412214,2019-08-29 13:09:27,18.0
1320.0,0.018981934,-0.075683594,0.08618164,3.129771,11.022901,-4.343511599999999,2019-08-29 13:09:27,18.0
1321.0,0.01953125,-0.09039307,0.09454346,-14.389313000000001,4.053435299999999,-0.45801526,2019-08-29 13:09:27,18.0
1322.0,0.0034790040000000004,-0.08862305,0.09344482400000001,-9.450381,7.3053436000000005,-3.351145,2019-08-29 13:09:27,18.0
1323.0,0.020996094,-0.09161377,0.089782715,7.4885497,5.442748,-5.038168,2019-08-29 13:09:27,18.0
1324.0,0.017028809,-0.06781006,0.10217285,1.3358778999999998,4.0992365,-4.412214,2019-08-29 13:09:27,18.0
1325.0,0.012756348,-0.08026123,0.09271239999999999,-11.2213745,4.2442746,-1.0,2019-08-29 13:09:27,18.0
1326.0,0.013977051,-0.08703613,0.09283447,-13.129771,9.198473,-2.6793892,2019-08-29 13:09:27,18.0
1327.0,0.021484375,-0.08862305,0.09613037,-10.145039,6.4351144,-1.2519083999999998,2019-08-29 13:09:27,18.0
1328.0,0.012390136999999999,-0.10040283,0.09484863,-6.9160304,5.8320612999999994,-6.7328243,2019-08-29 13:09:27,18.0
1329.0,0.004028320300000001,-0.08813476599999999,0.09436035,1.7480916000000002,3.4274809999999998,-6.2671757,2019-08-29 13:09:27,18.0
1330.0,0.017028809,-0.08172607400000001,0.09027099599999999,-7.0076336999999995,7.2290077,0.129771,2019-08-29 13:09:27,18.0
1331.0,0.024658202999999997,-0.08093262,0.10253906,-7.9847326,11.267176,1.1145038999999999,2019-08-29 13:09:27,18.0
1332.0,0.014709473,-0.09490967,0.0960083,-7.847328,5.374046,-1.1374046,2019-08-29 13:09:27,18.0
1333.0,0.007019043000000001,-0.09088135,0.09686279,0.08396947,2.7862597,-4.8702292,2019-08-29 13:09:27,18.0
1334.0,0.008239746,-0.07580566400000001,0.10498047,-7.099236500000001,7.969465700000001,-4.7328243,2019-08-29 13:09:27,18.0
1335.0,0.011779785,-0.09997558599999999,0.09863281,-14.473282999999999,5.2671757,-2.4885497,2019-08-29 13:09:27,18.0
1336.0,0.019042969,-0.09484863,0.09045410000000001,-4.9389315,3.8167940000000002,-2.2595419999999997,2019-08-29 13:09:27,18.0
1337.0,0.019836426,-0.084106445,0.09796142599999999,6.793893300000001,8.312977,-4.5114503,2019-08-29 13:09:27,18.0
1338.0,0.01727295,-0.07733154,0.09722900400000001,-2.6259542000000002,6.3053436,-3.129771,2019-08-29 13:09:27,18.0
1339.0,0.012145996000000001,-0.09271239999999999,0.099487305,-10.083969,5.8244276,-1.1297709999999999,2019-08-29 13:09:27,18.0
1340.0,0.010253906,-0.07434082,0.09423828,-6.671755999999999,5.076336,-4.6183205,2019-08-29 13:09:27,18.0
1341.0,0.02331543,-0.09045410000000001,0.1038208,-7.412214,1.9770991999999998,-6.7480917,2019-08-29 13:09:27,18.0
1342.0,0.015197753999999999,-0.08374023400000001,0.09423828,-11.694656,4.5038165999999995,-4.038168,2019-08-29 13:09:27,18.0
1343.0,0.02508545,-0.08795166,0.09509277,-11.832061,10.503817,-1.2366412,2019-08-29 13:09:27,18.0
1344.0,0.01184082,-0.08331299,0.09631348,-9.503817,11.893129,-3.648855,2019-08-29 13:09:27,18.0
1345.0,0.024963378999999997,-0.08630371,0.09808349599999999,-1.70229,6.5419846,-4.1221375,2019-08-29 13:09:27,18.0
1346.0,0.011352538999999998,-0.07678223,0.09277344,-8.526717,5.625954,-3.2366412,2019-08-29 13:09:27,18.0
1347.0,0.014587402,-0.08416748,0.09606933599999999,-8.648855000000001,5.2442746,-2.053435,2019-08-29 13:09:28,18.0
1348.0,0.0015258789000000001,-0.08691406,0.095703125,-9.770992,8.244275,-1.9312977,2019-08-29 13:09:28,18.0
1349.0,0.0056152343999999995,-0.083862305,0.08813476599999999,-1.5801526000000001,4.59542,-3.9923663,2019-08-29 13:09:28,18.0
1350.0,0.007507324,-0.09082031,0.09246826,0.14503817,7.4503818,-5.0992365,2019-08-29 13:09:28,18.0
1351.0,0.015197753999999999,-0.08697510000000001,0.10028076,3.1068702,1.3053435,-3.2900763,2019-08-29 13:09:28,18.0
1352.0,0.022949219,-0.08728027,0.09490967,-8.236641,7.7480917,-2.9160306,2019-08-29 13:09:28,18.0
1353.0,0.016296387,-0.09472656,0.08618164,-13.801526999999998,5.946564700000001,-1.6259542,2019-08-29 13:09:28,18.0
1354.0,0.010498047,-0.07702637,0.09112549,-9.526717,6.2748094000000005,-2.5114503,2019-08-29 13:09:28,18.0
1355.0,0.012939453,-0.08959961,0.08691406,-7.7175574000000005,8.946565,-3.946565,2019-08-29 13:09:28,18.0
1356.0,0.010253906,-0.08636474599999999,0.09460449,-5.10687,3.0152671000000004,-6.190840000000001,2019-08-29 13:09:28,18.0
1357.0,0.018371582,-0.091308594,0.09765625,-3.2137403,2.2595419999999997,-5.7709923,2019-08-29 13:09:28,18.0
1358.0,0.01977539,-0.081848145,0.087768555,-9.206107000000001,6.885496000000001,0.38167940000000006,2019-08-29 13:09:28,18.0
1359.0,0.01171875,-0.08850098,0.087402344,-9.832061,8.038167999999999,-0.17557251,2019-08-29 13:09:28,18.0
1360.0,0.0087890625,-0.08331299,0.10491943,-0.90839696,10.21374,-3.3740457999999998,2019-08-29 13:09:28,18.0
1361.0,0.011291503999999999,-0.081970215,0.0960083,3.1908397999999996,3.793893,-5.5725193,2019-08-29 13:09:28,18.0
1362.0,0.016845703,-0.0836792,0.10015869,-1.7709924,4.076336,-3.9312977999999994,2019-08-29 13:09:28,18.0
1363.0,0.015930176,-0.08703613,0.09051514,-8.946565,9.7786255,-3.2748091,2019-08-29 13:09:28,18.0
1364.0,0.008422852,-0.08312988,0.09814453,-10.427481,9.641221,-2.7633588,2019-08-29 13:09:28,18.0
1365.0,0.015197753999999999,-0.09344482400000001,0.09063721,-8.679389,9.122137,-2.923664,2019-08-29 13:09:28,18.0
1366.0,0.0119018555,-0.10205078,0.095825195,2.3511450000000003,9.351144999999999,-6.10687,2019-08-29 13:09:28,18.0
1367.0,0.016906738,-0.10424805,0.09838867,16.801527,1.2748091000000001,-7.0076336999999995,2019-08-29 13:09:28,18.0
1368.0,0.022644043,-0.06896973,0.09527588,-2.8091602000000004,6.8244276,-3.832061,2019-08-29 13:09:28,18.0
1369.0,0.009155273,-0.083862305,0.09283447,-18.152672,11.374044999999999,1.0763359,2019-08-29 13:09:28,18.0
1370.0,0.016052246000000003,-0.079956055,0.09277344,-9.0,3.8015267999999995,-1.8473282,2019-08-29 13:09:28,18.0
1371.0,0.014465332,-0.10205078,0.093566895,3.6946564,8.511451,-3.0305343,2019-08-29 13:09:28,18.0
1372.0,0.022644043,-0.085754395,0.09887695,7.19084,-2.29771,-4.1984735,2019-08-29 13:09:28,18.0
1373.0,0.023742676,-0.058776855,0.10089111,-5.1755724,1.0229008,-5.526717700000001,2019-08-29 13:09:28,18.0
1374.0,0.018798828,-0.085998535,0.09240723,-43.671757,1.1297709999999999,1.4198473999999999,2019-08-29 13:09:28,18.0
1375.0,0.010375977,-0.09405517599999999,0.08312988,-23.251910000000002,7.335878,-3.0839694,2019-08-29 13:09:28,18.0
1376.0,0.020874023000000002,-0.11077881,0.085876465,-0.35877863,13.015267,-6.1374044,2019-08-29 13:09:28,18.0
1377.0,0.009521484,-0.095214844,0.09979248,27.274809,7.1679387000000006,-7.3587785000000006,2019-08-29 13:09:28,18.0
1378.0,0.021728516,-0.06103515599999999,0.10321045,-5.0229006,8.435115,-2.2137403,2019-08-29 13:09:28,18.0
1379.0,0.008361816,-0.08294678,0.08758545,-21.068703,4.5801525000000005,2.870229,2019-08-29 13:09:28,18.0
1380.0,0.0064086914,-0.09246826,0.083984375,-8.549619,2.5267177000000003,-1.2977100000000001,2019-08-29 13:09:28,18.0
1381.0,0.011413574,-0.08984375,0.10968017599999999,9.038167999999999,15.251907999999998,-5.6793895,2019-08-29 13:09:28,18.0
1382.0,0.016296387,-0.09741211,0.10333252,7.19084,9.977099,-6.6106872999999995,2019-08-29 13:09:28,18.0
1383.0,0.01751709,-0.07080078,0.097473145,-8.610686999999999,-11.251908,-1.480916,2019-08-29 13:09:29,18.0
1384.0,0.017089844,-0.08074951,0.09326172,-34.297709999999995,3.0687022,2.9923662999999996,2019-08-29 13:09:29,18.0
1385.0,0.016418457,-0.09271239999999999,0.08868408,-13.229007999999999,6.7709923,-2.3435113,2019-08-29 13:09:29,18.0
1386.0,0.007690429699999999,-0.08544922,0.097473145,17.007633,10.664123,-6.068702,2019-08-29 13:09:29,18.0
1387.0,0.019165039,-0.07092285,0.097717285,10.435115,5.221374,-4.4656487,2019-08-29 13:09:29,18.0
1388.0,0.012084961000000002,-0.07183838,0.10736084,-15.877863,1.7480916000000002,-2.0458016,2019-08-29 13:09:29,18.0
1389.0,0.02142334,-0.09765625,0.09185791,-8.038167999999999,5.8396945,-3.6641220000000003,2019-08-29 13:09:29,18.0
1390.0,0.025390625,-0.08551025400000001,0.10095215,14.076335999999998,15.458015,-6.8778625,2019-08-29 13:09:29,18.0
1391.0,0.016540527,-0.07556152,0.09924316400000001,-16.213741,6.3893127,0.24427481,2019-08-29 13:09:29,18.0
1392.0,0.012634277,-0.08453369,0.10266113,-21.702289999999998,3.076336,-4.0152674,2019-08-29 13:09:29,18.0
1393.0,0.009033203,-0.10687256,0.09197998,-8.358779,0.77099234,-5.2824425999999995,2019-08-29 13:09:29,18.0
1394.0,0.017028809,-0.08093262,0.10113525400000001,6.2137402999999996,-1.1679389999999998,-7.7709923,2019-08-29 13:09:29,18.0
1395.0,0.02545166,-0.07751465,0.10113525400000001,-15.732823999999999,10.404580000000001,-0.40458015,2019-08-29 13:09:29,18.0
1396.0,0.011962891000000002,-0.081848145,0.08624267599999999,-16.053434,4.374046,0.38931298,2019-08-29 13:09:29,18.0
1397.0,0.014343261999999999,-0.10180664,0.08795166,0.35877863,12.847328,-0.06870229,2019-08-29 13:09:29,18.0
1398.0,0.013977051,-0.08312988,0.10327148400000001,3.7099237,5.114504,-1.961832,2019-08-29 13:09:29,18.0
1399.0,0.009338379,-0.08691406,0.10327148400000001,-3.40458,2.1755726,-5.671755999999999,2019-08-29 13:09:29,18.0
1400.0,0.021484375,-0.08117676,0.09967041,-3.5496182000000003,-2.6641220000000003,-6.862595599999999,2019-08-29 13:09:29,18.0
1401.0,0.02319336,-0.08355713,0.10058594,-8.343511999999999,10.893129,-2.832061,2019-08-29 13:09:29,18.0
1402.0,0.025146484,-0.07940674,0.10559082,-2.6183207000000004,15.267176000000001,-6.526717700000001,2019-08-29 13:09:29,18.0
1403.0,0.015563965,-0.08923339999999999,0.09869385,-7.664122,7.1297708,-3.0305343,2019-08-29 13:09:29,18.0
1404.0,0.014953613000000001,-0.08154297,0.09967041,4.1984735,-2.6946564,-6.076336,2019-08-29 13:09:29,18.0
1405.0,0.0154418945,-0.08746338,0.08850098,-0.36641222,7.2442746,-0.259542,2019-08-29 13:09:29,18.0
1406.0,0.023925781,-0.0925293,0.09454346,-9.7786255,7.3664119999999995,-1.2290076,2019-08-29 13:09:29,18.0
1407.0,0.014465332,-0.08062744,0.09594726599999999,-0.10687023,14.236641,-2.076336,2019-08-29 13:09:29,18.0
1408.0,0.023986816,-0.07464599599999999,0.10559082,-11.114504,4.2671757,-1.4122137,2019-08-29 13:09:29,18.0
1409.0,0.00793457,-0.092285156,0.10186767599999999,-3.351145,-9.320611,-5.633588,2019-08-29 13:09:29,18.0
1410.0,0.02947998,-0.083496094,0.09674072,4.5801525000000005,-4.6412214999999994,-3.6030532999999996,2019-08-29 13:09:29,18.0
1411.0,0.027832031,-0.06951904,0.1071167,-34.89313,9.946565,2.0610688,2019-08-29 13:09:29,18.0
1412.0,0.017028809,-0.092285156,0.10211182,-26.12977,17.114504,-0.66412216,2019-08-29 13:09:29,18.0
1413.0,0.015014648,-0.09136963,0.101623535,-9.7404585,13.862596,-4.343511599999999,2019-08-29 13:09:29,18.0
1414.0,0.026794434,-0.09375,0.09698486,2.1984732000000005,1.4045801000000002,-6.900763499999999,2019-08-29 13:09:29,18.0
1415.0,0.027709961,-0.07714844,0.09320068,-4.4503818,13.572519,-3.832061,2019-08-29 13:09:29,18.0
1416.0,0.021972656,-0.087402344,0.09649658,-5.1297708,12.374044999999999,-0.259542,2019-08-29 13:09:29,18.0
1417.0,0.014160156,-0.08428955,0.09503174,11.419847500000001,7.5801525,-5.0458016,2019-08-29 13:09:29,18.0
1418.0,0.01550293,-0.07342529,0.09832764,-9.633588,0.8854962,-5.068702,2019-08-29 13:09:29,18.0
1419.0,0.01159668,-0.084106445,0.10235596,-16.549618,2.3816792999999996,-4.4961834000000005,2019-08-29 13:09:30,18.0
1420.0,0.02520752,-0.08569336,0.09655762,-6.908396700000001,8.709924,-4.2824425999999995,2019-08-29 13:09:30,18.0
1421.0,0.012634277,-0.09301758,0.09173584,-8.106871,9.007633,0.015267176,2019-08-29 13:09:30,18.0
1422.0,0.006164551,-0.09039307,0.08312988,-4.2061067,5.931298,1.1832061000000003,2019-08-29 13:09:30,18.0
1423.0,0.01550293,-0.08312988,0.1003418,-4.0305343,5.1755724,-0.19847329,2019-08-29 13:09:30,18.0
1424.0,0.021240234,-0.08551025400000001,0.10504150400000001,5.221374,8.557252,-6.2671757,2019-08-29 13:09:30,18.0
1425.0,0.011108398,-0.08001709,0.09460449,5.5038165999999995,4.9389315,-7.076336,2019-08-29 13:09:30,18.0
1426.0,0.009399414,-0.07098389,0.10131836,-14.511451000000001,13.893129,-5.4351144,2019-08-29 13:09:30,18.0
1427.0,0.018981934,-0.068237305,0.1116333,-33.007633,11.877863,-7.70229,2019-08-29 13:09:30,18.0
1428.0,0.033813477,-0.057434082000000004,0.12573242,-114.68701999999999,13.183207000000001,7.0458016,2019-08-29 13:09:30,18.0
1429.0,0.028564452999999997,-0.05987549,0.08270264,-144.31297,53.450382,7.038167999999999,2019-08-29 13:09:30,18.0
1430.0,0.025024414,-0.10980224599999999,0.07452392599999999,-192.07634,35.969467,19.694656,2019-08-29 13:09:30,18.0
1431.0,0.020446777,-0.10040283,0.082214355,-250.1374,45.78626,32.389313,2019-08-29 13:09:30,18.0
1432.0,0.019592285,-0.15875244,0.03656006,-250.1374,21.732824,64.36641,2019-08-29 13:09:30,18.0
1433.0,-0.0032958984000000004,-0.18090820000000002,-0.012329102,-165.16794,16.328245000000003,72.62595,2019-08-29 13:09:30,18.0
1434.0,-0.013427733999999998,-0.13299560000000002,-0.0072631836,-15.2213745,5.9160304,41.900764,2019-08-29 13:09:30,18.0
