measurement,Acc_X,Acc_Y,Acc_Z,Gyr_X,Gyr_Y,Gyr_Z,Time(hh:mm:ss),Label
193.0,-0.13110352,0.045898438,0.010620117,93.23664000000001,-22.679389999999998,32.23664,2019-09-07 14:35:30,13.0
194.0,-0.1281128,0.0546875,0.017211914,104.66412,-30.740458,24.183207,2019-09-07 14:35:30,13.0
195.0,-0.11859131,0.054992676,0.021728516,87.35114,-32.778625,12.870229,2019-09-07 14:35:30,13.0
196.0,-0.12200928,0.046142578,0.03186035,58.244274,-25.076335999999998,-1.038168,2019-09-07 14:35:30,13.0
197.0,-0.12225342,0.036254882999999995,0.023376465,15.801526999999998,-9.946565,-10.007633,2019-09-07 14:35:30,13.0
198.0,-0.13128662,0.019470215,0.031799316,-15.931297,2.7175572,-11.587786999999999,2019-09-07 14:35:30,13.0
199.0,-0.12628174,0.04901123,0.016357422,-31.442749,8.244275,-8.381680000000001,2019-09-07 14:35:30,13.0
200.0,-0.12298584,0.04156494,0.012817383,-46.656490000000005,7.7862597000000004,2.2366412,2019-09-07 14:35:30,13.0
201.0,-0.1352539,0.027526855,0.0072021483999999995,-40.793890000000005,4.2824425999999995,15.091603,2019-09-07 14:35:30,13.0
202.0,-0.13482666,0.03894043,0.0154418945,-31.778625,-6.2137402999999996,31.282442,2019-09-07 14:35:30,13.0
203.0,-0.12322998,0.050476074,0.012023926,-23.610687,-13.946565,44.46565,2019-09-07 14:35:30,13.0
204.0,-0.14038086,0.02532959,0.018676758,-16.366413,-16.007633,55.664124,2019-09-07 14:35:30,13.0
205.0,-0.13031006,0.04168701,0.019592285,-18.580153,-20.221375,64.39695,2019-09-07 14:35:30,13.0
206.0,-0.12139892599999999,0.051635742000000005,0.0211792,-30.900763,-20.755726,65.42748,2019-09-07 14:35:30,13.0
207.0,-0.13757324,0.038146973,0.020080566,-42.068703,-18.793894,62.46565,2019-09-07 14:35:30,13.0
208.0,-0.1451416,0.031555176000000004,0.024108887000000002,-35.335876,-18.335878,59.12214,2019-09-07 14:35:30,13.0
209.0,-0.14178467,0.029663086,0.020812988,-33.06107,-15.442748000000002,50.9771,2019-09-07 14:35:30,13.0
210.0,-0.13806152,0.02758789,0.02331543,-23.221375,-12.770992,42.908398,2019-09-07 14:35:30,13.0
211.0,-0.11383057,0.045532227,0.025695799999999998,-14.488548999999999,-9.961832000000001,33.87786,2019-09-07 14:35:30,13.0
212.0,-0.1295166,0.052124023,0.022216797000000003,-10.267176,-5.8015265,21.099237,2019-09-07 14:35:30,13.0
213.0,-0.13104248,0.02923584,0.027893066,-10.877863,-0.35877863,9.007633,2019-09-07 14:35:30,13.0
214.0,-0.1303711,0.041259766,0.025634766,-19.213741,1.6335878000000001,-1.610687,2019-09-07 14:35:30,13.0
215.0,-0.13458252,0.04309082,0.035339355,-20.374046,7.9389315,-12.839694999999999,2019-09-07 14:35:30,13.0
216.0,-0.13488770000000003,0.0390625,0.027648926,-28.38168,12.7786255,-21.076335999999998,2019-09-07 14:35:30,13.0
217.0,-0.14788818,0.03765869,0.030029297000000003,-33.969467,12.297709,-27.633587,2019-09-07 14:35:30,13.0
218.0,-0.1428833,0.026611327999999997,0.024414062,-34.328243,12.946565,-31.80916,2019-09-07 14:35:30,13.0
219.0,-0.15551758,0.014465332,0.038391113,-35.06107,11.122137,-33.14504,2019-09-07 14:35:30,13.0
220.0,-0.14904785,0.033569336,0.034423828,-33.91603,6.5496182,-29.671754999999997,2019-09-07 14:35:30,13.0
221.0,-0.14587402,0.04510498,0.036621094,-29.61832,5.7022900000000005,-27.923664000000002,2019-09-07 14:35:30,13.0
222.0,-0.13287354,0.032714844,0.039001465,-23.732824,2.2595419999999997,-26.541984999999997,2019-09-07 14:35:30,13.0
223.0,-0.13500977,0.022094727,0.04107666,-12.9007635,-1.2977100000000001,-24.549618,2019-09-07 14:35:30,13.0
224.0,-0.12054443,0.022277832,0.044921875,4.0229006,-0.9465648999999999,-25.961832,2019-09-07 14:35:30,13.0
225.0,-0.13275146,0.029663086,0.037109375,12.709924,-3.6870230000000004,-27.641221999999996,2019-09-07 14:35:30,13.0
226.0,-0.12512207,0.028442382999999998,0.035888672,20.694656,-5.961832,-34.412212,2019-09-07 14:35:30,13.0
227.0,-0.12554932,0.025939941,0.04449463,22.38168,-4.603053599999999,-40.564884,2019-09-07 14:35:30,13.0
228.0,-0.11645508,0.048217773,0.033203125,22.396946,-3.4809160000000006,-46.496179999999995,2019-09-07 14:35:30,13.0
229.0,-0.13604736,0.0072631836,0.038513184,18.679389999999998,-0.26717559,-53.893130000000006,2019-09-07 14:35:30,13.0
230.0,-0.11834717,0.03265381,0.033935547,22.61832,2.6335877999999995,-53.083969999999994,2019-09-07 14:35:30,13.0
231.0,-0.11285400400000001,0.019592285,0.02722168,27.221375,9.557252,-52.709922999999996,2019-09-07 14:35:30,13.0
232.0,-0.12268066400000001,0.031982422,0.034240723,20.38168,10.725191,-51.25954,2019-09-07 14:35:31,13.0
233.0,-0.11920166,0.04168701,0.033325195,19.862595000000002,13.343511999999999,-48.0229,2019-09-07 14:35:31,13.0
234.0,-0.11810303,0.03643799,0.03137207,20.038168,13.557251999999998,-41.267174,2019-09-07 14:35:31,13.0
235.0,-0.11230469,0.04095459,0.030334472999999997,6.587786,21.610687,-35.206109999999995,2019-09-07 14:35:31,13.0
236.0,-0.13916016,0.036193848,0.033569336,0.4274809,24.213741,-29.80916,2019-09-07 14:35:31,13.0
237.0,-0.12152099599999999,0.03778076,0.033691406,4.10687,24.435114000000002,-22.190839999999998,2019-09-07 14:35:31,13.0
238.0,-0.12701416,0.02923584,0.028259277000000003,-0.40458015,32.297709999999995,-15.335876999999998,2019-09-07 14:35:31,13.0
239.0,-0.14019775,0.027832031,0.024536132999999998,5.4580154,34.282444,-3.0152671000000004,2019-09-07 14:35:31,13.0
240.0,-0.18463135,0.03778076,0.023071289,2.221374,38.610687,16.396946,2019-09-07 14:35:31,13.0
241.0,-0.20404053,0.045898438,0.024414062,-4.5496182,38.305344,39.961834,2019-09-07 14:35:31,13.0
242.0,-0.19641113,0.05596924,0.038269042999999996,-12.816792999999999,20.763360000000002,71.54961999999999,2019-09-07 14:35:31,13.0
243.0,-0.17071533,0.026306152000000003,0.034851073999999996,-14.38168,11.21374,112.42748,2019-09-07 14:35:31,13.0
244.0,-0.17718506,0.049621582000000004,0.039794922,-10.335877,9.122137,153.62596000000002,2019-09-07 14:35:31,13.0
245.0,-0.18060303,0.04510498,0.027770996000000003,-18.564885999999998,-12.656488000000001,189.76335,2019-09-07 14:35:31,13.0
246.0,-0.17932129,0.05621338,0.026916503999999997,-11.7786255,-40.030533,223.78625,2019-09-07 14:35:31,13.0
247.0,-0.16326904,0.09387207,0.036010742000000005,-12.78626,-53.64122,246.55725,2019-09-07 14:35:31,13.0
248.0,-0.16552734,0.10577392599999999,0.033996582000000004,-18.160304999999997,-53.389313,250.12977999999998,2019-09-07 14:35:31,13.0
249.0,-0.17034912,0.119628906,0.020019531,-15.343511999999999,-55.450382,250.12977999999998,2019-09-07 14:35:31,13.0
250.0,-0.14587402,0.1038208,0.016662598,6.7251906,-59.0,250.12977999999998,2019-09-07 14:35:31,13.0
251.0,-0.13232422,0.12457275400000001,0.015625,19.458015,-47.862595,250.12977999999998,2019-09-07 14:35:31,13.0
252.0,-0.08239746,0.10632324,0.0115356445,35.053436,-37.25954,250.12977999999998,2019-09-07 14:35:31,13.0
253.0,-0.053100586,0.09082031,0.00970459,76.03817,-11.328244,250.12977999999998,2019-09-07 14:35:31,13.0
254.0,-0.07073974599999999,0.09942627,0.0025634766,109.381676,12.450381,250.12977999999998,2019-09-07 14:35:31,13.0
255.0,-0.04650879,0.10546875,-0.012268066000000001,150.31297,40.358779999999996,250.12977999999998,2019-09-07 14:35:31,13.0
256.0,-0.032104492000000005,0.09649658,-0.009643555,172.00763,73.96183,250.12977999999998,2019-09-07 14:35:31,13.0
257.0,-0.00970459,0.11749267599999999,-0.03692627,148.32825,106.03053,250.12977999999998,2019-09-07 14:35:31,13.0
258.0,0.003112793,0.064941406,-0.026550293,119.71756,141.96947,250.12977999999998,2019-09-07 14:35:31,13.0
259.0,0.033569336,0.059326172,-0.0134887695,112.80916,110.618324,250.12977999999998,2019-09-07 14:35:31,13.0
260.0,0.053466797,0.04095459,-0.012084961000000002,105.41221999999999,128.25954,250.12977999999998,2019-09-07 14:35:31,13.0
261.0,0.06774902,0.023071289,0.0006713867,93.83206,80.87786,223.32062000000002,2019-09-07 14:35:31,13.0
262.0,0.09637451,0.032714844,-0.0006713867,96.73283,62.480915,173.48856,2019-09-07 14:35:31,13.0
263.0,0.09326172,0.02746582,-0.008178711,67.72519,84.541985,130.7481,2019-09-07 14:35:31,13.0
264.0,0.07733154,0.016479492,0.011352538999999998,56.81679499999999,77.72519,90.62595,2019-09-07 14:35:31,13.0
265.0,0.0803833,0.01373291,0.014526367,53.778625,13.534351000000001,50.603054,2019-09-07 14:35:31,13.0
266.0,0.10815430000000001,0.033203125,-0.022338867000000002,38.404579999999996,-11.755725,13.625955,2019-09-07 14:35:31,13.0
267.0,0.08923339999999999,0.038085938,0.02734375,2.312977,78.70992,-10.587786999999999,2019-09-07 14:35:31,13.0
268.0,0.06726074,0.011291503999999999,0.04626465,31.29771,5.557252,-15.335876999999998,2019-09-07 14:35:32,13.0
269.0,0.09246826,0.042236328,-0.00042724610000000003,56.343509999999995,-39.435116,-22.809160000000002,2019-09-07 14:35:32,13.0
270.0,0.09008789,0.06213379,0.03564453,-55.923664,27.465649,-21.786259,2019-09-07 14:35:32,13.0
271.0,0.08697510000000001,0.041320800000000005,0.008300781,-69.900764,-24.717558,-15.480916,2019-09-07 14:35:32,13.0
272.0,0.09893799,0.030944824,-0.007873535,-61.312977000000004,-3.9312977999999994,-7.206106699999999,2019-09-07 14:35:32,13.0
273.0,0.07366943,0.028625487999999998,0.016174316,-28.38168,42.068703,-16.51145,2019-09-07 14:35:32,13.0
274.0,0.062683105,0.020996094,0.048950195,-75.33588,1.648855,-16.305344,2019-09-07 14:35:32,13.0
275.0,0.07763672,0.007019043000000001,0.01940918,-118.29771000000001,-16.137404999999998,-29.076335999999998,2019-09-07 14:35:32,13.0
276.0,0.07495117,0.0008544922000000001,0.0154418945,-50.351147,-1.9236640999999999,-24.42748,2019-09-07 14:35:32,13.0
277.0,0.08697510000000001,0.015991211,0.036132812,6.190840000000001,-33.931297,-16.648854999999998,2019-09-07 14:35:32,13.0
278.0,0.11242676,0.032226562,-0.007751465,42.206109999999995,-59.419846,-26.076335999999998,2019-09-07 14:35:32,13.0
279.0,0.15600586,0.06439209,0.0020141601999999997,-46.320609999999995,-37.755726,-5.2748094000000005,2019-09-07 14:35:32,13.0
280.0,0.1605835,0.026489257999999998,0.0073242188,-81.778625,10.442748,11.320611,2019-09-07 14:35:32,13.0
281.0,0.14752197,0.006713866999999999,0.016906738,-50.51145,-18.335878,28.587785999999998,2019-09-07 14:35:32,13.0
282.0,0.16168213,0.033325195,-0.01739502,29.839695000000003,-52.312977000000004,24.564885999999998,2019-09-07 14:35:32,13.0
283.0,0.15081787,0.025634766,0.013122558999999999,54.412212,9.885496,10.152672,2019-09-07 14:35:32,13.0
284.0,0.13311768,0.03894043,0.0041503906,17.740458,-31.335878000000005,9.816792999999999,2019-09-07 14:35:32,13.0
285.0,0.15112305,0.020996094,-0.030700684,46.87786,-57.893130000000006,16.961832,2019-09-07 14:35:32,13.0
286.0,0.12561035,0.028503418,0.028137207,36.564884,82.96947,-8.091603,2019-09-07 14:35:32,13.0
287.0,0.08721924,0.026794434,0.022277832,28.801527,-60.78626,2.480916,2019-09-07 14:35:32,13.0
288.0,0.09576416,0.006225586,-0.11645508,11.229008,-67.89313,-39.44275,2019-09-07 14:35:32,13.0
289.0,0.070129395,0.007751465,-0.07366943,9.244275,11.80916,-74.145035,2019-09-07 14:35:32,13.0
290.0,0.054382324,0.009765625,0.0015869141,-18.595419,81.36641,-110.80153,2019-09-07 14:35:32,13.0
291.0,0.02355957,0.011108398,0.0048217773,-69.35878000000001,62.984733999999996,-142.14503,2019-09-07 14:35:32,13.0
292.0,0.0028686523,0.006042480500000001,0.01751709,-56.351147,-57.76336,-197.46565,2019-09-07 14:35:32,13.0
293.0,0.009521484,0.022094727,0.023071289,-69.37405,-74.778625,-248.50381000000002,2019-09-07 14:35:32,13.0
294.0,-0.0036010741999999997,0.031799316,0.028991700000000002,-133.85497,-43.541985,-250.1374,2019-09-07 14:35:32,13.0
295.0,-0.020935059,0.021240234,0.024414062,-183.72519,-33.809162,-250.1374,2019-09-07 14:35:32,13.0
296.0,-0.049987792999999996,0.024902344,-0.001159668,-168.78625,-21.610687,-250.1374,2019-09-07 14:35:32,13.0
297.0,-0.0546875,0.04675293,-0.020141601999999998,-67.64121999999999,0.43511450000000007,-250.1374,2019-09-07 14:35:32,13.0
298.0,-0.07751465,0.17785645,0.023010253999999997,-64.0458,136.96947,-250.1374,2019-09-07 14:35:32,13.0
299.0,-0.15917969,0.18951416,0.042419434000000006,-250.1374,25.198473,-250.1374,2019-09-07 14:35:32,13.0
300.0,-0.15142822,0.103637695,0.020324707,-250.1374,186.771,-250.1374,2019-09-07 14:35:32,13.0
301.0,-0.22979736,0.06799316400000001,0.007385254,-250.1374,223.56488,-250.1374,2019-09-07 14:35:32,13.0
302.0,-0.26245117,0.016784668,-0.009887695,-110.54961999999999,250.12977999999998,-250.1374,2019-09-07 14:35:32,13.0
303.0,-0.35864258,0.040161132999999995,-0.022460938,151.0229,250.12977999999998,-250.1374,2019-09-07 14:35:33,13.0
304.0,-0.40344238,0.035949707000000004,-0.028442382999999998,250.12977999999998,250.12977999999998,-250.1374,2019-09-07 14:35:33,13.0
305.0,-0.3548584,0.06402588,-0.014831543,250.12977999999998,202.229,-250.1374,2019-09-07 14:35:33,13.0
306.0,-0.24176025,0.08569336,0.008300781,217.18321,97.862595,-250.1374,2019-09-07 14:35:33,13.0
307.0,-0.15820312,0.07855224599999999,0.0031738281,89.0458,70.92367,-198.48091000000002,2019-09-07 14:35:33,13.0
308.0,-0.12536621,0.013793945,0.0044555664,-21.793894,71.63359,-56.580154,2019-09-07 14:35:33,13.0
309.0,-0.12408447,-0.015991211,0.002380371,32.427483,50.91603,13.961832000000001,2019-09-07 14:35:33,13.0
310.0,-0.11230469,-0.025939941,-0.002380371,137.9084,17.900763,66.87786,2019-09-07 14:35:33,13.0
311.0,-0.091796875,-0.020812988,0.00091552734,249.74046,-5.809159999999999,94.61069,2019-09-07 14:35:33,13.0
312.0,-0.09289551,0.016967773000000002,0.00042724610000000003,250.12977999999998,-21.671754999999997,102.061066,2019-09-07 14:35:33,13.0
313.0,-0.08673096,0.032409667999999996,-0.010620117,250.12977999999998,-62.85496,110.98473,2019-09-07 14:35:33,13.0
314.0,-0.07781982400000001,0.05883789,-0.010314941,250.12977999999998,-62.656490000000005,87.221375,2019-09-07 14:35:33,13.0
315.0,-0.08013916,0.07006836,-0.005737304699999999,196.44275,-22.839695000000003,60.656490000000005,2019-09-07 14:35:33,13.0
316.0,-0.09478760000000001,0.06555176,0.0028076171999999997,75.99235999999999,-38.580154,34.114502,2019-09-07 14:35:33,13.0
317.0,-0.10253906,0.07513428,0.0014648438,-29.664121999999995,-25.580153,-4.6412214999999994,2019-09-07 14:35:33,13.0
318.0,-0.12457275400000001,0.07678223,0.011047363000000001,-130.53435,-5.4351144,-36.282444,2019-09-07 14:35:33,13.0
319.0,-0.16333008,0.051940917999999996,0.022766112999999998,-210.78625,-4.5419846,-58.091602,2019-09-07 14:35:33,13.0
320.0,-0.17132568,0.03100586,0.020629883,-250.1374,19.51145,-48.717556,2019-09-07 14:35:33,13.0
321.0,-0.16137695,0.016540527,0.014038086000000002,-233.67175,55.045803,-17.969465,2019-09-07 14:35:33,13.0
322.0,-0.15911865,0.032043457000000004,0.013793945,-204.30534,74.68701999999999,27.641221999999996,2019-09-07 14:35:33,13.0
323.0,-0.18756104,0.01763916,-0.00048828125,-178.23665,74.87023,74.72519,2019-09-07 14:35:33,13.0
324.0,-0.19433594,0.03765869,-0.0048217773,-128.0229,50.78626,118.36641000000002,2019-09-07 14:35:33,13.0
325.0,-0.17218018,0.014892578,-0.016784668,-98.0458,18.816793,143.46565,2019-09-07 14:35:33,13.0
326.0,-0.18621826,0.02923584,-0.020935059,-103.496185,-38.076336,175.67175,2019-09-07 14:35:33,13.0
327.0,-0.17456055,0.022399902000000003,-0.01977539,-96.70229,-65.78626,184.41222,2019-09-07 14:35:33,13.0
328.0,-0.16870117,0.014404297,-0.009887695,-107.51908,-85.96947,188.8626,2019-09-07 14:35:33,13.0
329.0,-0.14361572,0.015319824,-0.00030517577999999995,-97.55725,-92.30534,190.45038,2019-09-07 14:35:33,13.0
330.0,-0.12835693,0.009887695,0.006286621,-67.32061,-88.15267,191.48091000000002,2019-09-07 14:35:33,13.0
331.0,-0.099121094,0.0234375,-0.001953125,-45.190838,-77.41984599999999,188.63359,2019-09-07 14:35:33,13.0
332.0,-0.09808349599999999,0.010681152,0.0064697266000000005,-30.824427000000004,-61.587788,174.27481,2019-09-07 14:35:33,13.0
333.0,-0.10308838,0.016662598,-0.0005493164,-30.229008,-49.74046,156.72519,2019-09-07 14:35:33,13.0
334.0,-0.109313965,0.025512695,-0.007507324,-49.572517,-37.900764,134.16031,2019-09-07 14:35:33,13.0
335.0,-0.12066650400000001,0.023620605,-0.007751465,-61.30534399999999,-24.305344,100.0458,2019-09-07 14:35:33,13.0
336.0,-0.13354492,0.038085938,-0.007080078,-76.80915999999999,-12.732824,63.83206,2019-09-07 14:35:33,13.0
337.0,-0.14440918,0.03277588,0.0010986328,-83.53435,4.9389315,25.366413,2019-09-07 14:35:33,13.0
338.0,-0.15374756,0.043029785,0.007629394499999999,-86.34351,26.900763,-12.625955000000001,2019-09-07 14:35:34,13.0
339.0,-0.17254639,0.031433105,-0.006286621,-76.221375,45.732826,-46.480915,2019-09-07 14:35:34,13.0
340.0,-0.17047119,0.03137207,-0.0115356445,-55.137405,59.603054,-70.79389,2019-09-07 14:35:34,13.0
341.0,-0.18005371,0.022827148,-0.012145996000000001,-19.587785999999998,72.0687,-100.12214,2019-09-07 14:35:34,13.0
342.0,-0.18011475,0.022216797000000003,-0.017700195,6.6106872999999995,80.28244000000001,-120.84733,2019-09-07 14:35:34,13.0
343.0,-0.18145752,0.023986816,-0.012084961000000002,35.641220000000004,89.08397,-138.90076000000002,2019-09-07 14:35:34,13.0
344.0,-0.17425537,0.01928711,0.0018310547,57.51145,102.31298000000001,-158.96947,2019-09-07 14:35:34,13.0
345.0,-0.16461182,0.026245117000000002,0.030151367000000002,62.091602,123.45038000000001,-178.41222,2019-09-07 14:35:34,13.0
346.0,-0.18060303,0.025512695,0.022827148,50.381679999999996,132.41222,-196.21375,2019-09-07 14:35:34,13.0
347.0,-0.16955566,0.028869628999999997,0.0010375977,58.679390000000005,125.87786000000001,-195.41985,2019-09-07 14:35:34,13.0
348.0,-0.16967773,0.022094727,0.00024414062000000002,87.80153,105.67175,-179.23665,2019-09-07 14:35:34,13.0
349.0,-0.16137695,0.021484375,0.014282227,115.07633,90.78626,-160.18321,2019-09-07 14:35:34,13.0
350.0,-0.15447998,0.018554688,0.028076172000000003,128.87787,76.98473,-140.08397,2019-09-07 14:35:34,13.0
351.0,-0.14379883,0.008300781,0.028930664,146.77100000000002,60.633587,-119.25191000000001,2019-09-07 14:35:34,13.0
352.0,-0.11303711,0.03338623,0.033325195,148.08397,47.572517,-106.618324,2019-09-07 14:35:34,13.0
353.0,-0.12866211,0.027526855,0.028015137000000002,138.32062,35.389313,-96.816795,2019-09-07 14:35:34,13.0
354.0,-0.13214111,0.028869628999999997,0.018676758,105.15267,20.87023,-86.35114,2019-09-07 14:35:34,13.0
355.0,-0.15594482,0.020263672,0.013305663999999998,70.9313,13.351145,-77.92367,2019-09-07 14:35:34,13.0
356.0,-0.14929199,0.056030273,0.00970459,43.564884,-8.114504,-67.32061,2019-09-07 14:35:34,13.0
357.0,-0.16693115,0.040893555,0.008178711,15.572519,-7.2137402999999996,-54.38168,2019-09-07 14:35:34,13.0
358.0,-0.16259766,0.024230957,0.0031738281,-2.4351146,-9.198473,-41.221375,2019-09-07 14:35:34,13.0
359.0,-0.1383667,0.04650879,0.005065918,-13.709923999999999,-0.96183205,-22.099237,2019-09-07 14:35:34,13.0
360.0,-0.12982178,0.030944824,0.007019043000000001,-19.625954,0.9465648999999999,2.1526718,2019-09-07 14:35:34,13.0
361.0,-0.12310791,0.053100586,0.011108398,-32.801525,14.740458499999999,33.389313,2019-09-07 14:35:34,13.0
362.0,-0.15081787,0.022644043,0.020629883,-53.351147,31.175572999999996,63.648853,2019-09-07 14:35:34,13.0
363.0,-0.15686035,0.045715332000000004,0.018371582,-67.70229,20.38168,93.80153,2019-09-07 14:35:34,13.0
364.0,-0.18432617,0.033325195,0.005737304699999999,-81.83206,11.877863,119.47328,2019-09-07 14:35:34,13.0
365.0,-0.17388916,0.018188476999999998,-0.014892578,-93.73283,-21.404581,146.0229,2019-09-07 14:35:34,13.0
366.0,-0.16809082,0.0067749023,-0.018249512,-113.26717,-53.923664,173.36641,2019-09-07 14:35:34,13.0
367.0,-0.17749023,0.037597656,-0.010559082,-129.03053,-75.46565,191.83206,2019-09-07 14:35:34,13.0
368.0,-0.17596436,0.020324707,-0.015136719,-133.3435,-89.94655999999999,205.22137,2019-09-07 14:35:34,13.0
369.0,-0.18218994,0.028381347999999997,-0.011291503999999999,-127.94656,-96.83969,218.76335,2019-09-07 14:35:34,13.0
370.0,-0.16979979999999997,0.026000977,-0.007690429699999999,-112.099236,-92.137405,223.1145,2019-09-07 14:35:34,13.0
371.0,-0.15698242,0.03363037,-0.0018920898,-87.62595,-80.83969,216.69466,2019-09-07 14:35:34,13.0
372.0,-0.1538086,0.032226562,-0.0032958984000000004,-77.68701999999999,-63.725190000000005,202.19083999999998,2019-09-07 14:35:35,13.0
373.0,-0.16101074,0.029785156,-0.004699707,-78.9313,-49.633587,185.00763,2019-09-07 14:35:35,13.0
374.0,-0.17120361,0.03326416,-0.007690429699999999,-89.15267,-40.89313,152.99237,2019-09-07 14:35:35,13.0
375.0,-0.19165039,0.053344727,-0.020263672,-105.70228999999999,-35.633587,117.54961999999999,2019-09-07 14:35:35,13.0
376.0,-0.1821289,0.013244628999999999,-0.03466797,-116.32061000000002,-40.625954,82.62595,2019-09-07 14:35:35,13.0
377.0,-0.1831665,-0.024780273,-0.048034667999999996,-81.87786,-44.648853,52.480915,2019-09-07 14:35:35,13.0
378.0,-0.17480469,-0.0134887695,-0.040527344,0.8091603,-28.61832,18.557251,2019-09-07 14:35:35,13.0
379.0,-0.13531494,0.03503418,-0.01574707,63.30534399999999,3.6946564,-18.595419,2019-09-07 14:35:35,13.0
380.0,-0.15502929999999998,0.021362305,0.005554199,78.83206,34.732826,-67.458015,2019-09-07 14:35:35,13.0
381.0,-0.16308594,0.028686523,0.0017089844000000001,74.63359,59.343509999999995,-117.175575,2019-09-07 14:35:35,13.0
382.0,-0.14074707,0.030212402000000003,0.0048217773,55.480915,82.72519,-156.9542,2019-09-07 14:35:35,13.0
383.0,-0.13793945,0.005126953,-0.0015869141,25.351145000000002,92.9313,-182.35115,2019-09-07 14:35:35,13.0
384.0,-0.17218018,0.01928711,0.0026855469,1.9465648999999998,108.96947,-205.12213,2019-09-07 14:35:35,13.0
385.0,-0.17510986,0.01763916,0.0053100586,7.3511453,117.60305,-215.52672,2019-09-07 14:35:35,13.0
386.0,-0.20074463,0.04333496,0.0211792,23.694656,129.43511999999998,-220.85497,2019-09-07 14:35:35,13.0
387.0,-0.17877197,0.02142334,0.024475097999999997,78.27481,128.80916000000002,-212.16031,2019-09-07 14:35:35,13.0
388.0,-0.15356445,-0.0028686523,0.014465332,132.58778,109.87786000000001,-199.41222,2019-09-07 14:35:35,13.0
389.0,-0.15307617,0.0126953125,0.007446289,145.15266,83.183205,-181.7939,2019-09-07 14:35:35,13.0
390.0,-0.14184570000000002,0.018188476999999998,0.0107421875,163.76335,59.908398,-165.00763,2019-09-07 14:35:35,13.0
391.0,-0.13940429999999998,0.016723633,0.010070800999999999,167.03053,41.17557,-148.35878,2019-09-07 14:35:35,13.0
392.0,-0.15429688,0.02331543,0.016235351999999998,145.76335,22.526718,-133.85497,2019-09-07 14:35:35,13.0
393.0,-0.13806152,0.03173828,0.012023926,117.14503500000001,2.5801528,-110.618324,2019-09-07 14:35:35,13.0
394.0,-0.13806152,0.013183594,0.022399902000000003,97.0687,-1.6412214,-89.19847,2019-09-07 14:35:35,13.0
395.0,-0.14556885,0.029968262000000002,0.01727295,71.19084000000001,4.1679387000000006,-68.99235999999999,2019-09-07 14:35:35,13.0
396.0,-0.16296387,0.03338623,0.011108398,44.114502,4.396946400000001,-47.183205,2019-09-07 14:35:35,13.0
397.0,-0.1675415,0.051940917999999996,0.002746582,28.87023,6.1984735,-21.480917,2019-09-07 14:35:35,13.0
398.0,-0.16967773,0.03363037,0.006713866999999999,12.870229,2.29771,8.091603,2019-09-07 14:35:35,13.0
399.0,-0.16394043,0.016784668,0.0006713867,7.10687,4.9770994,42.83206,2019-09-07 14:35:35,13.0
400.0,-0.16888428,0.030029297000000003,0.012512207,-20.198473,34.687022999999996,108.28244,2019-09-07 14:35:35,13.0
401.0,-0.19195557,0.03375244,0.0134887695,-47.282444,41.137405,129.45038,2019-09-07 14:35:35,13.0
402.0,-0.17382812,0.029724121000000003,0.017150878999999997,-73.43511,15.587786999999999,150.29771000000002,2019-09-07 14:35:35,13.0
403.0,-0.16687012,0.041259766,0.0025024414000000004,-99.75572,5.8015265,163.32825,2019-09-07 14:35:35,13.0
404.0,-0.1694336,0.04156494,-0.0030517578000000003,-126.32825,-3.648855,165.44275,2019-09-07 14:35:35,13.0
405.0,-0.16680908,0.030456543,-0.008483886999999999,-161.63359,-30.351145000000002,167.00763,2019-09-07 14:35:35,13.0
406.0,-0.18096924,0.024047852,-0.0068359375,-184.83206,-42.900764,165.41985,2019-09-07 14:35:35,13.0
407.0,-0.16015625,0.020690918,-0.0048217773,-175.42747,-51.82443,161.0687,2019-09-07 14:35:35,13.0
408.0,-0.15515137,0.013000488000000001,-0.0026245116999999997,-152.8855,-57.59542,156.46565,2019-09-07 14:35:36,13.0
409.0,-0.14733887,0.016784668,-0.0009765625,-122.67938999999998,-53.21374,144.61831999999998,2019-09-07 14:35:36,13.0
410.0,-0.13433838,0.04522705,0.0053100586,-103.229004,-50.427483,129.35115,2019-09-07 14:35:36,13.0
411.0,-0.14489746,0.032104492000000005,0.0,-91.26717,-47.496179999999995,114.96947,2019-09-07 14:35:36,13.0
412.0,-0.14898682,0.011230469,-0.0064697266000000005,-90.71755999999999,-51.06107,98.67939,2019-09-07 14:35:36,13.0
413.0,-0.1593628,0.012023926,-0.015319824,-86.56489,-52.251907,79.862595,2019-09-07 14:35:36,13.0
414.0,-0.16656494,0.009521484,-0.029785156,-71.34351,-56.251906999999996,56.0229,2019-09-07 14:35:36,13.0
415.0,-0.17541504,0.016113281,-0.042175292999999996,-25.633587,-64.29008,35.809162,2019-09-07 14:35:36,13.0
416.0,-0.16290283,-0.00042724610000000003,-0.03302002,-8.282442999999999,-62.78626,19.679389999999998,2019-09-07 14:35:36,13.0
417.0,-0.16931152,0.00579834,-0.036315917999999996,15.503817000000002,-43.83206,-7.465648700000001,2019-09-07 14:35:36,13.0
418.0,-0.16235352,0.021911621000000003,-0.01586914,21.251910000000002,-12.290076,-33.564884,2019-09-07 14:35:36,13.0
419.0,-0.15710449,0.008605957,-0.009277344,28.816793,22.740458,-67.72519,2019-09-07 14:35:36,13.0
420.0,-0.14721679999999998,0.050476074,0.0036010741999999997,28.19084,55.251906999999996,-90.39695,2019-09-07 14:35:36,13.0
421.0,-0.14782715,0.02545166,0.008117675999999999,18.595419,76.61069,-105.01527,2019-09-07 14:35:36,13.0
422.0,-0.13226318,0.008422852,-0.00012207031000000001,22.534351,92.0,-119.96183,2019-09-07 14:35:36,13.0
423.0,-0.16229248,0.022827148,0.011413574,17.557251,104.47328,-132.74046,2019-09-07 14:35:36,13.0
424.0,-0.19000244,0.03656006,0.017150878999999997,26.099237,106.0458,-147.89313,2019-09-07 14:35:36,13.0
425.0,-0.1796875,0.024780273,0.028869628999999997,38.702290000000005,101.73283,-155.19083999999998,2019-09-07 14:35:36,13.0
426.0,-0.15222168,0.016967773000000002,0.016479492,89.78626,92.63359,-152.48091000000002,2019-09-07 14:35:36,13.0
427.0,-0.1484375,0.017822266,0.021057128999999997,133.12978,78.35878000000001,-141.46565,2019-09-07 14:35:36,13.0
428.0,-0.13348389,0.030578612999999998,0.019897461,152.16794,63.137405,-129.54199,2019-09-07 14:35:36,13.0
429.0,-0.14227295,0.010681152,0.03363037,162.42747,55.48855,-121.15267,2019-09-07 14:35:36,13.0
430.0,-0.12377930000000001,0.05444336,0.035583496,136.0687,43.51145,-118.96947,2019-09-07 14:35:36,13.0
431.0,-0.11834717,0.024475097999999997,0.02746582,103.12977,28.404581,-117.60305,2019-09-07 14:35:36,13.0
432.0,-0.12854004,0.036376953,0.014953613000000001,57.320609999999995,27.274809,-111.900764,2019-09-07 14:35:36,13.0
433.0,-0.14172363,0.040100098,0.011291503999999999,22.961832,19.580153,-108.56488999999999,2019-09-07 14:35:36,13.0
434.0,-0.15795898,0.030395507999999998,0.011047363000000001,13.312976999999998,19.404581,-103.503815,2019-09-07 14:35:36,13.0
435.0,-0.18243408,0.05078125,0.010253906,9.931297,21.099237,-98.34351,2019-09-07 14:35:36,13.0
436.0,-0.16485596,0.030456543,0.010681152,11.427481,23.343512,-87.221375,2019-09-07 14:35:36,13.0
437.0,-0.16308594,0.020874023000000002,0.010986328,8.877863,29.328245000000003,-67.9771,2019-09-07 14:35:36,13.0
438.0,-0.14959717,0.037597656,0.01763916,-7.396946400000001,33.496179999999995,-37.656490000000005,2019-09-07 14:35:36,13.0
439.0,-0.12646484,0.052490234000000004,0.014770508,-34.229008,35.137405,0.79389316,2019-09-07 14:35:36,13.0
440.0,-0.15051270000000003,0.023925781,0.01751709,-64.15267,36.427483,38.389313,2019-09-07 14:35:36,13.0
441.0,-0.15966797,0.021240234,0.013793945,-82.51908,14.038167999999999,79.27481,2019-09-07 14:35:36,13.0
442.0,-0.1696167,0.033691406,0.0038452148,-91.67175,-11.229008,111.9313,2019-09-07 14:35:37,13.0
443.0,-0.17718506,0.020812988,-0.009094238000000001,-94.67175,-43.618320000000004,144.90076000000002,2019-09-07 14:35:37,13.0
444.0,-0.16333008,0.024597168,-0.007690429699999999,-102.80915999999999,-70.938934,170.31297,2019-09-07 14:35:37,13.0
445.0,-0.20123291,0.02734375,-0.007446289,-102.87023,-92.30534,191.40458999999998,2019-09-07 14:35:37,13.0
446.0,-0.17132568,0.025756836,-0.01159668,-88.25954399999999,-104.229004,207.54962,2019-09-07 14:35:37,13.0
447.0,-0.16815186,0.026916503999999997,-0.004272461,-77.00764000000001,-103.84733,211.38168,2019-09-07 14:35:37,13.0
448.0,-0.15808105,0.016845703,0.0006103515599999999,-72.48092,-93.80153,212.3435,2019-09-07 14:35:37,13.0
449.0,-0.1708374,0.032592773,0.004638672,-72.458015,-81.40458000000001,199.27481,2019-09-07 14:35:37,13.0
450.0,-0.16790771,0.030212402000000003,-0.0014648438,-80.72519,-69.51908,180.26718,2019-09-07 14:35:37,13.0
451.0,-0.1807251,0.04663086,-0.0067749023,-99.618324,-57.221375,156.61831999999998,2019-09-07 14:35:37,13.0
452.0,-0.19659424,0.02355957,-0.020507812,-111.19847,-55.709922999999996,130.10687,2019-09-07 14:35:37,13.0
453.0,-0.20062256,-0.012451172,-0.046936035,-115.75572,-67.70992,103.20611,2019-09-07 14:35:37,13.0
454.0,-0.18859863,-0.03503418,-0.059692382999999995,-93.854965,-76.80153,81.19084000000001,2019-09-07 14:35:37,13.0
455.0,-0.17303467,-0.03967285,-0.059814453,-41.770992,-74.458015,44.030533,2019-09-07 14:35:37,13.0
456.0,-0.16821289,-0.003967285,-0.031921387,2.961832,-22.465649,4.1221375,2019-09-07 14:35:37,13.0
457.0,-0.17388916,-0.0017700195,-0.012084961000000002,4.053435299999999,16.343512,-48.717556,2019-09-07 14:35:37,13.0
458.0,-0.15563965,0.019958496000000003,-0.015930176,42.419846,74.75572,-97.51145,2019-09-07 14:35:37,13.0
459.0,-0.14447021,0.016296387,-0.01184082,48.366413,116.41984599999999,-129.06107,2019-09-07 14:35:37,13.0
460.0,-0.15216064,0.02368164,0.0038452148,38.801525,123.27481,-155.21375,2019-09-07 14:35:37,13.0
461.0,-0.15710449,0.028381347999999997,0.010437011999999999,16.664122,128.58778,-167.229,2019-09-07 14:35:37,13.0
462.0,-0.17926025,0.023742676,0.022338867000000002,1.70229,130.66412,-176.58778,2019-09-07 14:35:37,13.0
463.0,-0.17883301,0.023376465,0.02508545,12.106871,128.1374,-180.52671999999998,2019-09-07 14:35:37,13.0
464.0,-0.15753174,0.0020141601999999997,0.025146484,55.480915,114.53435,-178.06107,2019-09-07 14:35:37,13.0
465.0,-0.1593628,0.010803223,0.019714355,125.70992,91.35878000000001,-158.96947,2019-09-07 14:35:37,13.0
466.0,-0.12750244,0.0115356445,0.0087890625,178.83969,69.42748,-142.41985,2019-09-07 14:35:37,13.0
467.0,-0.13348389,0.021606445,0.019165039,201.71756000000002,45.267174,-120.40458000000001,2019-09-07 14:35:37,13.0
468.0,-0.12609863,0.017028809,0.019958496000000003,207.229,29.816793,-105.9771,2019-09-07 14:35:37,13.0
469.0,-0.12817383,0.027404785,0.020629883,174.54199,15.229007999999999,-100.854965,2019-09-07 14:35:37,13.0
470.0,-0.14453125,0.031677246,0.022338867000000002,122.68701999999999,4.4503818,-95.69466,2019-09-07 14:35:37,13.0
471.0,-0.16394043,0.027282715,0.016723633,61.938930000000006,-3.3893129999999996,-90.74809,2019-09-07 14:35:37,13.0
472.0,-0.15039062,0.043640137,0.010681152,28.167938,1.038168,-85.099236,2019-09-07 14:35:37,13.0
473.0,-0.15106201,0.042541504,0.011291503999999999,10.618319999999999,9.664123,-78.76335999999999,2019-09-07 14:35:37,13.0
474.0,-0.17205810000000002,0.03186035,0.008850098,1.480916,17.137404999999998,-64.58778000000001,2019-09-07 14:35:37,13.0
475.0,-0.14666748,0.038757323999999996,0.017333984,-2.5877862,22.030535,-42.618320000000004,2019-09-07 14:35:37,13.0
476.0,-0.13079834,0.05621338,0.014404297,-9.091603,34.961834,-12.595419999999999,2019-09-07 14:35:37,13.0
477.0,-0.16186523,0.027770996000000003,0.016296387,-26.900763,37.969467,18.824427,2019-09-07 14:35:38,13.0
478.0,-0.15124512,0.03112793,0.021118164,-63.129771999999996,37.244274,52.603054,2019-09-07 14:35:38,13.0
479.0,-0.17218018,0.033996582000000004,0.010314941,-76.03053,22.022902,83.47328,2019-09-07 14:35:38,13.0
480.0,-0.18017578,0.040161132999999995,-0.00042724610000000003,-90.12977,-11.687023,114.9313,2019-09-07 14:35:38,13.0
481.0,-0.15570068,0.046875,-0.0013427734,-107.79388999999999,-39.190838,143.23665,2019-09-07 14:35:38,13.0
482.0,-0.17108154,0.012390136999999999,-0.006286621,-122.091606,-67.43511,168.46565,2019-09-07 14:35:38,13.0
483.0,-0.17736816,0.028198242000000002,-0.0053100586,-112.19084,-90.061066,188.41985,2019-09-07 14:35:38,13.0
484.0,-0.17150879,0.016845703,-0.008544922,-94.36641,-97.20611,205.75572,2019-09-07 14:35:38,13.0
485.0,-0.15692139,0.03137207,-0.011657715,-75.854965,-99.08397,220.45801,2019-09-07 14:35:38,13.0
486.0,-0.17980957,0.023986816,-0.013366699,-66.70992,-93.76335999999999,224.17557000000002,2019-09-07 14:35:38,13.0
487.0,-0.17456055,0.02178955,-0.022521972999999997,-57.55725,-100.229004,228.07634,2019-09-07 14:35:38,13.0
488.0,-0.1515503,0.020751953,-0.01739502,-44.580154,-93.35878000000001,222.67175,2019-09-07 14:35:38,13.0
489.0,-0.1585083,0.014709473,-0.016967773000000002,-37.93893,-77.938934,207.67938,2019-09-07 14:35:38,13.0
490.0,-0.15264893,0.009277344,-0.007080078,-40.984734,-63.16794,184.70993,2019-09-07 14:35:38,13.0
491.0,-0.15447998,0.01953125,-0.008361816,-52.0229,-45.480915,151.16794,2019-09-07 14:35:38,13.0
492.0,-0.14135742,0.015380858999999998,-0.0025634766,-62.541985,-24.877863,116.00764,2019-09-07 14:35:38,13.0
493.0,-0.15216064,0.016845703,-0.00024414062000000002,-71.64121999999999,-3.5190839999999994,68.58015400000001,2019-09-07 14:35:38,13.0
494.0,-0.15795898,0.015258788999999998,-0.00390625,-78.70992,21.335878,20.42748,2019-09-07 14:35:38,13.0
495.0,-0.15759277,0.013183594,0.004699707,-80.33588,46.0229,-24.183207,2019-09-07 14:35:38,13.0
496.0,-0.16351318,0.020202637,0.014160156,-87.21374,72.76335999999999,-69.05344000000001,2019-09-07 14:35:38,13.0
497.0,-0.15484619,-0.0014038085999999999,0.0017089844000000001,-72.10687,88.71755999999999,-108.43511000000001,2019-09-07 14:35:38,13.0
498.0,-0.15734863,-0.0026245116999999997,-0.007507324,-31.91603,102.03817,-137.96947,2019-09-07 14:35:38,13.0
499.0,-0.16729736,0.011413574,0.0053710938,16.541985,123.07633,-165.7939,2019-09-07 14:35:38,13.0
500.0,-0.17156982,0.01953125,0.027954102,54.687022999999996,135.54199,-186.39694,2019-09-07 14:35:38,13.0
501.0,-0.16241455,0.018676758,0.01977539,80.75572,132.64122,-197.19847,2019-09-07 14:35:38,13.0
502.0,-0.18353271,0.02746582,-0.0009765625,109.221375,113.62595,-199.3435,2019-09-07 14:35:38,13.0
503.0,-0.17132568,0.014831543,-0.0033569335999999996,127.08397,89.74809,-187.09923999999998,2019-09-07 14:35:38,13.0
504.0,-0.18731689999999998,0.03253174,0.007446289,143.16031,66.07633,-166.06107,2019-09-07 14:35:38,13.0
505.0,-0.16369629,0.007690429699999999,0.020324707,149.91603,49.908398,-144.32062,2019-09-07 14:35:38,13.0
506.0,-0.14141846,0.031799316,0.018920898000000002,154.6565,32.221375,-124.47328,2019-09-07 14:35:38,13.0
507.0,-0.10845947,0.008239746,0.01953125,140.71756000000002,21.580153,-105.51145,2019-09-07 14:35:38,13.0
508.0,-0.13140869,0.017028809,0.012084961000000002,124.33588,15.7786255,-94.38931,2019-09-07 14:35:38,13.0
509.0,-0.13671875,0.036193848,0.018249512,101.51908,1.4274809,-87.44275,2019-09-07 14:35:38,13.0
510.0,-0.12548828,0.009216309,0.013000488000000001,78.08397,-3.946565,-79.541985,2019-09-07 14:35:38,13.0
511.0,-0.12738037,0.018310547,0.011779785,66.541985,-9.167939,-77.19084000000001,2019-09-07 14:35:38,13.0
512.0,-0.11663818,0.024414062,0.008178711,67.0458,-9.969465,-75.496185,2019-09-07 14:35:38,13.0
513.0,-0.12347412,0.031982422,0.006286621,64.63359,-5.2977099999999995,-70.061066,2019-09-07 14:35:38,13.0
514.0,-0.13287354,0.020629883,0.010986328,48.610687,7.183206,-62.564884,2019-09-07 14:35:38,13.0
515.0,-0.1461792,0.030578612999999998,0.014892578,33.007633,20.732824,-52.748093000000004,2019-09-07 14:35:38,13.0
516.0,-0.15332031,0.022094727,0.017700195,9.183207000000001,29.167938,-38.93893,2019-09-07 14:35:39,13.0
517.0,-0.15795898,0.016723633,0.018310547,-19.251910000000002,33.503820000000005,-19.007633,2019-09-07 14:35:39,13.0
518.0,-0.16522217,0.008544922,0.023986816,-37.526720000000005,40.366413,2.9923662999999996,2019-09-07 14:35:39,13.0
519.0,-0.16235352,0.022949219,0.01953125,-53.52672,38.396946,34.076336,2019-09-07 14:35:39,13.0
520.0,-0.15887451,0.018737793,0.016174316,-67.73283,33.900764,65.38931,2019-09-07 14:35:39,13.0
521.0,-0.16687012,0.010803223,0.018554688,-71.44275,32.801525,90.07633,2019-09-07 14:35:39,13.0
522.0,-0.18048096,0.023376465,0.019836426,-93.56489,27.91603,111.58015400000001,2019-09-07 14:35:39,13.0
523.0,-0.17388916,0.017150878999999997,0.022277832,-104.69466,4.442748,134.1374,2019-09-07 14:35:39,13.0
524.0,-0.16497803,0.02532959,0.014465332,-104.48855,-15.916031,151.66412,2019-09-07 14:35:39,13.0
525.0,-0.15533447,0.021850586,0.004333496,-90.183205,-27.42748,164.07634,2019-09-07 14:35:39,13.0
526.0,-0.15588379,0.030944824,-0.0020751953,-87.0,-49.519085,169.10687,2019-09-07 14:35:39,13.0
527.0,-0.15411377,0.02178955,-0.001953125,-75.63359,-58.53435,165.03816,2019-09-07 14:35:39,13.0
528.0,-0.14074707,0.020324707,0.004760742,-70.73283,-58.343509999999995,151.01527,2019-09-07 14:35:39,13.0
529.0,-0.14526367,0.028869628999999997,0.0079956055,-74.061066,-48.015266,129.19847,2019-09-07 14:35:39,13.0
530.0,-0.12823486,0.018432617,0.001159668,-76.21374,-43.748093,111.08397,2019-09-07 14:35:39,13.0
531.0,-0.12261963,0.011352538999999998,-0.005493164,-72.66412,-37.16794,96.36641,2019-09-07 14:35:39,13.0
532.0,-0.11157226599999999,0.0065307617,-0.0071411133,-75.89313,-30.114503999999997,82.32825,2019-09-07 14:35:39,13.0
533.0,-0.11590576,0.01550293,-0.0045166016,-78.32061,-26.007633,68.496185,2019-09-07 14:35:39,13.0
534.0,-0.12457275400000001,0.012207031,0.0040893555,-73.29771,-21.816793,51.114502,2019-09-07 14:35:39,13.0
535.0,-0.12738037,0.028930664,-0.0034179688000000002,-69.41221999999999,-19.717558,32.358779999999996,2019-09-07 14:35:39,13.0
536.0,-0.15710449,0.0115356445,-0.0015869141,-71.05344000000001,-10.427481,13.908397,2019-09-07 14:35:39,13.0
537.0,-0.15270996,0.022766112999999998,-0.006042480500000001,-63.862595,-6.8015265,-1.6564884999999998,2019-09-07 14:35:39,13.0
538.0,-0.16894531,0.012023926,-0.007446289,-56.755726,-1.259542,-10.244275,2019-09-07 14:35:39,13.0
539.0,-0.1685791,0.020812988,-0.009521484,-37.389313,5.1221375,-16.450382,2019-09-07 14:35:39,13.0
540.0,-0.15209961,0.012939453,-0.010620117,-18.068703,16.687023,-23.42748,2019-09-07 14:35:39,13.0
541.0,-0.18334961,0.027038574,-0.00036621094,-16.664122,29.969465000000003,-38.06107,2019-09-07 14:35:39,13.0
542.0,-0.18310547,0.03302002,0.0014038085999999999,-17.10687,45.839695,-56.84733000000001,2019-09-07 14:35:39,13.0
543.0,-0.17944336,0.020935059,-0.0052490233999999995,-17.015266,56.312977000000004,-69.70992,2019-09-07 14:35:39,13.0
544.0,-0.17224121,0.022644043,-0.0020141601999999997,-12.076336,68.35114,-79.63359,2019-09-07 14:35:39,13.0
545.0,-0.16979979999999997,0.01574707,0.01727295,-13.320610999999998,81.70229,-87.05344000000001,2019-09-07 14:35:39,13.0
546.0,-0.14752197,0.018981934,0.034362792999999996,-20.687023,85.541985,-86.79389,2019-09-07 14:35:39,13.0
547.0,-0.12725830000000002,-0.005126953,0.025817871000000003,-17.93893,78.68701999999999,-81.44275,2019-09-07 14:35:39,13.0
548.0,-0.121154785,-0.0006103515599999999,0.023498535,21.450382,64.43511,-69.938934,2019-09-07 14:35:39,13.0
549.0,-0.12835693,0.008972168,0.023010253999999997,71.03053,40.17557,-51.274809999999995,2019-09-07 14:35:39,13.0
550.0,-0.10675049,0.0107421875,0.032043457000000004,111.07633,27.290077,-38.251907,2019-09-07 14:35:40,13.0
551.0,-0.11297607400000001,0.009399414,0.042297363,119.59541999999999,22.160304999999997,-37.9771,2019-09-07 14:35:40,13.0
552.0,-0.11529541,0.010253906,0.05218506,108.9542,8.21374,-42.25954,2019-09-07 14:35:40,13.0
553.0,-0.080200195,0.01763916,0.04443359400000001,93.458015,-3.2442749,-51.15267,2019-09-07 14:35:40,13.0
554.0,-0.08093262,0.010986328,0.040405273,79.96947,6.8320612999999994,-63.28244399999999,2019-09-07 14:35:40,13.0
555.0,-0.08862305,0.019165039,0.033203125,77.29008,1.3587786,-72.0687,2019-09-07 14:35:40,13.0
556.0,-0.1194458,0.015014648,0.028259277000000003,72.38931,-3.076336,-72.80153,2019-09-07 14:35:40,13.0
557.0,-0.114746094,-0.0064086914,0.022583007999999998,75.99235999999999,0.8167939000000001,-74.099236,2019-09-07 14:35:40,13.0
558.0,-0.110839844,0.014953613000000001,0.02154541,81.87023,-5.7099237,-73.1145,2019-09-07 14:35:40,13.0
559.0,-0.13421631,0.012145996000000001,0.018554688,76.381676,3.1450381000000003,-68.33588,2019-09-07 14:35:40,13.0
560.0,-0.16040039,0.02746582,0.009216309,64.29771,1.480916,-64.87023,2019-09-07 14:35:40,13.0
561.0,-0.16638184,0.013671875,0.016906738,41.053436,2.312977,-62.458015,2019-09-07 14:35:40,13.0
562.0,-0.16619873,0.025268555,0.016540527,28.908398,9.091603,-54.244274,2019-09-07 14:35:40,13.0
563.0,-0.15222168,0.0119018555,0.009216309,32.725190000000005,19.824427,-39.748093,2019-09-07 14:35:40,13.0
564.0,-0.1616211,0.00793457,0.016540527,33.0,27.610687,-22.656488,2019-09-07 14:35:40,13.0
565.0,-0.15161133,0.027282715,0.022766112999999998,24.770992,39.343509999999995,-3.3206108,2019-09-07 14:35:40,13.0
566.0,-0.14562988,0.0087890625,0.022766112999999998,10.954199000000001,52.67175699999999,13.488548999999999,2019-09-07 14:35:40,13.0
567.0,-0.16107178,0.022583007999999998,0.024414062,-14.091603,61.190838,20.114504,2019-09-07 14:35:40,13.0
568.0,-0.16741943,0.018676758,0.0423584,-65.23664000000001,45.343509999999995,36.099236,2019-09-07 14:35:40,13.0
569.0,-0.15258789,0.0032348633000000003,0.024719237999999998,-71.908394,30.442749,50.961834,2019-09-07 14:35:40,13.0
570.0,-0.15539551,0.0016479492000000002,0.014282227,-55.15266999999999,16.671754999999997,72.72519,2019-09-07 14:35:40,13.0
571.0,-0.14190674,-0.0007934570299999999,0.011474608999999998,-44.793890000000005,-11.648855000000001,95.37405,2019-09-07 14:35:40,13.0
572.0,-0.14489746,0.006042480500000001,0.009643555,-35.732826,-26.725191,111.57252,2019-09-07 14:35:40,13.0
573.0,-0.15435791,0.019042969,0.0134887695,-34.25954,-36.93893,120.67938999999998,2019-09-07 14:35:40,13.0
574.0,-0.15759277,0.016174316,0.010864258,-42.725190000000005,-37.137405,121.221375,2019-09-07 14:35:40,13.0
575.0,-0.13623047,0.0119018555,-0.0017700195,-59.61832,-37.496179999999995,116.54198500000001,2019-09-07 14:35:40,13.0
576.0,-0.09954834,0.018737793,-6.1035155999999994e-05,-75.26717,-32.755726,110.69466000000001,2019-09-07 14:35:40,13.0
577.0,-0.10345459,0.018249512,0.00042724610000000003,-76.25191,-28.0,108.778625,2019-09-07 14:35:40,13.0
578.0,-0.09655762,0.020812988,-0.0043945312,-66.183205,-24.595419,103.29771,2019-09-07 14:35:40,13.0
579.0,-0.08923339999999999,0.013366699,-0.0018310547,-60.15266999999999,-22.198473,95.496185,2019-09-07 14:35:40,13.0
580.0,-0.089660645,0.012207031,-0.0075683593999999995,-57.961833999999996,-10.312977,80.96183,2019-09-07 14:35:40,13.0
581.0,-0.08032226599999999,0.015136719,0.011108398,-61.801525,3.1755726,61.137405,2019-09-07 14:35:40,13.0
582.0,-0.07928467,0.018371582,0.010314941,-57.908398,5.9007635,48.14504,2019-09-07 14:35:40,13.0
583.0,-0.09844971,0.033996582000000004,-0.00091552734,-45.809162,2.8473282,43.0229,2019-09-07 14:35:40,13.0
584.0,-0.08142089999999999,0.056884765999999996,0.022766112999999998,-31.633587,27.022902000000002,42.17557,2019-09-07 14:35:40,13.0
585.0,-0.11688232400000001,0.07879639,0.041809082000000004,-71.38931,24.641222,39.610687,2019-09-07 14:35:40,13.0
586.0,-0.14630127,0.08636474599999999,0.05596924,-95.43511,25.671754999999997,47.923664,2019-09-07 14:35:40,13.0
587.0,-0.15124512,0.10900879,0.05255127,-86.65649,31.656488,46.809162,2019-09-07 14:35:41,13.0
588.0,-0.15734863,0.099731445,0.048706055,-78.70992,25.595419,47.14504,2019-09-07 14:35:41,13.0
589.0,-0.16357422,0.09539795,0.039489746,-44.801525,23.534351,44.10687,2019-09-07 14:35:41,13.0
590.0,-0.16064453,0.07318115,0.028991700000000002,-12.160305000000001,22.954199,34.78626,2019-09-07 14:35:41,13.0
591.0,-0.1673584,0.09283447,0.033203125,-7.221374000000001,35.068703,14.297709,2019-09-07 14:35:41,13.0
592.0,-0.1430664,0.08148193,0.02911377,-27.183207,43.0,3.8625953,2019-09-07 14:35:41,13.0
593.0,-0.13250732,0.044189453,0.016967773000000002,-35.541985,51.46565,-9.610686999999999,2019-09-07 14:35:41,13.0
594.0,-0.12896729,0.040771484,0.008728027,-52.862595,60.893130000000006,-15.290076000000001,2019-09-07 14:35:41,13.0
595.0,-0.10406494,0.016357422,0.010009766,-66.44275,72.9771,-21.702289999999998,2019-09-07 14:35:41,13.0
596.0,-0.11791992,0.023864746000000003,0.015808105,-86.0229,89.59541999999999,-29.969465000000003,2019-09-07 14:35:41,13.0
597.0,-0.11950683599999999,0.009216309,0.032165527,-99.27481,90.43511,-36.778625,2019-09-07 14:35:41,13.0
598.0,-0.13702393,0.003967285,0.016113281,-107.27481,78.9313,-44.221375,2019-09-07 14:35:41,13.0
599.0,-0.14007568,-0.0049438477,0.0072631836,-99.28244000000001,48.46565,-51.82443,2019-09-07 14:35:41,13.0
600.0,-0.14752197,-0.004333496,0.004333496,-73.19084000000001,17.045801,-49.984734,2019-09-07 14:35:41,13.0
601.0,-0.14562988,0.012939453,0.014160156,-29.671754999999997,-4.442748,-48.435116,2019-09-07 14:35:41,13.0
602.0,-0.11547851599999999,0.014587402,0.0126953125,20.137404999999998,-17.557251,-44.55725,2019-09-07 14:35:41,13.0
603.0,-0.10455322,0.01928711,0.016906738,55.206109999999995,-25.816793,-45.969467,2019-09-07 14:35:41,13.0
604.0,-0.10333252,0.015563965,0.02734375,38.48855,-24.458015,-53.076336,2019-09-07 14:35:41,13.0
605.0,-0.081970215,-0.006713866999999999,0.032348632999999995,18.564885999999998,-23.328245000000003,-62.351147,2019-09-07 14:35:41,13.0
606.0,-0.08563232400000001,0.010864258,0.02545166,15.465648999999999,-21.282442,-64.67175,2019-09-07 14:35:41,13.0
607.0,-0.07775879,-0.0126953125,0.020935059,16.328245000000003,-10.465649,-68.78626,2019-09-07 14:35:41,13.0
608.0,-0.091308594,-0.009094238000000001,0.02960205,21.045801,3.7633588,-71.145035,2019-09-07 14:35:41,13.0
609.0,-0.08654785,0.020507812,0.033691406,-0.29007635,7.3053436000000005,-73.51908,2019-09-07 14:35:41,13.0
610.0,-0.08032226599999999,0.00030517577999999995,0.045715332000000004,1.6870228999999999,14.496182999999998,-76.66412,2019-09-07 14:35:41,13.0
611.0,-0.09613037,0.011413574,0.030639648,1.038168,21.969465,-79.34351,2019-09-07 14:35:41,13.0
612.0,-0.11419678,0.010437011999999999,0.030883789,11.015267,17.42748,-72.92367,2019-09-07 14:35:41,13.0
613.0,-0.09924316400000001,0.006591797,0.030700684,22.404581,4.053435299999999,-67.23664000000001,2019-09-07 14:35:41,13.0
614.0,-0.07849121,0.0036621094,0.02142334,14.564885,-5.923664,-49.732826,2019-09-07 14:35:41,13.0
615.0,-0.087402344,0.00036621094,0.033447266,30.465649,9.702291,-37.114502,2019-09-07 14:35:41,13.0
616.0,-0.11761474599999999,0.020385742,0.03338623,41.931297,2.4198472,-25.732824,2019-09-07 14:35:41,13.0
617.0,-0.13555908,0.024841309,0.040405273,24.312977,17.625954,-20.244274,2019-09-07 14:35:41,13.0
618.0,-0.15643310000000002,0.017578125,0.060546875,-37.900764,41.229008,-36.21374,2019-09-07 14:35:41,13.0
619.0,-0.16802979,0.011962891000000002,0.061706542999999996,-110.9313,62.480915,-52.709922999999996,2019-09-07 14:35:41,13.0
620.0,-0.1831665,-0.006042480500000001,0.049438477,-123.099236,85.137405,-58.9771,2019-09-07 14:35:41,13.0
621.0,-0.18377686,-0.008728027,0.054626465,-97.35114,92.70992,-54.755726,2019-09-07 14:35:41,13.0
622.0,-0.17321777,0.013122558999999999,0.031677246,-100.900764,94.137405,-51.580154,2019-09-07 14:35:41,13.0
623.0,-0.16992188,-0.00024414062000000002,0.027404785,-55.664124,100.08397,-44.671757,2019-09-07 14:35:42,13.0
624.0,-0.16497803,-0.0095825195,0.005859375,5.343511599999999,84.35114,-28.183207,2019-09-07 14:35:42,13.0
625.0,-0.15533447,0.00030517577999999995,-0.006042480500000001,48.89313,82.58015400000001,-19.343512,2019-09-07 14:35:42,13.0
626.0,-0.14483643,0.004272461,-0.016662598,-20.595419,66.33588,-14.167939000000002,2019-09-07 14:35:42,13.0
627.0,-0.17089844,-0.01940918,-0.05419922,-53.870228000000004,34.320609999999995,-3.6335877999999995,2019-09-07 14:35:42,13.0
628.0,-0.15899658,-0.005676269499999999,-0.07122803,-6.221374,-12.312977,23.183207,2019-09-07 14:35:42,13.0
629.0,-0.15606689999999998,-0.003540039,-0.0647583,-4.2671757,-14.603053,31.641221999999996,2019-09-07 14:35:42,13.0
630.0,-0.15258789,0.0010375977,-0.054138184000000006,-43.44275,-21.290077,41.687022999999996,2019-09-07 14:35:42,13.0
631.0,-0.12078857400000001,-0.0045166016,-0.03540039,-29.648854999999998,-13.984732999999999,57.480915,2019-09-07 14:35:42,13.0
632.0,-0.15179443,-0.009033203,-0.034423828,-17.854961,-23.236639999999998,67.61069,2019-09-07 14:35:42,13.0
633.0,-0.14916992,-0.0049438477,-0.042236328,-9.488549,-33.870228000000004,69.52672,2019-09-07 14:35:42,13.0
634.0,-0.15576172,-0.00030517577999999995,-0.020446777,-22.93893,-22.984734,53.587788,2019-09-07 14:35:42,13.0
635.0,-0.15466309,0.018920898000000002,-0.017150878999999997,-44.83206,-36.21374,42.404579999999996,2019-09-07 14:35:42,13.0
636.0,-0.13000488,-0.006591797,-0.015197753999999999,-37.93893,-44.625954,40.244274,2019-09-07 14:35:42,13.0
637.0,-0.122558594,-0.007019043000000001,-0.012878418,-18.045801,-46.14504,45.129771999999996,2019-09-07 14:35:42,13.0
638.0,-0.13208008,-0.00024414062000000002,0.009460449000000001,-14.38168,-46.900764,47.770992,2019-09-07 14:35:42,13.0
639.0,-0.12799072,-0.006652831999999999,0.008178711,-22.435114000000002,-48.778625,44.992367,2019-09-07 14:35:42,13.0
640.0,-0.14208984,0.029724121000000003,0.00793457,-36.274809999999995,-45.503820000000005,35.664124,2019-09-07 14:35:42,13.0
641.0,-0.14331055,0.009399414,0.0045166016,-49.74046,-46.366413,22.839695000000003,2019-09-07 14:35:42,13.0
642.0,-0.13952637,0.015625,0.00030517577999999995,-37.809162,-35.82443,9.2595415,2019-09-07 14:35:42,13.0
643.0,-0.1586914,0.019042969,-0.011962891000000002,-43.015266,-24.816793,-8.450381,2019-09-07 14:35:42,13.0
644.0,-0.17156982,0.0154418945,-0.028137207,-22.702289999999998,-19.244274,-19.946566,2019-09-07 14:35:42,13.0
645.0,-0.17010498,0.013793945,-0.033569336,-12.328244,-21.603054,-23.854961,2019-09-07 14:35:42,13.0
646.0,-0.14587402,-0.0075683593999999995,-0.04119873,7.4961834000000005,-28.419846999999997,-19.694656,2019-09-07 14:35:42,13.0
647.0,-0.14978027,0.007019043000000001,-0.03668213,31.244274,-18.305344,-20.419847,2019-09-07 14:35:42,13.0
648.0,-0.16168213,0.0061035156000000005,-0.042175292999999996,53.687022999999996,-19.702289999999998,-30.0,2019-09-07 14:35:42,13.0
649.0,-0.15081787,-6.1035155999999994e-05,-0.041320800000000005,76.75572,-4.7099237,-43.679390000000005,2019-09-07 14:35:42,13.0
650.0,-0.15637207,0.0012207030999999999,-0.035827637,94.03053,3.4198472,-51.091602,2019-09-07 14:35:42,13.0
651.0,-0.11785889,-0.00793457,-0.019226074,120.10687,16.274809,-52.351147,2019-09-07 14:35:42,13.0
652.0,-0.13092041,-0.006286621,-0.008239746,155.57253,26.076335999999998,-50.687022999999996,2019-09-07 14:35:42,13.0
653.0,-0.13568115,-0.0053100586,-0.0014648438,156.67175,23.778625,-38.351147,2019-09-07 14:35:42,13.0
654.0,-0.14080810000000002,-0.0038452148,0.00048828125,165.3435,16.679389999999998,-28.19084,2019-09-07 14:35:42,13.0
655.0,-0.12615967,-0.008117675999999999,0.010620117,175.90076000000002,11.694656,-22.946566,2019-09-07 14:35:42,13.0
656.0,-0.10784912,-0.010498047,0.020324707,175.61068999999998,-3.2290077,-23.076335999999998,2019-09-07 14:35:42,13.0
657.0,-0.09197998,0.001159668,0.028503418,136.22137,-14.488548999999999,-28.015265999999997,2019-09-07 14:35:42,13.0
658.0,-0.06829834,-0.0029296875,0.020629883,119.51908,-25.977098,-36.045803,2019-09-07 14:35:43,13.0
659.0,-0.05432129,-0.0017089844000000001,0.014587402,119.183205,-16.832062,-44.412212,2019-09-07 14:35:43,13.0
660.0,-0.0690918,0.0095825195,0.029052734,112.29008,0.29007635,-47.51145,2019-09-07 14:35:43,13.0
661.0,-0.09399414,-0.008178711,0.02709961,111.061066,11.633588,-49.358779999999996,2019-09-07 14:35:43,13.0
662.0,-0.10107422,0.005554199,0.021118164,96.67939,15.312976999999998,-53.335876,2019-09-07 14:35:43,13.0
663.0,-0.12341308599999999,0.0017089844000000001,0.020385742,76.84733,16.251910000000002,-52.328243,2019-09-07 14:35:43,13.0
664.0,-0.14257812,0.016967773000000002,0.010925293,50.755726,19.030535,-50.679390000000005,2019-09-07 14:35:43,13.0
665.0,-0.15362549,0.0107421875,0.01739502,25.725191,27.366413,-50.229008,2019-09-07 14:35:43,13.0
666.0,-0.16137695,0.006713866999999999,0.017578125,-12.2595415,35.015266,-46.480915,2019-09-07 14:35:43,13.0
667.0,-0.14385986,0.024658202999999997,0.02319336,-29.198473,46.282444,-41.541985,2019-09-07 14:35:43,13.0
668.0,-0.15478516,-0.00018310547,0.02142334,-43.702290000000005,64.37405,-26.67939,2019-09-07 14:35:43,13.0
669.0,-0.15252686,0.031311035,0.026977539,-56.81679499999999,68.28244000000001,-6.038168,2019-09-07 14:35:43,13.0
670.0,-0.14013672,0.014953613000000001,0.028991700000000002,-73.87023,62.320609999999995,11.709924,2019-09-07 14:35:43,13.0
671.0,-0.17773438,0.0036621094,0.030517577999999997,-73.96947,61.320609999999995,28.954199,2019-09-07 14:35:43,13.0
672.0,-0.17675781,-0.0016479492000000002,0.024719237999999998,-65.47328,38.816795,48.664124,2019-09-07 14:35:43,13.0
673.0,-0.14575195,-0.010620117,0.0234375,-44.114502,11.725191,73.48092,2019-09-07 14:35:43,13.0
674.0,-0.14031982,-0.001159668,0.021484375,-37.82443,-11.175572,94.07633,2019-09-07 14:35:43,13.0
675.0,-0.14080810000000002,0.008178711,0.016662598,-38.335876,-29.160304999999997,114.31298000000001,2019-09-07 14:35:43,13.0
676.0,-0.1274414,0.005065918,0.026184082,-64.458015,-46.541985,126.34351000000001,2019-09-07 14:35:43,13.0
677.0,-0.08459473,0.0017700195,0.020080566,-76.31298000000001,-49.053436,130.84734,2019-09-07 14:35:43,13.0
678.0,-0.109191895,-0.0068969727,0.021484375,-77.091606,-55.038166000000004,131.50381000000002,2019-09-07 14:35:43,13.0
679.0,-0.08886719,-0.0025024414000000004,0.016906738,-88.83969,-61.045803,126.65648999999999,2019-09-07 14:35:43,13.0
680.0,-0.110839844,-0.029724121000000003,0.0056152343999999995,-76.31298000000001,-64.20611,121.47328,2019-09-07 14:35:43,13.0
681.0,-0.10119629,-0.018676758,0.0038452148,-60.572517000000005,-59.83969499999999,117.94656,2019-09-07 14:35:43,13.0
682.0,-0.10321045,-0.016540527,0.0008544922000000001,-49.74046,-55.053436,107.091606,2019-09-07 14:35:43,13.0
683.0,-0.09924316400000001,-0.01586914,0.0048828125,-49.335876,-46.282444,89.9542,2019-09-07 14:35:43,13.0
684.0,-0.12957764,0.024719237999999998,0.005859375,-56.71755600000001,-39.137405,60.946564,2019-09-07 14:35:43,13.0
685.0,-0.13409424,0.022216797000000003,0.0072631836,-57.190838,-25.625954,31.145039,2019-09-07 14:35:43,13.0
686.0,-0.13708496,0.022338867000000002,0.00012207031000000001,-43.206109999999995,-11.770992,0.5496183000000001,2019-09-07 14:35:43,13.0
687.0,-0.15057373,0.013244628999999999,-0.003540039,-29.419846999999997,-0.19847329,-22.549618,2019-09-07 14:35:43,13.0
688.0,-0.15997314,0.0052490233999999995,-0.0017700195,-12.335877,9.641221,-39.694656,2019-09-07 14:35:43,13.0
689.0,-0.15032959,0.011291503999999999,-0.005737304699999999,17.977098,10.587786999999999,-48.015266,2019-09-07 14:35:43,13.0
690.0,-0.14807129,0.020141601999999998,-0.0010375977,33.305344,16.595419,-51.564884,2019-09-07 14:35:43,13.0
691.0,-0.15417479999999997,0.0021972656,0.0068969727,42.320609999999995,20.809160000000002,-52.587788,2019-09-07 14:35:43,13.0
692.0,-0.16528320000000002,0.009765625,0.007873535,29.954199,30.580153000000003,-54.007633,2019-09-07 14:35:43,13.0
693.0,-0.14929199,0.022277832,0.008972168,13.396947,45.427483,-61.007633,2019-09-07 14:35:44,13.0
694.0,-0.15673828,0.013122558999999999,0.014099121000000001,-10.458015,50.496179999999995,-66.29771,2019-09-07 14:35:44,13.0
695.0,-0.15753174,0.016235351999999998,0.0119018555,-12.511451,57.664124,-71.65649,2019-09-07 14:35:44,13.0
696.0,-0.16101074,0.005981445300000001,-0.0026245116999999997,-9.78626,66.71755999999999,-77.12214,2019-09-07 14:35:44,13.0
697.0,-0.18426514,0.028259277000000003,-0.0012207030999999999,0.053435113,74.76335999999999,-92.91603,2019-09-07 14:35:44,13.0
698.0,-0.20123291,0.009155273,0.010620117,-4.0839696000000005,86.41221999999999,-116.23664,2019-09-07 14:35:44,13.0
699.0,-0.17218018,-6.1035155999999994e-05,0.020812988,-3.9389312000000007,103.381676,-137.66412,2019-09-07 14:35:44,13.0
700.0,-0.16088867,0.0072021483999999995,0.025024414,9.312977,109.70228999999999,-144.05344,2019-09-07 14:35:44,13.0
701.0,-0.12774658,0.017089844,0.0075683593999999995,44.25954,80.9542,-129.51144,2019-09-07 14:35:44,13.0
702.0,-0.12939453,-0.008483886999999999,0.001159668,68.19847,74.0229,-106.68701999999999,2019-09-07 14:35:44,13.0
703.0,-0.15887451,0.016113281,0.03326416,100.33588,73.96183,-76.25191,2019-09-07 14:35:44,13.0
704.0,-0.14959717,-0.007385254,0.025939941,130.49618999999998,30.198473,-30.076335999999998,2019-09-07 14:35:44,13.0
705.0,-0.117248535,0.011169433999999999,0.022094727,167.69466,5.2442746,11.076336,2019-09-07 14:35:44,13.0
706.0,-0.09564209,0.009765625,0.020324707,177.99237,-14.473282999999999,43.15267,2019-09-07 14:35:44,13.0
707.0,-0.114746094,-0.004638672,0.026245117000000002,180.24428,-18.587785999999998,63.25954,2019-09-07 14:35:44,13.0
708.0,-0.10510254,-0.004272461,0.033935547,146.80916000000002,-27.87023,69.34351,2019-09-07 14:35:44,13.0
709.0,-0.10992432,0.022094727,0.029846191,96.98473,-41.244274,73.33588,2019-09-07 14:35:44,13.0
710.0,-0.115234375,0.028686523,0.026794434,51.267174,-45.053436,67.72519,2019-09-07 14:35:44,13.0
711.0,-0.12097168,0.012023926,0.026123047000000003,4.8320612999999994,-47.229008,54.076336,2019-09-07 14:35:44,13.0
712.0,-0.13647461,-0.0014648438,0.018981934,-23.297710000000002,-47.549618,43.549618,2019-09-07 14:35:44,13.0
713.0,-0.11981201,0.018615723,0.020080566,-34.23664,-41.251907,31.0,2019-09-07 14:35:44,13.0
714.0,-0.12554932,0.020141601999999998,0.005737304699999999,-32.503820000000005,-27.625953999999997,15.061069,2019-09-07 14:35:44,13.0
715.0,-0.14361572,0.017456055,0.009887695,-25.969465,-5.40458,-7.5114503,2019-09-07 14:35:44,13.0
716.0,-0.16198729999999997,0.02557373,0.014343261999999999,-27.114503999999997,18.923664000000002,-33.190838,2019-09-07 14:35:44,13.0
717.0,-0.15417479999999997,0.005065918,0.014953613000000001,-17.229008,36.351147,-48.496179999999995,2019-09-07 14:35:44,13.0
718.0,-0.14935303,0.01171875,0.010498047,-15.129771,61.564884,-58.48855,2019-09-07 14:35:44,13.0
719.0,-0.16247559,0.032348632999999995,0.009338379,-35.572517,64.28244000000001,-50.74046,2019-09-07 14:35:44,13.0
720.0,-0.15826416,0.02142334,0.010192871,-63.25954,60.297709999999995,-35.717556,2019-09-07 14:35:44,13.0
721.0,-0.16522217,0.02520752,0.010681152,-83.16794,56.137405,-20.717558,2019-09-07 14:35:44,13.0
722.0,-0.16711426,0.025512695,0.003540039,-101.41221999999999,28.229008,1.3053435,2019-09-07 14:35:44,13.0
723.0,-0.15588379,0.016845703,-0.0048828125,-96.83206,-10.656488000000001,36.84733,2019-09-07 14:35:44,13.0
724.0,-0.14196777,0.0018920898,-0.001159668,-67.10687,-30.206106,66.0458,2019-09-07 14:35:44,13.0
725.0,-0.10980224599999999,0.007690429699999999,-0.002319336,-30.977097999999998,-51.46565,100.618324,2019-09-07 14:35:44,13.0
726.0,-0.10900879,0.0126953125,0.0045776367,0.73282444,-57.366413,126.30533999999999,2019-09-07 14:35:44,13.0
727.0,-0.10614014,0.0067749023,0.005981445300000001,22.809160000000002,-45.396946,137.77100000000002,2019-09-07 14:35:44,13.0
728.0,-0.10736084,0.022766112999999998,0.013427733999999998,15.78626,-43.374046,137.9542,2019-09-07 14:35:44,13.0
729.0,-0.09362793,0.033569336,0.009277344,-7.099236500000001,-36.366413,131.12213,2019-09-07 14:35:44,13.0
730.0,-0.12158203,0.004272461,0.008178711,-38.23664,-17.740458,110.0458,2019-09-07 14:35:45,13.0
731.0,-0.11248779,0.009887695,0.010986328,-65.27481,-13.282442999999999,85.99235999999999,2019-09-07 14:35:45,13.0
732.0,-0.12854004,0.012939453,0.008972168,-84.74809,3.9923663,57.366413,2019-09-07 14:35:45,13.0
733.0,-0.15679932,0.0064697266000000005,0.0068359375,-93.67175,13.603053,29.435114000000002,2019-09-07 14:35:45,13.0
734.0,-0.1616211,0.003112793,-0.0053100586,-88.16031,20.305344,5.885496,2019-09-07 14:35:45,13.0
735.0,-0.16821289,0.01184082,-0.005981445300000001,-65.99235999999999,22.206106,-11.458015,2019-09-07 14:35:45,13.0
736.0,-0.14862060000000002,-0.0078125,-0.0020141601999999997,-31.053434000000003,24.38168,-26.57252,2019-09-07 14:35:45,13.0
737.0,-0.14660645,-0.001159668,0.00390625,-10.396947,27.770992,-41.89313,2019-09-07 14:35:45,13.0
738.0,-0.100097656,0.006164551,0.0115356445,14.832060999999998,36.709922999999996,-78.92367,2019-09-07 14:35:45,13.0
739.0,-0.11560058599999999,-0.014892578,0.018249512,20.076335999999998,47.17557,-79.61069,2019-09-07 14:35:45,13.0
740.0,-0.12335205,-0.010498047,0.02154541,9.358779,44.633587,-77.39695,2019-09-07 14:35:45,13.0
741.0,-0.14636229999999997,-0.005432129,0.019958496000000003,10.007633,40.778625,-73.541985,2019-09-07 14:35:45,13.0
742.0,-0.13403320000000002,-0.005859375,0.026123047000000003,15.19084,27.29771,-62.82443000000001,2019-09-07 14:35:45,13.0
743.0,-0.12994385,0.011291503999999999,0.02746582,29.641221999999996,8.755725,-52.007633,2019-09-07 14:35:45,13.0
744.0,-0.11663818,0.016113281,0.032104492000000005,50.625954,1.7786259999999998,-40.427483,2019-09-07 14:35:45,13.0
745.0,-0.09777832,0.016784668,0.032470703,78.30534,-9.244275,-32.954197,2019-09-07 14:35:45,13.0
746.0,-0.10125732400000001,0.025268555,0.03100586,81.39695,-16.236639999999998,-29.839695000000003,2019-09-07 14:35:45,13.0
747.0,-0.096191406,0.029541016,0.030456543,72.84733,-20.656488,-28.946565999999997,2019-09-07 14:35:45,13.0
748.0,-0.10650635,0.019836426,0.02508545,65.35114,-26.068703,-29.183207,2019-09-07 14:35:45,13.0
749.0,-0.105651855,0.014160156,0.024108887000000002,51.06107,-21.977098,-30.419846999999997,2019-09-07 14:35:45,13.0
750.0,-0.11651611,0.00970459,0.016784668,45.343509999999995,-14.633588,-34.190838,2019-09-07 14:35:45,13.0
751.0,-0.14227295,0.0031738281,0.018188476999999998,37.755726,-6.3206105,-42.190838,2019-09-07 14:35:45,13.0
752.0,-0.14245605,0.018554688,0.014038086000000002,25.221375,-1.648855,-51.793890000000005,2019-09-07 14:35:45,13.0
753.0,-0.16583252,0.02557373,0.010253906,15.679389000000002,13.946565,-57.053436,2019-09-07 14:35:45,13.0
754.0,-0.14556885,0.020141601999999998,0.012145996000000001,18.251910000000002,27.312977000000004,-62.106869999999994,2019-09-07 14:35:45,13.0
755.0,-0.1428833,0.017944336,0.012207031,13.709923999999999,34.267174,-54.648853,2019-09-07 14:35:45,13.0
756.0,-0.14929199,0.008850098,0.013183594,16.358778,50.0229,-37.030533,2019-09-07 14:35:45,13.0
757.0,-0.1381836,0.01574707,0.01550293,-1.9389313000000001,53.28244399999999,-21.702289999999998,2019-09-07 14:35:45,13.0
758.0,-0.15252686,0.022399902000000003,0.019470215,-29.992366999999998,49.053436,-10.381680000000001,2019-09-07 14:35:45,13.0
759.0,-0.14752197,0.029418945,0.016723633,-57.32824300000001,37.099236,1.6946564999999998,2019-09-07 14:35:45,13.0
760.0,-0.15014648,0.03161621,0.018066406,-82.35114,23.473282,18.832062,2019-09-07 14:35:45,13.0
761.0,-0.14447021,0.023376465,0.015075683999999999,-98.79389,2.129771,38.549618,2019-09-07 14:35:45,13.0
762.0,-0.14111328,0.01574707,0.01751709,-103.67939,-12.022901,61.82443000000001,2019-09-07 14:35:45,13.0
763.0,-0.14251709,0.0041503906,0.013122558999999999,-88.46565,-28.213741,84.900764,2019-09-07 14:35:46,13.0
764.0,-0.10577392599999999,0.014709473,0.012512207,-75.54961999999999,-36.374046,100.145035,2019-09-07 14:35:46,13.0
765.0,-0.12731934,0.0049438477,0.0072021483999999995,-70.15267,-41.0,106.91603,2019-09-07 14:35:46,13.0
766.0,-0.106933594,0.005126953,0.013061523,-65.31298000000001,-45.503820000000005,109.58015400000001,2019-09-07 14:35:46,13.0
767.0,-0.117126465,0.014160156,0.013305663999999998,-54.44275,-45.320609999999995,107.0,2019-09-07 14:35:46,13.0
768.0,-0.10827637,-0.00048828125,0.013366699,-49.435116,-41.984734,97.091606,2019-09-07 14:35:46,13.0
769.0,-0.12670898,-0.004699707,0.0075683593999999995,-50.328243,-35.381679999999996,83.80153,2019-09-07 14:35:46,13.0
770.0,-0.12213135,0.0028686523,0.005859375,-50.320609999999995,-31.08397,68.65649,2019-09-07 14:35:46,13.0
771.0,-0.12225342,0.012939453,0.006225586,-58.16794,-25.343512,54.23664,2019-09-07 14:35:46,13.0
772.0,-0.12921143,0.007873535,0.0053100586,-45.954197,-23.748089999999998,41.297709999999995,2019-09-07 14:35:46,13.0
773.0,-0.13769531,0.027526855,0.00018310547,-32.969467,-21.541985,27.229008,2019-09-07 14:35:46,13.0
774.0,-0.1484375,0.025390625,-0.0025024414000000004,-24.61832,-17.648854999999998,17.297710000000002,2019-09-07 14:35:46,13.0
775.0,-0.14605713,0.014404297,-0.002319336,0.41221374,-8.671756,11.870229,2019-09-07 14:35:46,13.0
776.0,-0.1449585,0.027770996000000003,0.0045166016,34.450382,0.007633588,17.152672,2019-09-07 14:35:46,13.0
777.0,-0.14074707,0.055664062,0.007446289,75.64886,-14.664123000000002,64.70229,2019-09-07 14:35:46,13.0
778.0,-0.15130615,0.10784912,-0.005004883,147.82443,-11.877863,145.69466,2019-09-07 14:35:46,13.0
779.0,-0.17364502,0.16809082,-0.042114257999999995,180.72519,-7.603053599999999,220.92366,2019-09-07 14:35:46,13.0
780.0,-0.18206787,0.17840576,-0.028015137000000002,127.770996,28.06107,239.23665,2019-09-07 14:35:46,13.0
781.0,-0.1506958,0.13049316,0.016113281,73.25954399999999,77.37405,213.00762999999998,2019-09-07 14:35:46,13.0
782.0,-0.09881592,0.084472656,0.030090332,27.778625,104.05344000000001,180.94656,2019-09-07 14:35:46,13.0
783.0,-0.08227539,0.07489014,0.021240234,-47.251907,96.770996,152.9084,2019-09-07 14:35:46,13.0
784.0,-0.077941895,0.029052734,0.022216797000000003,-132.0229,81.71755999999999,121.62595,2019-09-07 14:35:46,13.0
785.0,-0.08648682,0.035949707000000004,0.03692627,-220.55725,52.374046,82.80915999999999,2019-09-07 14:35:46,13.0
786.0,-0.07733154,0.024780273,0.035461426000000004,-250.1374,19.10687,30.80916,2019-09-07 14:35:46,13.0
787.0,-0.06689453,-0.005004883,0.024169922000000003,-250.1374,-0.32061067,-9.305344,2019-09-07 14:35:46,13.0
788.0,-0.06591797,-0.008056641,0.025024414,-192.55725,10.122137,-47.549618,2019-09-07 14:35:46,13.0
789.0,-0.07250976599999999,0.0032348633000000003,0.038391113,-76.0687,27.786259,-71.96947,2019-09-07 14:35:46,13.0
790.0,-0.107543945,0.010314941,0.05224609400000001,50.984734,36.526720000000005,-85.145035,2019-09-07 14:35:46,13.0
791.0,-0.11401367,0.026733398,0.051879882999999995,120.51145,7.7328243,-90.00764000000001,2019-09-07 14:35:46,13.0
792.0,-0.11053467,0.04748535,0.054626465,129.63359,-7.7557254,-92.15267,2019-09-07 14:35:46,13.0
793.0,-0.11547851599999999,0.0637207,0.05493164,88.0687,-19.076335999999998,-99.37405,2019-09-07 14:35:46,13.0
794.0,-0.111328125,0.079956055,0.06341553,25.549618,-22.480917,-113.1145,2019-09-07 14:35:46,13.0
795.0,-0.11444092,0.05908203,0.055114746,1.3740458,-25.06107,-129.03816,2019-09-07 14:35:46,13.0
796.0,-0.11187744,0.01751709,0.045715332000000004,3.076336,-20.137404999999998,-137.12978,2019-09-07 14:35:46,13.0
797.0,-0.11657715,0.037109375,0.03527832,28.519083000000002,-19.435114000000002,-142.29007,2019-09-07 14:35:46,13.0
798.0,-0.13775635,0.037231445,0.030090332,64.54961999999999,-22.61832,-145.24428,2019-09-07 14:35:47,13.0
799.0,-0.14202881,0.055664062,0.032409667999999996,79.12214,-21.725191,-152.0916,2019-09-07 14:35:47,13.0
800.0,-0.14141846,0.040405273,0.031921387,87.33588,-18.984734,-157.69466,2019-09-07 14:35:47,13.0
801.0,-0.14178467,0.04833984400000001,0.026489257999999998,91.94655999999999,-15.396947,-160.9771,2019-09-07 14:35:47,13.0
802.0,-0.14178467,0.056396484000000004,0.028381347999999997,85.03817,-9.229008,-167.69466,2019-09-07 14:35:47,13.0
803.0,-0.15625,0.04443359400000001,0.02758789,72.03817,2.2900763,-173.2519,2019-09-07 14:35:47,13.0
804.0,-0.12591553,0.049194336,0.030578612999999998,70.37405,12.175572,-171.55725,2019-09-07 14:35:47,13.0
805.0,-0.14257812,0.041320800000000005,0.024414062,68.900764,19.190839999999998,-163.35878,2019-09-07 14:35:47,13.0
806.0,-0.14074707,0.033447266,0.031433105,61.969467,24.213741,-150.0687,2019-09-07 14:35:47,13.0
807.0,-0.17181396,0.036315917999999996,0.031677246,48.580154,30.267176,-133.35115,2019-09-07 14:35:47,13.0
808.0,-0.13989258,0.025817871000000003,0.029296875,40.374046,28.801527,-108.75572,2019-09-07 14:35:47,13.0
809.0,-0.12884521,0.014099121000000001,0.028259277000000003,37.46565,28.625953999999997,-82.36641,2019-09-07 14:35:47,13.0
810.0,-0.12280273400000001,0.03527832,0.028503418,34.992367,20.229008,-52.099236,2019-09-07 14:35:47,13.0
811.0,-0.106933594,0.036865234,0.035827637,30.740458,16.076335999999998,-25.633587,2019-09-07 14:35:47,13.0
812.0,-0.11413574,0.036254882999999995,0.04559326,11.7786255,16.709923,-5.5114503,2019-09-07 14:35:47,13.0
813.0,-0.11645508,0.028930664,0.044006348,-20.885496,14.862596,6.908396700000001,2019-09-07 14:35:47,13.0
814.0,-0.11871338,0.026855469,0.039489746,-43.91603,14.083969,21.480917,2019-09-07 14:35:47,13.0
815.0,-0.12634277,0.034423828,0.033081055,-50.89313,13.122137,32.251907,2019-09-07 14:35:47,13.0
816.0,-0.13940429999999998,0.012634277,0.025512695,-65.84733,13.061069,43.74046,2019-09-07 14:35:47,13.0
817.0,-0.14807129,0.02178955,0.022094727,-76.381676,4.7099237,53.564884,2019-09-07 14:35:47,13.0
818.0,-0.13311768,0.040222167999999996,0.015014648,-82.03817,4.366412,60.679390000000005,2019-09-07 14:35:47,13.0
819.0,-0.1270752,0.026245117000000002,0.016357422,-82.12977,5.59542,65.503815,2019-09-07 14:35:47,13.0
820.0,-0.14978027,0.043884277,0.015075683999999999,-93.83969,8.473283,67.67175,2019-09-07 14:35:47,13.0
821.0,-0.14324951,0.034606934,0.00982666,-87.51145,3.7099237,73.03817,2019-09-07 14:35:47,13.0
822.0,-0.15710449,0.009094238000000001,0.007507324,-80.854965,1.0839695,80.26717,2019-09-07 14:35:47,13.0
823.0,-0.14312744,0.029418945,0.010253906,-68.83969,-0.49618322,87.778625,2019-09-07 14:35:47,13.0
824.0,-0.14520264,0.022338867000000002,0.0107421875,-60.221375,-2.6488549999999997,94.45038000000001,2019-09-07 14:35:47,13.0
825.0,-0.14044189999999998,0.013549805,0.008544922,-57.480915,-1.5343511,99.67939,2019-09-07 14:35:47,13.0
826.0,-0.15026855,0.022827148,0.006958008000000001,-57.320609999999995,0.007633588,96.99235999999999,2019-09-07 14:35:47,13.0
827.0,-0.11816406,0.025390625,0.011962891000000002,-53.71755600000001,0.52671754,92.28244000000001,2019-09-07 14:35:47,13.0
828.0,-0.13854979999999997,0.015563965,0.01776123,-44.885498,3.7099237,85.75572,2019-09-07 14:35:47,13.0
829.0,-0.13830566,0.00091552734,0.013793945,-40.244274,7.603053599999999,73.221375,2019-09-07 14:35:47,13.0
830.0,-0.13989258,-0.0064697266000000005,0.014526367,-45.78626,13.442748000000002,57.335876,2019-09-07 14:35:47,13.0
831.0,-0.14154053,0.022827148,0.017333984,-43.16794,18.08397,37.17557,2019-09-07 14:35:47,13.0
832.0,-0.12084961,0.018859863,0.02142334,-42.404579999999996,28.656488,17.534351,2019-09-07 14:35:47,13.0
833.0,-0.13128662,0.006225586,0.020080566,-43.244274,37.992367,1.0152671,2019-09-07 14:35:47,13.0
834.0,-0.15649414,0.018188476999999998,0.025695799999999998,-42.816795,51.0229,-19.778625,2019-09-07 14:35:48,-2.0
835.0,-0.15478516,-0.0033569335999999996,0.030761719,-59.61832,60.83206,-41.610687,2019-09-07 14:35:48,-2.0
836.0,-0.15502929999999998,0.010192871,0.026306152000000003,-77.12214,68.63359,-58.23664,2019-09-07 14:35:48,-2.0
837.0,-0.17254639,0.01776123,0.02319336,-72.69466,71.91603,-70.54961999999999,2019-09-07 14:35:48,-2.0
838.0,-0.14416504,0.005554199,0.014404297,-43.656490000000005,71.458015,-80.51145,2019-09-07 14:35:48,-2.0
839.0,-0.14154053,-0.0126953125,0.015991211,-9.396947,59.702290000000005,-81.1145,2019-09-07 14:35:48,-2.0
840.0,-0.1607666,0.005859375,0.016906738,28.725191,53.12214,-79.03817,2019-09-07 14:35:48,-2.0
841.0,-0.15795898,0.012878418,0.032958984,59.564884,31.206106,-74.175575,2019-09-07 14:35:48,-2.0
842.0,-0.11932373,0.002380371,0.028503418,86.89313,8.80916,-62.648853,2019-09-07 14:35:48,-2.0
843.0,-0.11071777,0.009277344,0.013916016000000002,104.87023,7.6870227,-56.16794,2019-09-07 14:35:48,-2.0
844.0,-0.13323975,-0.0064086914,0.02923584,91.32061,-0.27480915,-42.702290000000005,2019-09-07 14:35:48,-2.0
845.0,-0.13928223,0.00970459,0.020080566,64.96183,-16.549618,-27.954199,2019-09-07 14:35:48,-2.0
846.0,-0.16400146,0.009643555,0.01550293,44.778625,-31.06107,-11.450381,2019-09-07 14:35:48,-2.0
847.0,-0.12170410000000002,0.00036621094,0.01184082,32.908398,-39.21374,2.3282442000000003,2019-09-07 14:35:48,-2.0
848.0,-0.15423584,0.01739502,0.013366699,37.572517,-36.549618,19.213741,2019-09-07 14:35:48,-2.0
849.0,-0.1281128,0.024230957,0.016784668,45.51145,-38.656490000000005,27.57252,2019-09-07 14:35:48,-2.0
850.0,-0.110839844,0.01763916,0.017089844,46.251907,-33.76336,28.541984999999997,2019-09-07 14:35:48,-2.0
851.0,-0.09857178,0.010437011999999999,0.019897461,37.992367,-27.89313,21.42748,2019-09-07 14:35:48,-2.0
852.0,-0.1116333,0.024536132999999998,0.015014648,23.0,-23.320610000000002,13.0,2019-09-07 14:35:48,-2.0
853.0,-0.12176514,0.00048828125,0.015930176,18.534351,-12.832061,6.6488547,2019-09-07 14:35:48,-2.0
854.0,-0.12908936,0.005859375,0.02154541,20.603054,-3.3816792999999996,3.0610687999999997,2019-09-07 14:35:48,-2.0
855.0,-0.11505127,0.020874023000000002,0.019104003999999997,24.152672,-0.8702290000000001,1.7862595000000001,2019-09-07 14:35:48,-2.0
856.0,-0.12329101599999999,0.031311035,0.019042969,22.122137,5.7938933,0.8396947,2019-09-07 14:35:48,-2.0
857.0,-0.12774658,0.004638672,0.021911621000000003,13.244275,12.2595415,-1.9770991999999998,2019-09-07 14:35:48,-2.0
858.0,-0.14111328,-0.00793457,0.032470703,-1.1297709999999999,18.351145000000002,-4.519083999999999,2019-09-07 14:35:48,-2.0
859.0,-0.14715576,0.02355957,0.018249512,0.89312977,21.183207,-16.954199,2019-09-07 14:35:48,-2.0
860.0,-0.13018799,0.0064697266000000005,0.023010253999999997,3.6870230000000004,32.08397,-30.824427000000004,2019-09-07 14:35:48,-2.0
861.0,-0.15130615,-0.0012817383,0.018554688,12.938931,44.366413,-45.87786,2019-09-07 14:35:48,-2.0
862.0,-0.16693115,0.012084961000000002,0.02319336,13.312976999999998,45.25954,-55.435116,2019-09-07 14:35:48,-2.0
863.0,-0.12738037,0.017456055,0.037719727,11.984733,45.526720000000005,-61.038166000000004,2019-09-07 14:35:48,-2.0
864.0,-0.10803223,0.028625487999999998,0.024658202999999997,6.9160304,33.473279999999995,-53.412212,2019-09-07 14:35:48,-2.0
865.0,-0.15203857,0.025695799999999998,0.025024414,-21.08397,48.656490000000005,-47.16794,2019-09-07 14:35:48,-2.0
866.0,-0.15563965,0.019104003999999997,0.024353027000000003,-50.549618,15.519084,-25.702289999999998,2019-09-07 14:35:48,-2.0
867.0,-0.15161133,0.0075683593999999995,0.014343261999999999,-66.175575,-1.4274809,1.5572518999999998,2019-09-07 14:35:49,-2.0
868.0,-0.14129639,0.019470215,0.010925293,-56.21374,-9.946565,24.954199,2019-09-07 14:35:49,-2.0
869.0,-0.1375122,-0.014526367,0.013977051,-40.885498,-19.908398000000002,48.694656,2019-09-07 14:35:49,-2.0
870.0,-0.15222168,0.028930664,0.011779785,-29.312977000000004,-24.175573,65.96183,2019-09-07 14:35:49,-2.0
871.0,-0.14898682,-0.0029907227,0.012573242,-17.564885999999998,-25.923664000000002,78.03053,2019-09-07 14:35:49,-2.0
872.0,-0.13677979,0.018615723,0.010131836,-11.984733,-30.152671999999995,85.32825,2019-09-07 14:35:49,-2.0
873.0,-0.13055419999999998,-0.009643555,0.018310547,-13.129771,-26.328245000000003,85.458015,2019-09-07 14:35:49,-2.0
874.0,-0.12194824,0.001159668,0.009643555,-23.793894,-25.702289999999998,83.08397,2019-09-07 14:35:49,-2.0
875.0,-0.13421631,-0.011108398,0.013427733999999998,-26.580153000000003,-22.625954,74.33588,2019-09-07 14:35:49,-2.0
876.0,-0.12646484,-0.0061035156000000005,0.010620117,-28.145039,-20.053434,60.22900799999999,2019-09-07 14:35:49,-2.0
877.0,-0.12664795,0.012756348,0.012145996000000001,-28.847328000000005,-12.564885,45.648853,2019-09-07 14:35:49,-2.0
878.0,-0.113464355,-0.0016479492000000002,0.015014648,-22.664122,-3.0610687999999997,28.778625,2019-09-07 14:35:49,-2.0
879.0,-0.16082764,0.0025024414000000004,0.017944336,-22.259542,8.633588,10.007633,2019-09-07 14:35:49,-2.0
880.0,-0.14648438,0.025817871000000003,0.013916016000000002,-26.786259,14.854961,-12.366412,2019-09-07 14:35:49,-2.0
881.0,-0.16662598,0.01159668,0.022521972999999997,-26.0,20.809160000000002,-29.137404999999998,2019-09-07 14:35:49,-2.0
882.0,-0.15856934,0.020385742,0.019165039,-26.267176,19.900763,-41.091602,2019-09-07 14:35:49,-2.0
883.0,-0.15600586,0.010070800999999999,0.016540527,-4.9923663000000005,20.465649,-49.267174,2019-09-07 14:35:49,-2.0
884.0,-0.14575195,-0.011352538999999998,0.008117675999999999,12.664123,18.251910000000002,-53.007633,2019-09-07 14:35:49,-2.0
885.0,-0.14892578,-0.006713866999999999,0.022583007999999998,30.80916,14.59542,-53.954197,2019-09-07 14:35:49,-2.0
886.0,-0.14031982,0.013366699,0.026489257999999998,46.503820000000005,6.8320612999999994,-49.076336,2019-09-07 14:35:49,-2.0
887.0,-0.11859131,0.023986816,0.031433105,58.664124,0.5038168,-49.435116,2019-09-07 14:35:49,-2.0
888.0,-0.09576416,-0.00042724610000000003,0.015197753999999999,56.190838,-5.1755724,-45.458015,2019-09-07 14:35:49,-2.0
889.0,-0.13360596,-0.005493164,0.019104003999999997,60.083969999999994,3.778626,-43.862595,2019-09-07 14:35:49,-2.0
890.0,-0.14257812,0.014831543,0.018310547,53.709922999999996,-13.38168,-33.778625,2019-09-07 14:35:49,-2.0
891.0,-0.15704346,0.015991211,0.021911621000000003,48.503820000000005,-16.06107,-24.91603,2019-09-07 14:35:49,-2.0
892.0,-0.14691162,0.007751465,0.010437011999999999,53.198475,-23.022902,-13.091603,2019-09-07 14:35:49,-2.0
893.0,-0.13146973,0.008728027,0.011413574,59.755726,-20.206106,-5.0076336999999995,2019-09-07 14:35:49,-2.0
894.0,-0.14422607,0.021911621000000003,0.018188476999999998,56.366413,-16.587785999999998,-2.480916,2019-09-07 14:35:49,-2.0
895.0,-0.12145996,0.025146484,0.018127441,41.015266,-13.854961,-10.839694999999999,2019-09-07 14:35:49,-2.0
896.0,-0.11560058599999999,0.0041503906,0.018615723,25.06107,-8.2213745,-18.114504,2019-09-07 14:35:49,-2.0
897.0,-0.09838867,0.004211426,0.014892578,15.908397,-0.091603056,-31.442749,2019-09-07 14:35:49,-2.0
898.0,-0.10253906,-0.007690429699999999,0.014526367,4.671755999999999,8.625955000000001,-37.17557,2019-09-07 14:35:49,-2.0
899.0,-0.11810303,0.0078125,0.023986816,13.450381,22.48855,-47.9771,2019-09-07 14:35:49,-2.0
900.0,-0.14324951,0.018737793,0.023803711,12.969465,26.366413,-56.916030000000006,2019-09-07 14:35:49,-2.0
901.0,-0.13366699,0.0072631836,0.023254395,8.832061,30.587785999999998,-60.78626,2019-09-07 14:35:49,-2.0
902.0,-0.15423584,-0.0013427734,0.023010253999999997,9.290076,31.496183000000002,-57.801525,2019-09-07 14:35:49,-2.0
903.0,-0.14788818,0.011657715,0.020141601999999998,15.641221,33.717556,-50.137405,2019-09-07 14:35:49,-2.0
904.0,-0.16186523,0.006652831999999999,0.022216797000000003,9.488549,37.839695,-40.427483,2019-09-07 14:35:50,0.0
905.0,-0.14788818,0.019592285,0.021850586,7.0,36.206109999999995,-28.877863,2019-09-07 14:35:50,0.0
906.0,-0.16522217,0.024902344,0.02319336,3.5572519999999996,26.74809,-17.564885999999998,2019-09-07 14:35:50,0.0
907.0,-0.14556885,0.006225586,0.018981934,9.755725,25.679389999999998,-8.832061,2019-09-07 14:35:50,0.0
908.0,-0.14343262,-0.010253906,0.017028809,5.1297708,29.442749,-0.22900763,2019-09-07 14:35:50,0.0
909.0,-0.14428711,0.01977539,0.028015137000000002,-8.312977,18.93893,8.175572,2019-09-07 14:35:50,0.0
910.0,-0.12561035,0.014343261999999999,0.036804199999999995,-18.740458,5.412214,16.198473,2019-09-07 14:35:50,0.0
911.0,-0.09515381,0.018249512,0.02911377,-39.10687,14.694656,25.244274,2019-09-07 14:35:50,0.0
912.0,-0.14654541,0.026611327999999997,0.030456543,-62.17556999999999,9.847328,31.641221999999996,2019-09-07 14:35:50,0.0
913.0,-0.15325928,0.007080078,0.025817871000000003,-91.34351,-13.0,43.46565,2019-09-07 14:35:50,0.0
914.0,-0.14569092,-0.008056641,0.011108398,-89.27481,-21.946566,56.076336,2019-09-07 14:35:50,0.0
915.0,-0.14929199,0.009765625,0.0038452148,-76.55725,-33.458015,70.25954399999999,2019-09-07 14:35:50,0.0
916.0,-0.14489746,0.015625,0.010620117,-65.89313,-30.740458,79.83206,2019-09-07 14:35:50,0.0
917.0,-0.13366699,0.016418457,0.007080078,-55.320609999999995,-31.816793,84.25191,2019-09-07 14:35:50,0.0
918.0,-0.14477539,0.0095825195,0.006225586,-50.0229,-29.67939,79.87786,2019-09-07 14:35:50,0.0
919.0,-0.12792969,0.025817871000000003,0.008911133,-43.045803,-24.526718,70.51145,2019-09-07 14:35:50,0.0
920.0,-0.12579346,0.01586914,0.0032958984000000004,-47.274809999999995,-23.610687,63.083969999999994,2019-09-07 14:35:50,0.0
921.0,-0.107299805,0.018493652,0.0030517578000000003,-43.458015,-16.923664000000002,51.603054,2019-09-07 14:35:50,0.0
922.0,-0.11114502,0.013916016000000002,0.00042724610000000003,-37.221375,-14.488548999999999,41.908398,2019-09-07 14:35:50,0.0
923.0,-0.13372803,0.013427733999999998,0.0031738281,-28.267176,-9.931297,34.08397,2019-09-07 14:35:50,0.0
924.0,-0.144104,0.021362305,0.0051879883,-16.625954,-3.465649,23.89313,2019-09-07 14:35:50,0.0
925.0,-0.12823486,0.0026855469,0.011108398,-12.610686999999999,2.3816792999999996,13.679389000000002,2019-09-07 14:35:50,0.0
926.0,-0.14819336,0.021972656,0.009216309,-15.824428,6.1297708,5.4198474999999995,2019-09-07 14:35:50,0.0
927.0,-0.14672852,0.00579834,0.008422852,-13.870229,16.10687,-3.6259542000000002,2019-09-07 14:35:50,0.0
928.0,-0.1517334,0.01171875,0.0154418945,-22.656488,18.389313,-14.244275,2019-09-07 14:35:50,0.0
929.0,-0.15350342,-0.0026245116999999997,0.013916016000000002,-19.091601999999998,14.992367000000002,-21.282442,2019-09-07 14:35:50,0.0
930.0,-0.15539551,0.021728516,0.018310547,-7.236641400000001,22.282442,-28.877863,2019-09-07 14:35:50,0.0
931.0,-0.16821289,0.013183594,0.016235351999999998,8.618319999999999,22.587785999999998,-35.55725,2019-09-07 14:35:50,0.0
932.0,-0.14892578,-0.007080078,0.02520752,21.969465,17.931297,-40.328243,2019-09-07 14:35:50,0.0
933.0,-0.10913086,0.0068969727,0.035095215,39.862595,18.48855,-47.160305,2019-09-07 14:35:50,0.0
934.0,-0.10296631,0.0099487305,0.022155762000000002,49.206109999999995,15.770992000000001,-49.89313,2019-09-07 14:35:50,0.0
935.0,-0.13067627,0.0045166016,0.022766112999999998,47.679390000000005,18.900763,-52.335876,2019-09-07 14:35:50,0.0
936.0,-0.13922119,0.002746582,0.026794434,34.0,11.083969,-49.770992,2019-09-07 14:35:50,0.0
937.0,-0.13781738,0.0134887695,0.021850586,37.870228000000004,8.694656,-43.809162,2019-09-07 14:35:50,0.0
938.0,-0.14184570000000002,0.014892578,0.018798828,35.21374,-1.1297709999999999,-35.190838,2019-09-07 14:35:50,0.0
939.0,-0.13159179999999998,-0.010314941,0.0107421875,37.778625,-8.229008,-20.793894,2019-09-07 14:35:50,0.0
940.0,-0.13909912,-0.00036621094,0.009033203,46.419846,-8.580152499999999,-15.0,2019-09-07 14:35:51,0.0
941.0,-0.14129639,0.017089844,0.01776123,45.618320000000004,-11.343511999999999,-12.312977,2019-09-07 14:35:51,0.0
942.0,-0.13989258,0.010925293,0.022521972999999997,38.091602,-8.7404585,-18.816793,2019-09-07 14:35:51,0.0
943.0,-0.13580322,0.007873535,0.013122558999999999,37.17557,-6.969465700000001,-26.274809,2019-09-07 14:35:51,0.0
944.0,-0.101501465,-0.010925293,0.009643555,34.580154,-2.687023,-32.603054,2019-09-07 14:35:51,0.0
945.0,-0.117248535,-0.017089844,0.012268066000000001,35.76336,6.7328243,-40.23664,2019-09-07 14:35:51,0.0
946.0,-0.13391113,0.016906738,0.01763916,34.992367,13.091603,-48.335876,2019-09-07 14:35:51,0.0
947.0,-0.15484619,0.01574707,0.01763916,28.595419,23.549618,-58.38168,2019-09-07 14:35:51,0.0
948.0,-0.13317871,-0.009887695,0.018676758,18.030535,28.465649,-65.65649,2019-09-07 14:35:51,0.0
949.0,-0.1605835,0.018981934,0.013122558999999999,15.687023000000002,34.503820000000005,-68.51145,2019-09-07 14:35:51,0.0
950.0,-0.15716553,0.018127441,0.017333984,6.961832000000001,44.274809999999995,-67.496185,2019-09-07 14:35:51,0.0
951.0,-0.17205810000000002,0.016967773000000002,0.020751953,-1.9847328999999998,43.0,-64.92367,2019-09-07 14:35:51,0.0
952.0,-0.17144775,0.029174805,0.019836426,-1.0687023,44.55725,-57.396946,2019-09-07 14:35:51,0.0
953.0,-0.14697266,0.027282715,0.018127441,-1.3664121999999999,39.839695,-43.85496,2019-09-07 14:35:51,0.0
954.0,-0.13916016,0.034362792999999996,0.031066895,-19.38168,44.320609999999995,-34.366413,2019-09-07 14:35:51,0.0
955.0,-0.11315918,0.036315917999999996,0.034179688,-38.198475,17.625954,-18.541985,2019-09-07 14:35:51,0.0
956.0,-0.111816406,0.017150878999999997,0.026977539,-67.47328,31.114503999999997,-13.198473000000002,2019-09-07 14:35:51,0.0
957.0,-0.14245605,0.029052734,0.03161621,-106.175575,33.908398,-14.137404,2019-09-07 14:35:51,0.0
958.0,-0.13604736,0.021728516,0.017944336,-135.6565,-4.3511453,-0.22900763,2019-09-07 14:35:51,0.0
959.0,-0.15185547,0.012145996000000001,0.006652831999999999,-142.84734,-22.786259,23.603054,2019-09-07 14:35:51,0.0
960.0,-0.13244629,0.019958496000000003,0.0005493164,-127.25954399999999,-41.274809999999995,50.923664,2019-09-07 14:35:51,0.0
961.0,-0.1239624,0.0138549805,-0.005065918,-113.67938999999998,-55.129771999999996,77.62595,2019-09-07 14:35:51,0.0
962.0,-0.12823486,0.010253906,0.00012207031000000001,-96.20611,-67.91603,103.091606,2019-09-07 14:35:51,0.0
963.0,-0.13928223,-0.015991211,-0.0006103515599999999,-80.45038000000001,-68.92367,120.21373999999999,2019-09-07 14:35:51,0.0
964.0,-0.14416504,0.029785156,-6.1035155999999994e-05,-68.84733,-69.74809,128.9084,2019-09-07 14:35:51,0.0
965.0,-0.1473999,0.006591797,-0.002380371,-65.9771,-71.72519,129.67175,2019-09-07 14:35:51,0.0
966.0,-0.14447021,0.007080078,-0.0072021483999999995,-61.84733000000001,-65.33588,125.23664,2019-09-07 14:35:51,0.0
967.0,-0.14764404,0.021240234,-0.009216309,-68.9313,-57.30534399999999,114.16793999999999,2019-09-07 14:35:51,0.0
968.0,-0.13848877,-0.008972168,-0.006042480500000001,-43.9771,-42.328243,85.16031,2019-09-07 14:35:51,0.0
969.0,-0.14691162,0.00579834,-0.0032348633000000003,-34.412212,-30.099237,69.816795,2019-09-07 14:35:51,0.0
970.0,-0.14776611,-0.009033203,-0.0071411133,-19.503817,-23.274809,55.28244399999999,2019-09-07 14:35:51,0.0
971.0,-0.16326904,0.02545166,-0.0037231445,-14.045801,-9.312977,32.76336,2019-09-07 14:35:51,0.0
972.0,-0.144104,0.019836426,-0.0037231445,-12.236641,-1.8244275,11.870229,2019-09-07 14:35:51,0.0
973.0,-0.14941406,-0.0043945312,0.0020751953,-10.725191,21.312977,-13.335876999999998,2019-09-07 14:35:51,0.0
974.0,-0.14703369,0.0036621094,0.006713866999999999,-20.236639999999998,40.526720000000005,-39.480915,2019-09-07 14:35:51,0.0
975.0,-0.13793945,0.010559082,0.036315917999999996,-45.671757,53.47328,-56.85496,2019-09-07 14:35:52,0.0
976.0,-0.08453369,-0.0017089844000000001,0.04937744,-67.458015,55.37404599999999,-60.610687,2019-09-07 14:35:52,0.0
977.0,-0.09442139,-0.010375977,0.018737793,-65.618324,51.404579999999996,-56.916030000000006,2019-09-07 14:35:52,0.0
978.0,-0.10864258,-0.012390136999999999,0.022766112999999998,-39.396946,88.1145,-66.55725,2019-09-07 14:35:52,0.0
979.0,-0.14880371,-0.005554199,0.03491211,-48.671757,47.717556,-64.503815,2019-09-07 14:35:52,0.0
980.0,-0.14056396,0.026794434,0.039916992000000005,-23.442749,43.206109999999995,-71.57252,2019-09-07 14:35:52,0.0
981.0,-0.1227417,0.009643555,0.036743164,-1.0152671,44.0229,-77.35878000000001,2019-09-07 14:35:52,0.0
982.0,-0.13458252,-0.009521484,0.026367188,17.664122,46.48855,-77.15267,2019-09-07 14:35:52,0.0
983.0,-0.13916016,0.002380371,0.022949219,25.557251,43.137405,-69.03817,2019-09-07 14:35:52,0.0
984.0,-0.15423584,0.0016479492000000002,0.02532959,25.419847,32.82443,-66.69466,2019-09-07 14:35:52,0.0
985.0,-0.14477539,0.010559082,0.02545166,14.290076000000001,27.824427000000004,-63.984733999999996,2019-09-07 14:35:52,0.0
986.0,-0.13391113,0.018066406,0.029968262000000002,1.1679389999999998,23.282442,-62.564884,2019-09-07 14:35:52,0.0
987.0,-0.13677979,0.016845703,0.024597168,-12.954199000000001,24.007633,-56.221375,2019-09-07 14:35:52,0.0
988.0,-0.14367676,0.02178955,0.022705077999999997,-17.61832,29.87023,-49.389313,2019-09-07 14:35:52,0.0
989.0,-0.15118408,-0.0041503906,0.02166748,-15.175572,29.175572999999996,-43.572517,2019-09-07 14:35:52,0.0
990.0,-0.16558838,0.025634766,0.027709961,-16.152672,20.625954,-36.85496,2019-09-07 14:35:52,0.0
991.0,-0.16644287,0.012756348,0.020568848,-10.587786999999999,18.312977,-28.068703000000003,2019-09-07 14:35:52,0.0
992.0,-0.15478516,0.024169922000000003,0.02520752,-7.969465700000001,21.335878,-15.870229,2019-09-07 14:35:52,0.0
993.0,-0.1640625,0.009277344,0.023498535,-13.625955,20.389313,-3.0610687999999997,2019-09-07 14:35:52,0.0
994.0,-0.16436768,0.010681152,0.023010253999999997,-22.816793,20.099237,2.778626,2019-09-07 14:35:52,0.0
995.0,-0.14117432,0.0010375977,0.01953125,-23.175573,22.480917,7.458015400000001,2019-09-07 14:35:52,0.0
996.0,-0.16265869,0.011108398,0.026306152000000003,-38.0229,25.366413,8.610686999999999,2019-09-07 14:35:52,0.0
997.0,-0.13287354,0.025634766,0.0357666,-63.38168,17.992367,10.664123,2019-09-07 14:35:52,0.0
998.0,-0.13873291,0.016296387,0.026672362999999998,-84.15267,20.190839999999998,7.10687,2019-09-07 14:35:52,0.0
999.0,-0.14428711,0.016784668,0.011230469,-104.91603,-7.1679387000000006,14.893129,2019-09-07 14:35:52,0.0
1000.0,-0.12866211,-0.00579834,0.0072631836,-104.25954399999999,-26.541984999999997,23.526718,2019-09-07 14:35:52,0.0
1001.0,-0.14208984,0.010681152,-0.0034179688000000002,-91.30534,-43.396946,34.114502,2019-09-07 14:35:52,0.0
1002.0,-0.15588379,0.02142334,-0.0030517578000000003,-77.94655999999999,-56.320609999999995,48.427483,2019-09-07 14:35:52,0.0
1003.0,-0.15576172,0.0014038085999999999,-0.009155273,-68.05344000000001,-61.725190000000005,58.16030500000001,2019-09-07 14:35:52,0.0
1004.0,-0.14129639,0.016662598,-0.004638672,-57.412212,-60.564884,63.748093000000004,2019-09-07 14:35:52,0.0
1005.0,-0.13879395,0.032836914,-0.006225586,-61.870228000000004,-57.0,67.51145,2019-09-07 14:35:52,0.0
1006.0,-0.14349365,0.014526367,-0.008850098,-60.633587,-51.328243,59.74046,2019-09-07 14:35:52,0.0
1007.0,-0.13317871,0.025146484,-0.010864258,-69.53435,-43.687022999999996,50.946564,2019-09-07 14:35:52,0.0
1008.0,-0.14001465,0.0026855469,-0.0072631836,-63.16794,-33.519085,41.267174,2019-09-07 14:35:52,0.0
1009.0,-0.12268066400000001,0.007629394499999999,-0.008728027,-63.47328,-25.625954,36.9771,2019-09-07 14:35:52,0.0
1010.0,-0.11517334,0.007690429699999999,-0.009277344,-65.458015,-13.870229,32.16794,2019-09-07 14:35:52,0.0
1011.0,-0.10992432,0.014892578,-0.009277344,-59.84733000000001,-4.557252,24.717558,2019-09-07 14:35:53,0.0
1012.0,-0.11352539,0.008117675999999999,-0.007507324,-53.083969999999994,3.9770992,21.580153,2019-09-07 14:35:53,0.0
1013.0,-0.12915039,0.013244628999999999,-0.009033203,-43.435116,9.389313000000001,21.076335999999998,2019-09-07 14:35:53,0.0
1014.0,-0.14031982,0.007507324,0.0044555664,-34.374046,16.030535,25.244274,2019-09-07 14:35:53,0.0
1015.0,-0.13085938,0.019348145,0.010620117,-49.74046,28.496183000000002,27.045801,2019-09-07 14:35:53,0.0
1016.0,-0.14093018,0.0022583008,0.022583007999999998,-63.49618,34.992367,25.557251,2019-09-07 14:35:53,0.0
1017.0,-0.14483643,0.006958008000000001,0.010437011999999999,-70.9313,24.610687,29.549618,2019-09-07 14:35:53,0.0
1018.0,-0.18457031,0.028442382999999998,-0.0014648438,-42.549618,28.877863,29.29771,2019-09-07 14:35:53,0.0
1019.0,-0.15625,-0.00036621094,0.024719237999999998,-34.541985,10.244275,34.885498,2019-09-07 14:35:53,0.0
1020.0,-0.13031006,0.005981445300000001,0.031921387,-15.480916,17.961832,38.068703,2019-09-07 14:35:53,0.0
1021.0,-0.16394043,0.023864746000000003,0.04449463,-15.267176000000001,35.404579999999996,34.801525,2019-09-07 14:35:53,0.0
1022.0,-0.13372803,0.0056152343999999995,0.04168701,-35.0,17.160304999999997,35.46565,2019-09-07 14:35:53,0.0
1023.0,-0.1362915,-0.001159668,0.036010742000000005,-53.28244399999999,11.725191,32.633587,2019-09-07 14:35:53,0.0
1024.0,-0.13806152,0.019226074,0.029907227,-48.312977000000004,-9.541985,34.801525,2019-09-07 14:35:53,0.0
1025.0,-0.10748291,0.012451172,0.027160645,-24.91603,-21.610687,34.099236,2019-09-07 14:35:53,0.0
1026.0,-0.115112305,-0.004760742,0.019226074,7.0152674,-23.030535,29.587785999999998,2019-09-07 14:35:53,0.0
1027.0,-0.1149292,0.0025024414000000004,0.018554688,30.42748,-25.648854999999998,23.625954,2019-09-07 14:35:53,0.0
1028.0,-0.11212158,-0.00579834,0.023620605,49.694656,-14.832060999999998,6.4961834000000005,2019-09-07 14:35:53,0.0
1029.0,-0.12011719,0.009155273,0.026306152000000003,47.587788,-3.648855,-15.320610999999998,2019-09-07 14:35:53,0.0
1030.0,-0.115722656,0.017822266,0.030273438,41.038166,6.900763499999999,-37.755726,2019-09-07 14:35:53,0.0
1031.0,-0.12194824,0.0032348633000000003,0.022766112999999998,32.51145,21.801527,-59.458015,2019-09-07 14:35:53,0.0
1032.0,-0.13757324,0.010009766,0.033935547,24.679389999999998,33.251907,-77.541985,2019-09-07 14:35:53,0.0
1033.0,-0.13153076,0.008972168,0.029846191,18.656488,48.923664,-107.175575,2019-09-07 14:35:53,0.0
1034.0,-0.13653564,0.0099487305,0.019165039,24.122137,59.954197,-121.221375,2019-09-07 14:35:53,0.0
1035.0,-0.15417479999999997,0.026489257999999998,0.009643555,35.419846,57.709922999999996,-127.92367,2019-09-07 14:35:53,0.0
1036.0,-0.14727783,0.022766112999999998,0.01586914,39.0,51.908398,-123.20611000000001,2019-09-07 14:35:53,0.0
1037.0,-0.15551758,0.03137207,0.025512695,43.351147,57.396946,-110.40458000000001,2019-09-07 14:35:53,0.0
1038.0,-0.16503906,0.026245117000000002,0.040893555,42.114502,80.10687,-102.854965,2019-09-07 14:35:53,0.0
1039.0,-0.13647461,0.04156494,0.027282715,27.57252,21.687023,-67.12214,2019-09-07 14:35:53,0.0
1040.0,-0.13720703,0.054504395,0.032043457000000004,-1.1145038999999999,32.381679999999996,-46.526720000000005,2019-09-07 14:35:53,0.0
1041.0,-0.15301514,0.037109375,0.032470703,-45.419846,-0.14503817,-17.213741,2019-09-07 14:35:53,0.0
1042.0,-0.15808105,0.029541016,0.0146484375,-68.8855,-27.175572999999996,18.709923,2019-09-07 14:35:53,0.0
1043.0,-0.14294434,0.030822753999999997,0.01361084,-75.496185,-54.59542,48.572517,2019-09-07 14:35:53,0.0
1044.0,-0.111206055,0.023498535,0.018005371000000003,-71.40458000000001,-64.07633,76.89313,2019-09-07 14:35:53,0.0
1045.0,-0.10278319999999999,0.013000488000000001,0.022827148,-45.21374,-61.412212,96.25954399999999,2019-09-07 14:35:54,0.0
1046.0,-0.10113525400000001,0.022644043,0.021728516,-33.702290000000005,-52.52672,107.94656,2019-09-07 14:35:54,0.0
1047.0,-0.119018555,0.021850586,0.016174316,-33.84733,-50.038166,111.45801499999999,2019-09-07 14:35:54,0.0
1048.0,-0.1293335,0.008300781,0.015197753999999999,-37.206109999999995,-42.091602,110.63358999999998,2019-09-07 14:35:54,0.0
1049.0,-0.14971924,0.024414062,0.009216309,-47.793890000000005,-28.38168,103.32825,2019-09-07 14:35:54,0.0
1050.0,-0.13970947,0.013549805,0.005004883,-38.801525,-32.305344,104.80915999999999,2019-09-07 14:35:54,0.0
1051.0,-0.14459229,0.004272461,0.005493164,-18.442749,-41.007633,109.83206000000001,2019-09-07 14:35:54,0.0
1052.0,-0.14605713,0.0087890625,0.0026245116999999997,10.458015,-43.755726,116.65648999999999,2019-09-07 14:35:54,0.0
1053.0,-0.15478516,0.00048828125,-0.011291503999999999,25.534351,-47.068703,117.72519,2019-09-07 14:35:54,0.0
1054.0,-0.16357422,0.004333496,-0.006286621,58.633587,-44.0,105.56488999999999,2019-09-07 14:35:54,0.0
1055.0,-0.1352539,-0.0049438477,0.014770508,67.770996,-37.908398,84.51908,2019-09-07 14:35:54,0.0
1056.0,-0.14300537,-0.0032958984000000004,0.02545166,40.625954,-20.633587,52.778625,2019-09-07 14:35:54,0.0
1057.0,-0.12902832,0.018188476999999998,0.017150878999999997,16.404581,11.244275,10.450381,2019-09-07 14:35:54,0.0
1058.0,-0.13513184,0.030334472999999997,0.051574707000000004,-39.44275,30.42748,-30.099237,2019-09-07 14:35:54,0.0
1059.0,-0.0949707,0.014282227,0.02722168,-101.94655999999999,47.343509999999995,-55.908398,2019-09-07 14:35:54,0.0
1060.0,-0.12731934,0.0017089844000000001,0.024047852,-111.83968999999999,87.816795,-82.183205,2019-09-07 14:35:54,0.0
1061.0,-0.14581299,0.006591797,0.024780273,-126.67175,81.92367,-91.32825,2019-09-07 14:35:54,0.0
1062.0,-0.14337158,-0.011169433999999999,0.01159668,-95.183205,80.99235999999999,-92.74809,2019-09-07 14:35:54,0.0
1063.0,-0.13000488,-0.0073242188,0.015380858999999998,-31.984734000000003,66.70229,-82.25191,2019-09-07 14:35:54,0.0
1064.0,-0.14691162,-0.009155273,0.018798828,31.091602,58.687022999999996,-73.83206,2019-09-07 14:35:54,0.0
1065.0,-0.12701416,-0.014160156,0.016357422,78.16794,49.679390000000005,-69.58015400000001,2019-09-07 14:35:54,0.0
1066.0,-0.14038086,-0.006286621,0.022827148,97.16031,45.9771,-75.137405,2019-09-07 14:35:54,0.0
1067.0,-0.13903809,0.016540527,0.028381347999999997,91.31298000000001,42.404579999999996,-87.76335999999999,2019-09-07 14:35:54,0.0
1068.0,-0.12652588,0.026245117000000002,0.027648926,64.05344000000001,39.610687,-101.00764000000001,2019-09-07 14:35:54,0.0
1069.0,-0.13061523,0.03656006,0.020874023000000002,51.9771,43.343509999999995,-109.10687,2019-09-07 14:35:54,0.0
1070.0,-0.14349365,0.028442382999999998,0.021606445,34.91603,45.129771999999996,-110.99236,2019-09-07 14:35:54,0.0
1071.0,-0.13781738,0.024780273,0.03173828,25.541985,43.992367,-104.69466,2019-09-07 14:35:54,0.0
1072.0,-0.14227295,0.0037841796999999997,0.022216797000000003,18.557251,39.06107,-91.24428,2019-09-07 14:35:54,0.0
1073.0,-0.14672852,0.009216309,0.019592285,25.114504,36.580154,-78.19084000000001,2019-09-07 14:35:54,0.0
1074.0,-0.15032959,0.007507324,0.018920898000000002,26.473282,35.679390000000005,-66.770996,2019-09-07 14:35:54,0.0
1075.0,-0.15655518,0.026184082,0.01184082,27.358778000000004,22.480917,-52.076336,2019-09-07 14:35:54,0.0
1076.0,-0.1383667,0.022277832,0.006042480500000001,33.572517,17.87023,-36.900764,2019-09-07 14:35:54,0.0
1077.0,-0.14709473,0.034484863,-0.00018310547,28.442749,26.312977000000004,-26.61832,2019-09-07 14:35:54,0.0
1078.0,-0.17333984,0.041320800000000005,0.023254395,-4.1297708,29.045801,-23.419847,2019-09-07 14:35:54,0.0
1079.0,-0.14068604,0.045715332000000004,0.01928711,-35.16794,3.206107,-7.6793895,2019-09-07 14:35:54,0.0
1080.0,-0.14508057,0.0546875,0.01159668,-65.38931,41.778625,-0.14503817,2019-09-07 14:35:55,0.0
1081.0,-0.13574219,0.040649414,0.009643555,-104.96947,11.534351,21.038168,2019-09-07 14:35:55,0.0
1082.0,-0.14355469,0.029724121000000003,-0.0017089844000000001,-121.07633,-1.1908396,49.389313,2019-09-07 14:35:55,0.0
1083.0,-0.15301514,0.018798828,-0.0033569335999999996,-129.08397,-30.519083000000002,82.42748,2019-09-07 14:35:55,0.0
1084.0,-0.14624023,0.0036010741999999997,-0.0031738281,-126.89313,-47.374046,118.00764,2019-09-07 14:35:55,0.0
1085.0,-0.13153076,0.008056641,-0.005493164,-124.938934,-60.969467,142.12213,2019-09-07 14:35:55,0.0
1086.0,-0.14916992,0.011230469,-0.0052490233999999995,-127.87023,-68.67175,160.49618999999998,2019-09-07 14:35:55,0.0
1087.0,-0.16662598,0.01776123,-0.0038452148,-124.46565,-74.0687,172.75572,2019-09-07 14:35:55,0.0
1088.0,-0.16278076,0.021057128999999997,-0.009338379,-109.62595,-80.25191,180.48856,2019-09-07 14:35:55,0.0
1089.0,-0.16369629,0.0068359375,-0.004028320300000001,-96.70229,-73.92367,174.98473,2019-09-07 14:35:55,0.0
1090.0,-0.15209961,-0.0043945312,-0.0010375977,-91.03053,-63.71755600000001,162.87787,2019-09-07 14:35:55,0.0
1091.0,-0.17047119,0.016723633,0.0016479492000000002,-79.69466,-58.725190000000005,149.60306,2019-09-07 14:35:55,0.0
1092.0,-0.15588379,-0.001159668,-0.013305663999999998,-56.290077000000004,-57.71755600000001,133.35115,2019-09-07 14:35:55,0.0
1093.0,-0.1359253,-0.0028686523,-0.014831543,-8.534351,-56.801525,115.33588,2019-09-07 14:35:55,0.0
1094.0,-0.13336182,-0.006042480500000001,-0.013244628999999999,31.801527,-36.82443,78.01527,2019-09-07 14:35:55,0.0
1095.0,-0.14239502,0.014221191000000001,0.0020141601999999997,46.694656,-24.099237,30.67939,2019-09-07 14:35:55,0.0
1096.0,-0.12530518,0.008239746,0.006713866999999999,34.717556,-6.9160304,-14.053435,2019-09-07 14:35:55,0.0
1097.0,-0.1303711,0.015014648,0.002746582,6.5419846,20.167938,-60.21374,2019-09-07 14:35:55,0.0
1098.0,-0.15112305,0.030273438,0.016113281,-25.564885999999998,44.12214,-105.1145,2019-09-07 14:35:55,0.0
1099.0,-0.14520264,0.004333496,0.022644043,-78.72519,60.62595400000001,-123.50381499999999,2019-09-07 14:35:55,0.0
1100.0,-0.1295166,-0.026855469,0.023620605,-88.62595,95.496185,-141.39694,2019-09-07 14:35:55,0.0
1101.0,-0.144104,-0.009338379,0.024475097999999997,-69.9771,98.51145,-132.00763,2019-09-07 14:35:55,0.0
1102.0,-0.13848877,0.0073242188,0.013977051,-33.137405,95.79389,-119.96183,2019-09-07 14:35:55,0.0
1103.0,-0.12609863,-0.030273438,0.00036621094,24.862595000000002,76.458015,-101.34351,2019-09-07 14:35:55,0.0
1104.0,-0.15917969,0.0028076171999999997,0.0045776367,85.52672,52.290077000000004,-83.25954399999999,2019-09-07 14:35:55,0.0
1105.0,-0.14123535,-0.016479492,0.008178711,121.16793999999999,30.610687,-73.541985,2019-09-07 14:35:55,0.0
1106.0,-0.11767578,-0.023742676,0.010070800999999999,148.51144,21.42748,-71.03053,2019-09-07 14:35:55,0.0
1107.0,-0.14587402,0.00592041,0.016906738,152.83206,10.801527,-76.96183,2019-09-07 14:35:55,0.0
1108.0,-0.13183594,0.008361816,0.019348145,118.30533999999999,19.877863,-90.07633,2019-09-07 14:35:55,0.0
1109.0,-0.14343262,0.031677246,0.022338867000000002,83.34351,32.320609999999995,-107.938934,2019-09-07 14:35:55,0.0
1110.0,-0.12469482400000001,0.039733887,0.019714355,49.687022999999996,37.320609999999995,-120.20611000000001,2019-09-07 14:35:55,0.0
1111.0,-0.14068604,0.030456543,0.02532959,22.908398000000002,45.93893,-125.01527,2019-09-07 14:35:55,0.0
1112.0,-0.14324951,0.026000977,0.02355957,9.21374,51.251907,-117.938934,2019-09-07 14:35:55,0.0
1113.0,-0.1352539,0.017150878999999997,0.01928711,14.473282999999999,57.076336,-103.92367,2019-09-07 14:35:55,0.0
1114.0,-0.13146973,0.028320312,0.022277832,8.267176,55.30534399999999,-80.91603,2019-09-07 14:35:55,0.0
1115.0,-0.13171387,0.01550293,0.02154541,12.106871,34.137405,-45.702290000000005,2019-09-07 14:35:55,0.0
1116.0,-0.14379883,0.02178955,0.006958008000000001,28.458015000000003,28.389313,-16.335878,2019-09-07 14:35:55,0.0
1117.0,-0.13189697,0.020996094,0.009643555,20.229008,21.190839999999998,17.656488,2019-09-07 14:35:56,0.0
1118.0,-0.17834473,0.02154541,0.01763916,20.61832,2.3435113,38.160305,2019-09-07 14:35:56,0.0
1119.0,-0.14892578,0.027770996000000003,0.021057128999999997,4.7251905999999995,-25.236639999999998,58.106869999999994,2019-09-07 14:35:56,0.0
1120.0,-0.1459961,0.026245117000000002,0.014953613000000001,-19.114504,-6.557252,61.435116,2019-09-07 14:35:56,0.0
1121.0,-0.1665039,0.028442382999999998,0.005493164,-58.221375,-19.610687,69.381676,2019-09-07 14:35:56,0.0
1122.0,-0.15606689999999998,0.017150878999999997,-0.008422852,-94.12214,-40.221375,81.31298000000001,2019-09-07 14:35:56,0.0
1123.0,-0.15063477,0.011474608999999998,-0.009338379,-112.56488999999999,-49.458015,93.25191,2019-09-07 14:35:56,0.0
1124.0,-0.13262939999999998,0.010925293,-0.001953125,-114.27481,-52.55725,105.44275,2019-09-07 14:35:56,0.0
1125.0,-0.12261963,0.006958008000000001,0.003112793,-110.900764,-48.641220000000004,120.37405,2019-09-07 14:35:56,0.0
1126.0,-0.15270996,0.0015258789000000001,0.0016479492000000002,-98.32825,-47.671757,131.1145,2019-09-07 14:35:56,0.0
1127.0,-0.14428711,0.0029296875,-0.0024414061999999998,-77.221375,-51.74046,141.31297,2019-09-07 14:35:56,0.0
1128.0,-0.15112305,0.014465332,-0.0028076171999999997,-61.18320500000001,-54.76336,147.44275,2019-09-07 14:35:56,0.0
1129.0,-0.15673828,0.018676758,-0.00390625,-55.389313,-49.08397,142.94656,2019-09-07 14:35:56,0.0
1130.0,-0.14416504,0.016479492,0.0022583008,-58.47328,-46.51145,132.96184,2019-09-07 14:35:56,0.0
1131.0,-0.14349365,-0.013977051,-0.005432129,-74.824425,-50.709922999999996,119.41984599999999,2019-09-07 14:35:56,0.0
1132.0,-0.14483643,-0.009399414,-0.008361816,-41.08397,-52.969467,103.30534,2019-09-07 14:35:56,0.0
1133.0,-0.13769531,-0.01776123,-0.0099487305,-0.5801527,-41.435116,75.87786,2019-09-07 14:35:56,0.0
1134.0,-0.12908936,-0.011169433999999999,0.0007934570299999999,38.076336,-24.38168,37.702290000000005,2019-09-07 14:35:56,0.0
1135.0,-0.14831543,0.011169433999999999,0.008178711,45.091602,-16.122137,-1.6641221000000002,2019-09-07 14:35:56,0.0
1136.0,-0.12988281,0.0064697266000000005,0.0006103515599999999,49.053436,1.2290076,-42.374046,2019-09-07 14:35:56,0.0
1137.0,-0.13336182,0.011352538999999998,0.0061035156000000005,36.76336,26.587785999999998,-85.9313,2019-09-07 14:35:56,0.0
1138.0,-0.1352539,0.024108887000000002,0.012756348,-1.8091604,33.55725,-111.66412,2019-09-07 14:35:56,0.0
1139.0,-0.14611816,-0.007507324,0.018005371000000003,-35.625954,72.33588,-143.19847,2019-09-07 14:35:56,0.0
1140.0,-0.15625,0.0009765625,0.03491211,-47.297709999999995,75.58015400000001,-144.18321,2019-09-07 14:35:56,0.0
1141.0,-0.1281128,-0.013671875,0.008544922,-37.85496,81.03817,-136.83969,2019-09-07 14:35:56,0.0
1142.0,-0.14398193,-0.011291503999999999,-0.0034179688000000002,4.9389315,73.83969,-121.45038000000001,2019-09-07 14:35:56,0.0
1143.0,-0.14904785,-0.007507324,-0.004272461,47.450382,53.099236,-97.9542,2019-09-07 14:35:56,0.0
1144.0,-0.11987305,-0.030517577999999997,-0.0073242188,83.35878000000001,33.473279999999995,-82.89313,2019-09-07 14:35:56,0.0
1145.0,-0.12554932,0.0037231445,0.0025024414000000004,119.29008,25.442749,-71.92367,2019-09-07 14:35:56,0.0
1146.0,-0.14050293,-0.014526367,0.0063476562,133.1374,16.389313,-69.29008,2019-09-07 14:35:56,0.0
1147.0,-0.11669922,0.017028809,0.0067749023,120.778625,13.206107000000001,-77.16031,2019-09-07 14:35:56,0.0
1148.0,-0.13470459,0.03955078,0.005737304699999999,100.76335999999999,20.61832,-89.21374,2019-09-07 14:35:56,0.0
1149.0,-0.13598633,0.04168701,0.008850098,63.320609999999995,29.183207,-104.84733,2019-09-07 14:35:56,0.0
1150.0,-0.15527344,0.03479004,0.021240234,25.687023,37.06107,-112.38931000000001,2019-09-07 14:35:56,0.0
1151.0,-0.12591553,0.023620605,0.024353027000000003,-1.70229,49.664124,-113.96183,2019-09-07 14:35:56,0.0
1152.0,-0.14086914,0.012573242,0.024475097999999997,-15.091603,61.83206,-106.778625,2019-09-07 14:35:57,0.0
1153.0,-0.14172363,0.006713866999999999,0.017089844,-19.702289999999998,75.63359,-97.80915999999999,2019-09-07 14:35:57,0.0
1154.0,-0.15338135,0.022644043,0.013427733999999998,-25.57252,63.114502,-79.64121999999999,2019-09-07 14:35:57,0.0
1155.0,-0.15740967,0.030822753999999997,0.007507324,-29.022902000000002,58.137405,-52.297709999999995,2019-09-07 14:35:57,0.0
1156.0,-0.17626953,0.03564453,0.012268066000000001,-43.78626,47.946564,-25.580153,2019-09-07 14:35:57,0.0
1157.0,-0.17541504,0.025390625,0.029785156,-49.923664,1.7633588,19.404581,2019-09-07 14:35:57,0.0
1158.0,-0.13635254,-0.005737304699999999,0.026367188,-35.17557,-39.435116,64.96183,2019-09-07 14:35:57,0.0
1159.0,-0.12524414,0.0075683593999999995,0.01159668,-25.557251,-25.221375,92.62595,2019-09-07 14:35:57,0.0
1160.0,-0.14556885,0.013183594,0.0026245116999999997,-34.381679999999996,-53.572517000000005,122.68701999999999,2019-09-07 14:35:57,0.0
1161.0,-0.15350342,-0.0008544922000000001,-0.004211426,-59.49618,-93.62595,150.9771,2019-09-07 14:35:57,0.0
1162.0,-0.14855957,0.009887695,-0.010192871,-87.503815,-102.23664000000001,163.52671999999998,2019-09-07 14:35:57,0.0
1163.0,-0.14440918,0.024536132999999998,-0.0052490233999999995,-117.14503500000001,-110.60305,167.56488000000002,2019-09-07 14:35:57,0.0
1164.0,-0.14794922,-0.008056641,-0.0048217773,-133.33588,-109.48092,167.12213,2019-09-07 14:35:57,0.0
1165.0,-0.14923096,-0.005554199,0.00018310547,-123.74045600000001,-102.908394,164.36641,2019-09-07 14:35:57,0.0
1166.0,-0.13684082,-0.0026245116999999997,0.0048828125,-90.20611,-89.80153,156.32062,2019-09-07 14:35:57,0.0
1167.0,-0.14733887,-0.008117675999999999,0.008056641,-56.23664,-69.938934,146.66412,2019-09-07 14:35:57,0.0
1168.0,-0.11968994,-0.0048217773,-0.0044555664,-39.251907,-54.992367,130.28243999999998,2019-09-07 14:35:57,0.0
1169.0,-0.14117432,0.0008544922000000001,-0.0037841796999999997,-35.183205,-44.84733,113.32825,2019-09-07 14:35:57,0.0
1170.0,-0.14379883,0.0032958984000000004,-0.014160156,-38.190838,-47.274809999999995,96.39695,2019-09-07 14:35:57,0.0
1171.0,-0.13043213,0.0017089844000000001,-0.010925293,-15.893129,-46.648853,75.07633,2019-09-07 14:35:57,0.0
1172.0,-0.12445068,-0.018798828,-0.0029907227,6.7557254,-36.595420000000004,51.10687,2019-09-07 14:35:57,0.0
1173.0,-0.1519165,0.0020751953,-0.0010986328,29.91603,-16.564885999999998,16.0,2019-09-07 14:35:57,0.0
1174.0,-0.14129639,0.005004883,0.0067749023,31.267176,-5.1984735,-12.78626,2019-09-07 14:35:57,0.0
1175.0,-0.1430664,0.004760742,-0.008911133,37.55725,20.267176,-49.068703,2019-09-07 14:35:57,0.0
1176.0,-0.15606689999999998,0.018432617,0.009277344,23.770992,38.85496,-84.778625,2019-09-07 14:35:57,0.0
1177.0,-0.14636229999999997,0.0071411133,0.020568848,-0.9694656999999999,71.89313,-109.0229,2019-09-07 14:35:57,0.0
1178.0,-0.1282959,0.006164551,0.02960205,-19.519083,90.84733,-129.16794,2019-09-07 14:35:57,0.0
1179.0,-0.14666748,0.0146484375,0.029907227,-20.206106,103.62595,-130.08397,2019-09-07 14:35:57,0.0
1180.0,-0.12945557,-0.020874023000000002,0.013122558999999999,-14.549619,110.175575,-127.70228999999999,2019-09-07 14:35:57,0.0
1181.0,-0.14050293,-0.010559082,0.009887695,11.824428,95.07633,-117.78626000000001,2019-09-07 14:35:57,0.0
1182.0,-0.14630127,-0.009887695,0.005859375,34.55725,79.35878000000001,-104.79389,2019-09-07 14:35:57,0.0
1183.0,-0.14562988,-0.0134887695,0.009765625,50.755726,62.045803,-98.29771,2019-09-07 14:35:57,0.0
1184.0,-0.13964844,-0.014404297,0.0107421875,72.67175,55.709922999999996,-98.20611,2019-09-07 14:35:57,0.0
1185.0,-0.13745117,0.0014648438,0.018981934,73.48855,51.83206,-102.32061,2019-09-07 14:35:57,0.0
1186.0,-0.15130615,0.023254395,0.02178955,62.549618,54.61832,-114.80916,2019-09-07 14:35:57,0.0
1187.0,-0.14971924,0.024841309,0.0211792,47.91603,58.38168,-123.41221999999999,2019-09-07 14:35:58,0.0
1188.0,-0.14465332,0.027526855,0.022644043,29.38168,60.17556999999999,-125.42748,2019-09-07 14:35:58,0.0
1189.0,-0.15924072,0.017028809,0.027648926,12.122137,61.007633,-118.34351000000001,2019-09-07 14:35:58,0.0
1190.0,-0.12927246,0.02508545,0.032409667999999996,3.038168,50.656490000000005,-100.51908,2019-09-07 14:35:58,0.0
1191.0,-0.12200928,0.022583007999999998,0.02178955,0.5038168,52.335876,-78.27481,2019-09-07 14:35:58,0.0
1192.0,-0.14715576,0.022460938,0.022644043,-6.862595599999999,40.816795,-51.412212,2019-09-07 14:35:58,0.0
1193.0,-0.15808105,0.043273926,0.005981445300000001,-8.496183,18.816793,-19.38168,2019-09-07 14:35:58,0.0
1194.0,-0.17077637,0.032470703,0.008972168,-1.5343511,2.4198472,16.503817,2019-09-07 14:35:58,0.0
1195.0,-0.16412354,0.008178711,0.010131836,-12.061069,-10.534351,46.267174,2019-09-07 14:35:58,0.0
1196.0,-0.15679932,0.018127441,0.025817871000000003,-11.007633,-47.496179999999995,78.0,2019-09-07 14:35:58,0.0
1197.0,-0.13092041,0.0029907227,0.015075683999999999,-8.511451,-52.755726,99.496185,2019-09-07 14:35:58,0.0
1198.0,-0.14721679999999998,0.022827148,0.006591797,-15.21374,-45.770992,111.26717,2019-09-07 14:35:58,0.0
1199.0,-0.16192627,0.021850586,-0.008728027,-56.0229,-70.61069,123.72519,2019-09-07 14:35:58,0.0
1200.0,-0.15856934,0.019897461,-0.00970459,-94.25191,-95.08397,135.24428,2019-09-07 14:35:58,0.0
1201.0,-0.14929199,-0.0053100586,-0.011230469,-108.64886000000001,-94.099236,139.21375,2019-09-07 14:35:58,0.0
1202.0,-0.15197754,-0.0018310547,-0.005859375,-99.145035,-93.80915999999999,139.16794,2019-09-07 14:35:58,0.0
1203.0,-0.14666748,-0.0028686523,-0.004333496,-80.770996,-82.47328,143.61831999999998,2019-09-07 14:35:58,0.0
1204.0,-0.16619873,0.009399414,0.0009765625,-51.85496,-74.32061,145.26718,2019-09-07 14:35:58,0.0
1205.0,-0.14324951,0.006713866999999999,0.0020141601999999997,-24.977098,-63.206109999999995,144.27481,2019-09-07 14:35:58,0.0
1206.0,-0.16564941,0.009338379,0.0010986328,-18.862595000000002,-50.793890000000005,138.9313,2019-09-07 14:35:58,0.0
1207.0,-0.14422607,0.00982666,0.00048828125,-25.61832,-42.992367,126.50381499999999,2019-09-07 14:35:58,0.0
1208.0,-0.14605713,-0.006591797,0.0007934570299999999,-37.595420000000004,-40.694656,116.96183,2019-09-07 14:35:58,0.0
1209.0,-0.11560058599999999,-0.0026245116999999997,0.005737304699999999,-47.450382,-35.541985,104.458015,2019-09-07 14:35:58,0.0
1210.0,-0.12963867,-0.0064086914,0.0018310547,-53.587788,-28.038168,89.98473,2019-09-07 14:35:58,0.0
1211.0,-0.14318848,0.0026855469,0.00091552734,-49.435116,-14.419847500000001,69.73283,2019-09-07 14:35:58,0.0
1212.0,-0.13665771,-0.016540527,0.012145996000000001,-48.870228000000004,-4.0,42.015266,2019-09-07 14:35:58,0.0
1213.0,-0.12231445,-0.006164551,0.020751953,-50.366413,10.045800999999999,11.312977,2019-09-07 14:35:58,0.0
1214.0,-0.117004395,-0.0056152343999999995,0.016967773000000002,-35.587788,25.282442,-20.282442,2019-09-07 14:35:58,0.0
1215.0,-0.13537598,-0.018493652,0.012817383,-4.3129773,50.015266,-56.53435,2019-09-07 14:35:58,0.0
1216.0,-0.12249756,-0.018615723,0.02368164,14.801526999999998,41.633587,-75.70992,2019-09-07 14:35:58,0.0
1217.0,-0.15051270000000003,-0.0075683593999999995,0.021911621000000003,38.778625,70.23664000000001,-110.68701999999999,2019-09-07 14:35:58,0.0
1218.0,-0.14636229999999997,-0.008239746,0.018127441,62.320609999999995,70.79389,-135.22899999999998,2019-09-07 14:35:58,0.0
1219.0,-0.13214111,-0.005737304699999999,0.022460938,65.60305,68.74809,-149.71756000000002,2019-09-07 14:35:58,0.0
1220.0,-0.14776611,0.0032348633000000003,0.006713866999999999,88.0687,66.0229,-157.47328000000002,2019-09-07 14:35:58,0.0
1221.0,-0.13940429999999998,0.00048828125,0.0012817383,105.03053,53.725190000000005,-152.43511999999998,2019-09-07 14:35:58,0.0
1222.0,-0.14080810000000002,-0.00036621094,0.0067749023,113.96947,34.732826,-138.3435,2019-09-07 14:35:58,0.0
1223.0,-0.14953613,-0.0063476562,0.002746582,130.48856,23.969465,-124.98473,2019-09-07 14:35:58,0.0
1224.0,-0.14459229,-0.010070800999999999,0.004333496,133.3435,26.816793,-113.54961999999999,2019-09-07 14:35:59,0.0
1225.0,-0.14257812,0.01739502,0.005554199,119.229004,22.809160000000002,-108.98473,2019-09-07 14:35:59,0.0
1226.0,-0.14569092,0.020019531,0.006042480500000001,100.541985,20.847328,-110.44275,2019-09-07 14:35:59,0.0
1227.0,-0.14300537,0.032043457000000004,0.004028320300000001,71.061066,27.801527,-114.381676,2019-09-07 14:35:59,0.0
1228.0,-0.15252686,0.019958496000000003,0.006286621,38.206109999999995,29.404581,-116.50381499999999,2019-09-07 14:35:59,0.0
1229.0,-0.16503906,0.007873535,0.014892578,24.931297,39.519085,-113.08397,2019-09-07 14:35:59,0.0
1230.0,-0.14196777,0.023986816,0.01586914,27.900763,42.274809999999995,-101.41221999999999,2019-09-07 14:35:59,0.0
1231.0,-0.12982178,0.011474608999999998,0.01373291,39.320609999999995,45.91603,-87.89313,2019-09-07 14:35:59,0.0
1232.0,-0.14880371,0.041625977,0.010681152,50.526720000000005,43.25954,-73.44275,2019-09-07 14:35:59,0.0
1233.0,-0.13555908,0.022949219,0.0075683593999999995,50.770992,27.740458,-49.091602,2019-09-07 14:35:59,0.0
1234.0,-0.13964844,0.03741455,0.008605957,50.25954,18.832062,-23.977098,2019-09-07 14:35:59,0.0
1235.0,-0.1609497,0.024902344,0.0056152343999999995,33.48855,18.694656,3.8167940000000002,2019-09-07 14:35:59,0.0
1236.0,-0.14398193,0.03491211,0.013671875,18.816793,14.519084,28.610687,2019-09-07 14:35:59,0.0
1237.0,-0.13745117,0.013122558999999999,0.027526855,11.251908,-4.7938933,57.62595400000001,2019-09-07 14:35:59,0.0
1238.0,-0.13293457,0.02734375,0.017700195,-6.5419846,9.610686999999999,73.816795,2019-09-07 14:35:59,0.0
1239.0,-0.15118408,0.029785156,0.012756348,-34.618320000000004,2.2824428,83.05344000000001,2019-09-07 14:35:59,0.0
1240.0,-0.15374756,0.029724121000000003,0.018066406,-82.183205,-15.366412,93.80153,2019-09-07 14:35:59,0.0
1241.0,-0.13458252,0.013305663999999998,0.00793457,-108.64886000000001,-28.244274,103.79389,2019-09-07 14:35:59,0.0
1242.0,-0.12664795,0.0115356445,-0.0015869141,-121.15267,-34.862595,113.89313,2019-09-07 14:35:59,0.0
1243.0,-0.1449585,0.0015869141,-0.0018310547,-122.64121999999999,-35.427483,121.24428,2019-09-07 14:35:59,0.0
1244.0,-0.14770508,-0.008178711,0.011047363000000001,-123.08397,-33.038166,124.83968999999999,2019-09-07 14:35:59,0.0
1245.0,-0.13946533,-0.00091552734,0.0024414061999999998,-106.80153,-37.946564,125.15267,2019-09-07 14:35:59,0.0
1246.0,-0.1449585,-0.0115356445,0.00793457,-97.53435,-33.82443,125.221375,2019-09-07 14:35:59,0.0
1247.0,-0.13562012,-0.004272461,0.007019043000000001,-83.43511,-31.816793,117.62595,2019-09-07 14:35:59,0.0
1248.0,-0.13458252,-0.009277344,0.004211426,-76.1145,-36.78626,110.36641000000002,2019-09-07 14:35:59,0.0
1249.0,-0.14465332,-0.0064086914,0.0037231445,-75.900764,-37.473279999999995,102.0,2019-09-07 14:35:59,0.0
1250.0,-0.14013672,-0.010009766,0.0006713867,-65.33588,-37.946564,91.67939,2019-09-07 14:35:59,0.0
1251.0,-0.14135742,-0.00982666,-0.0026245116999999997,-59.633587,-35.114502,81.183205,2019-09-07 14:35:59,0.0
1252.0,-0.14703369,-0.0071411133,0.0022583008,-44.84733,-27.564885999999998,65.84733,2019-09-07 14:35:59,0.0
1253.0,-0.15582275,0.00012207031000000001,0.001159668,-20.641222,-19.229008,46.427483,2019-09-07 14:35:59,0.0
1254.0,-0.15948486,0.005676269499999999,0.008239746,-4.152672,-10.290076,23.335878,2019-09-07 14:35:59,0.0
1255.0,-0.13726807,-0.011047363000000001,0.015991211,2.5419848,1.9312977,-1.9389313000000001,2019-09-07 14:35:59,0.0
1256.0,-0.13330078,-0.007019043000000001,0.010437011999999999,21.236639999999998,18.076335999999998,-31.23664,2019-09-07 14:35:59,0.0
1257.0,-0.14776611,0.008972168,0.013366699,18.809160000000002,25.366413,-52.160305,2019-09-07 14:35:59,0.0
1258.0,-0.12506104,0.01373291,0.019897461,14.129771,38.82443,-72.69466,2019-09-07 14:35:59,0.0
1259.0,-0.13897705,0.0034790040000000004,0.024902344,22.587785999999998,41.08397,-85.46565,2019-09-07 14:36:00,0.0
1260.0,-0.13494873,0.0022583008,0.021728516,24.114504,52.0229,-91.29771,2019-09-07 14:36:00,0.0
1261.0,-0.14758301,-0.00982666,0.016540527,32.954197,46.83206,-91.19084000000001,2019-09-07 14:36:00,0.0
1262.0,-0.1538086,-0.0006103515599999999,0.008178711,45.908398,43.419846,-90.770996,2019-09-07 14:36:00,0.0
1263.0,-0.15350342,0.01171875,0.010681152,56.664124,27.259542,-84.12977,2019-09-07 14:36:00,0.0
1264.0,-0.14129639,0.014465332,0.010803223,73.41984599999999,22.114504,-74.229004,2019-09-07 14:36:00,0.0
1265.0,-0.1317749,-0.007507324,0.008239746,95.099236,17.328245000000003,-69.41984599999999,2019-09-07 14:36:00,0.0
1266.0,-0.12506104,-0.015075683999999999,0.012451172,95.80153,20.625954,-70.46565,2019-09-07 14:36:00,0.0
1267.0,-0.12872314,0.008728027,0.012023926,89.44275,24.526718,-80.47328,2019-09-07 14:36:00,0.0
1268.0,-0.14562988,0.018249512,0.010864258,76.57252,30.32061,-94.221375,2019-09-07 14:36:00,0.0
1269.0,-0.12725830000000002,0.034301757999999995,0.005432129,47.503820000000005,41.374046,-112.30533999999999,2019-09-07 14:36:00,0.0
1270.0,-0.14428711,0.019348145,0.013916016000000002,32.992367,48.801525,-128.36641,2019-09-07 14:36:00,0.0
1271.0,-0.1352539,0.0072631836,0.009460449000000001,27.496183000000002,51.793890000000005,-131.1145,2019-09-07 14:36:00,0.0
1272.0,-0.13427734,0.0178833,0.012329102,27.656488,56.083969999999994,-125.75572,2019-09-07 14:36:00,0.0
1273.0,-0.14764404,0.03125,0.010620117,24.91603,59.908398,-109.05344,2019-09-07 14:36:00,0.0
1274.0,-0.15551758,0.037231445,0.01586914,18.57252,55.549618,-88.51908,2019-09-07 14:36:00,0.0
1275.0,-0.13317871,0.030822753999999997,0.018249512,3.351145,48.610687,-59.083969999999994,2019-09-07 14:36:00,0.0
1276.0,-0.15112305,0.028137207,0.017028809,-16.656488,50.725190000000005,-28.244274,2019-09-07 14:36:00,0.0
1277.0,-0.13330078,0.018371582,0.025756836,-62.603054,-9.358779,47.702290000000005,2019-09-07 14:36:00,0.0
1278.0,-0.14624023,0.032836914,0.019226074,-83.24428,-18.89313,62.274809999999995,2019-09-07 14:36:00,0.0
1279.0,-0.13220215,0.008056641,0.008666992,-113.57252,-51.687022999999996,78.43511,2019-09-07 14:36:00,0.0
1280.0,-0.13879395,0.0032348633000000003,0.008850098,-126.72519,-76.99235999999999,93.80915999999999,2019-09-07 14:36:00,0.0
1281.0,-0.13323975,-0.021484375,-0.0017089844000000001,-139.7481,-91.92367,104.53435,2019-09-07 14:36:00,0.0
1282.0,-0.1439209,-0.010620117,0.0006713867,-133.98473,-101.503815,112.59541999999999,2019-09-07 14:36:00,0.0
1283.0,-0.128479,-0.026428222999999997,-0.0030517578000000003,-112.30533999999999,-103.20611,117.36641000000002,2019-09-07 14:36:00,0.0
1284.0,-0.15606689999999998,-0.0014038085999999999,0.0022583008,-78.39695,-102.9542,117.61068999999999,2019-09-07 14:36:00,0.0
