measurement,Acc_X,Acc_Y,Acc_Z,Gyr_X,Gyr_Y,Gyr_Z,Time(hh:mm:ss),Label
313.0,-0.043945312,-0.04901123,0.099609375,0.19847329,17.778625,-61.77099200000001,2019-09-02 23:19:36,0.0
314.0,-0.041015625,-0.04034424,0.07531738,-7.70229,1.7099236,-76.69466,2019-09-02 23:19:36,0.0
315.0,-0.04901123,-0.025146484,0.06109619,-13.267176000000001,-3.4885497,-98.25954399999999,2019-09-02 23:19:36,0.0
316.0,-0.041809082000000004,-0.028930664,0.06298828,-19.167938,-10.870229,-126.75572,2019-09-02 23:19:36,0.0
317.0,-0.021606445,-0.049621582000000004,0.07702637,-27.977097999999998,-31.709923,-161.32062,2019-09-02 23:19:36,0.0
318.0,0.014770508,-0.05444336,0.06439209,-43.656490000000005,-69.51145,-226.54199,2019-09-02 23:19:36,0.0
319.0,0.052490234000000004,-0.115112305,0.08087158,-66.381676,-71.770996,-222.96184,2019-09-02 23:19:36,0.0
320.0,0.06890869,-0.15576172,0.07196045,-14.2213745,-86.12214,-226.12212999999997,2019-09-02 23:19:36,0.0
321.0,0.06762695,-0.09039307,0.08172607400000001,2.4351146,-83.80153,-220.80152999999999,2019-09-02 23:19:36,0.0
322.0,0.06726074,-0.09503174,0.06854248,-80.76335999999999,-116.05344,-151.70993,2019-09-02 23:19:36,0.0
323.0,0.08044433599999999,-0.14782715,0.06024169999999999,-81.69466,-97.16031,-123.87023,2019-09-02 23:19:36,0.0
324.0,0.07641601599999999,-0.12805176,0.06048584,-14.9007635,-96.221375,-127.40458000000001,2019-09-02 23:19:36,0.0
325.0,0.08880615,-0.10723877,0.056762695,27.740458,-123.29771000000001,-122.64886000000001,2019-09-02 23:19:36,0.0
326.0,0.09924316400000001,-0.09637451,0.03717041,65.618324,-111.79388999999999,-124.84733,2019-09-02 23:19:36,0.0
327.0,0.10369873,-0.08087158,0.042907715,93.12214,-75.29771,-122.778625,2019-09-02 23:19:36,0.0
328.0,0.08532715,-0.07342529,0.039978027,115.35878000000001,-80.25954399999999,-124.58015400000001,2019-09-02 23:19:36,0.0
329.0,0.09918213,-0.055358887,0.04046631,131.74046,-84.12977,-128.0687,2019-09-02 23:19:36,0.0
330.0,0.10620117,-0.03643799,0.038879395,104.52672,-84.229004,-125.0229,2019-09-02 23:19:36,0.0
331.0,0.114746094,-0.032836914,0.03491211,52.84733000000001,-72.07633,-110.68701999999999,2019-09-02 23:19:36,0.0
332.0,0.1281128,-0.027709961,0.03540039,-2.519084,-62.17556999999999,-90.98473,2019-09-02 23:19:36,0.0
333.0,0.13269043,-0.024658202999999997,0.029907227,-46.10687,-44.969467,-65.87023,2019-09-02 23:19:36,0.0
334.0,0.13482666,-0.02923584,0.03479004,-70.32061,-25.312977,-41.900764,2019-09-02 23:19:36,0.0
335.0,0.13305664,-0.040893555,0.029785156,-69.137405,-17.145039,-19.992367,2019-09-02 23:19:36,0.0
336.0,0.12609863,-0.033996582000000004,0.045654297,-52.137405,-4.633588,0.259542,2019-09-02 23:19:36,0.0
337.0,0.13049316,-0.0390625,0.040893555,-18.816793,-8.824428,14.961832000000001,2019-09-02 23:19:36,0.0
338.0,0.1494751,-0.043762207000000004,0.042053223,18.687023,-27.725191,15.541985,2019-09-02 23:19:36,0.0
339.0,0.16186523,-0.015136719,0.034057617000000005,42.946564,-26.70229,7.9160304,2019-09-02 23:19:36,0.0
340.0,0.15997314,-0.008361816,0.021972656,36.458015,18.267176,1.221374,2019-09-02 23:19:36,0.0
341.0,0.14019775,-0.00579834,0.037719727,-2.0458016,35.709922999999996,2.167939,2019-09-02 23:19:36,0.0
342.0,0.14440918,-0.007507324,0.035339355,-32.664124,2.9694657,-0.9389313,2019-09-02 23:19:36,0.0
343.0,0.16247559,-0.011108398,0.02923584,-56.137405,3.5190839999999994,-10.748092,2019-09-02 23:19:36,0.0
344.0,0.12072754,-0.012939453,0.028137207,-76.66412,98.87786,-8.274809,2019-09-02 23:19:36,0.0
345.0,0.06286621,-0.012512207,0.043823242000000005,-98.66412,96.66412,1.9541985,2019-09-02 23:19:36,0.0
346.0,0.0769043,-0.034301757999999995,0.0501709,-84.52672,2.8931298,22.847328,2019-09-02 23:19:36,0.0
347.0,0.12548828,-0.036132812,0.02520752,-51.229008,-24.282442,31.465649,2019-09-02 23:19:36,0.0
348.0,0.14379883,-0.04711914,0.030517577999999997,-42.793890000000005,37.564884,45.541985,2019-09-02 23:19:36,0.0
349.0,0.12823486,-0.047668457000000004,0.023742676,-55.916030000000006,54.351147,65.229004,2019-09-02 23:19:36,0.0
350.0,0.12384033,-0.061706542999999996,0.01739502,-65.70992,55.62595400000001,90.03817,2019-09-02 23:19:37,0.0
351.0,0.115234375,-0.06365967,0.028625487999999998,-75.65649,57.541985,106.74045600000001,2019-09-02 23:19:37,0.0
352.0,0.10491943,-0.07141113,0.030578612999999998,-86.73283,57.48855,118.099236,2019-09-02 23:19:37,0.0
353.0,0.09826660000000001,-0.0871582,0.027709961,-90.16794,54.389313,129.8855,2019-09-02 23:19:37,0.0
354.0,0.09411621,-0.097473145,0.031982422,-90.42748,46.320609999999995,143.49618999999998,2019-09-02 23:19:37,0.0
355.0,0.080200195,-0.10003662,0.022338867000000002,-85.23664000000001,31.610687,154.98473,2019-09-02 23:19:37,0.0
356.0,0.064453125,-0.10485839999999998,0.026855469,-67.56489,21.099237,157.45801,2019-09-02 23:19:37,0.0
357.0,0.06188965,-0.11621094,0.037109375,-58.0,14.290076000000001,161.87787,2019-09-02 23:19:37,0.0
358.0,0.054260254,-0.13031006,0.028991700000000002,-49.137405,-2.8931298,165.61068999999998,2019-09-02 23:19:37,0.0
359.0,0.041748047,-0.11761474599999999,0.028381347999999997,-44.23664,-21.778625,161.62596000000002,2019-09-02 23:19:37,0.0
360.0,0.036865234,-0.12988281,0.023071289,-62.969467,-42.526720000000005,159.58778,2019-09-02 23:19:37,0.0
361.0,0.03717041,-0.14343262,0.028564452999999997,-56.0229,-54.30534399999999,143.77100000000002,2019-09-02 23:19:37,0.0
362.0,0.03765869,-0.14422607,0.029785156,-45.389313,-73.67939,122.84733,2019-09-02 23:19:37,0.0
363.0,0.028503418,-0.12945557,0.016845703,-43.801525,-65.28244000000001,101.98473,2019-09-02 23:19:37,0.0
364.0,0.028442382999999998,-0.13104248,0.012939453,-41.129771999999996,-58.78626,77.07633,2019-09-02 23:19:37,0.0
365.0,0.026062012000000002,-0.13250732,0.015380858999999998,-50.23664,-65.89313,54.16030500000001,2019-09-02 23:19:37,0.0
366.0,0.028198242000000002,-0.09741211,0.0025024414000000004,-57.862595,-70.03817,40.709922999999996,2019-09-02 23:19:37,0.0
367.0,0.024291992000000002,-0.07867432,-0.004333496,-62.312977000000004,-68.862595,43.091602,2019-09-02 23:19:37,0.0
368.0,0.02130127,-0.12475586,-0.014343261999999999,-53.290077000000004,-54.015266000000004,36.908398,2019-09-02 23:19:37,0.0
369.0,0.026428222999999997,-0.07977295,0.007019043000000001,38.450382,-37.389313,-0.45801526,2019-09-02 23:19:37,0.0
370.0,0.014343261999999999,-0.06439209,0.009643555,-50.23664,-41.82443,10.381680000000001,2019-09-02 23:19:37,0.0
371.0,0.010681152,-0.10687256,-0.0036010741999999997,-82.94655999999999,-36.587788,4.7480917,2019-09-02 23:19:37,0.0
372.0,-0.017456055,-0.11389160000000002,-0.0048828125,-30.290077,-8.549619,-9.175572,2019-09-02 23:19:37,0.0
373.0,-0.010009766,-0.10583496,-0.020263672,-23.725191,-27.70229,-5.9923663000000005,2019-09-02 23:19:37,0.0
374.0,-0.012634277,-0.12786865,-0.017211914,-27.419846999999997,-13.450381,-2.832061,2019-09-02 23:19:37,0.0
375.0,-0.00390625,-0.12695312,-0.015625,-21.236639999999998,-5.740458,-1.2290076,2019-09-02 23:19:37,0.0
376.0,-0.009155273,-0.10620117,-0.014526367,-28.503816999999998,-11.633588,-3.221374,2019-09-02 23:19:37,0.0
377.0,-0.014038086000000002,-0.105285645,-0.02319336,-36.641220000000004,4.5801525000000005,-2.038168,2019-09-02 23:19:37,0.0
378.0,-0.010925293,-0.11907959,-0.0018920898,-32.9771,-4.6488547,1.4732825,2019-09-02 23:19:37,0.0
379.0,-0.01159668,-0.11791992,-0.0049438477,-22.366413,-8.541985,3.2442749,2019-09-02 23:19:37,0.0
380.0,-0.018798828,-0.12213135,-0.012512207,-11.244275,-2.465649,-0.65648854,2019-09-02 23:19:37,0.0
381.0,-0.013549805,-0.12957764,-0.02368164,-7.076336,-11.290076,-0.36641222,2019-09-02 23:19:37,0.0
382.0,-0.014526367,-0.13024902,-0.030456543,3.7480917000000002,-8.916031,-4.1755724,2019-09-02 23:19:37,0.0
383.0,-0.010681152,-0.13208008,-0.029968262000000002,12.442748,-4.8778625,-4.923664,2019-09-02 23:19:37,0.0
384.0,-0.01940918,-0.14611816,-0.024841309,8.687023,-8.549619,-9.664123,2019-09-02 23:19:37,0.0
385.0,0.0020141601999999997,-0.16223145,-0.022216797000000003,11.80916,-8.328244,-14.145039,2019-09-02 23:19:38,0.0
386.0,0.004333496,-0.14367676,-0.021057128999999997,14.7786255,5.6412214999999994,-19.10687,2019-09-02 23:19:38,0.0
387.0,-0.0034790040000000004,-0.15289307,-0.028747559,16.778625,12.305344,-20.786259,2019-09-02 23:19:38,0.0
388.0,0.005676269499999999,-0.15734863,-0.031311035,31.931296999999997,13.519084,-29.732824,2019-09-02 23:19:38,0.0
389.0,0.0107421875,-0.13891602,-0.021240234,37.274809999999995,18.267176,-37.10687,2019-09-02 23:19:38,0.0
390.0,0.014770508,-0.10083008,-0.012145996000000001,15.824428,19.725191,-24.702289999999998,2019-09-02 23:19:38,0.0
391.0,0.0072021483999999995,-0.11431885,-0.016723633,23.702289999999998,19.473282,-5.2671757,2019-09-02 23:19:38,0.0
392.0,0.004272461,-0.1161499,-0.0146484375,56.931297,22.57252,-7.0,2019-09-02 23:19:38,0.0
393.0,0.005981445300000001,-0.10449219,-0.0138549805,39.17557,18.022902,-4.145038,2019-09-02 23:19:38,0.0
394.0,0.006286621,-0.09979248,-0.009521484,7.2824425999999995,24.213741,-0.96183205,2019-09-02 23:19:38,0.0
395.0,0.009460449000000001,-0.11529541,-0.017028809,11.587786999999999,23.671754999999997,4.328244000000001,2019-09-02 23:19:38,0.0
396.0,0.00036621094,-0.10809326,-0.008300781,28.030534999999997,36.16794,0.03816794,2019-09-02 23:19:38,0.0
397.0,-0.0012207030999999999,-0.10083008,-0.0031738281,24.656488,28.114503999999997,3.908397,2019-09-02 23:19:38,0.0
398.0,0.0031738281,-0.11206055,0.009155273,-5.259542,25.290077,-1.3816794,2019-09-02 23:19:38,0.0
399.0,-0.0025634766,-0.11358642599999999,-0.007080078,4.236641400000001,29.603053999999997,-5.0,2019-09-02 23:19:38,0.0
400.0,-0.004638672,-0.09741211,0.013549805,2.4198472,28.770992,-5.4656487,2019-09-02 23:19:38,0.0
401.0,-0.010925293,-0.10577392599999999,0.024658202999999997,-15.21374,25.564885999999998,-3.0839694,2019-09-02 23:19:38,0.0
402.0,-0.017089844,-0.13348389,0.01977539,-15.2213745,19.549618,-9.061069,2019-09-02 23:19:38,0.0
403.0,-0.020263672,-0.13446045,0.01586914,-4.0076336999999995,13.251907999999998,-10.664123,2019-09-02 23:19:38,0.0
404.0,-0.008239746,-0.14111328,0.013977051,11.412213000000001,6.4274807,-11.267176,2019-09-02 23:19:38,0.0
405.0,-0.026489257999999998,-0.12518310000000002,0.011047363000000001,3.7404580000000003,-1.9770991999999998,-14.946565,2019-09-02 23:19:38,0.0
406.0,-0.007873535,-0.14990234,0.0012817383,-21.435114000000002,-9.129771,-19.610687,2019-09-02 23:19:38,0.0
407.0,-0.010253906,-0.16790771,-0.0026855469,-24.694656,-13.648855,-20.847328,2019-09-02 23:19:38,0.0
408.0,-0.004699707,-0.17236328,-0.04443359400000001,-25.816793,-18.862595000000002,-20.152672,2019-09-02 23:19:38,0.0
409.0,0.0032348633000000003,-0.17248535,-0.005126953,-20.458015,-12.2595415,-16.885496,2019-09-02 23:19:38,0.0
410.0,0.02355957,-0.15557861,-0.017333984,-13.648855,-19.786259,-8.106871,2019-09-02 23:19:38,0.0
411.0,0.016845703,-0.11175537,-0.01550293,4.3129773,-13.030535,5.7938933,2019-09-02 23:19:38,0.0
412.0,0.011657715,-0.099121094,-0.009765625,8.7786255,-3.6870230000000004,11.145039,2019-09-02 23:19:38,0.0
413.0,0.0025024414000000004,-0.10516357400000001,-0.01727295,-8.78626,-22.053434,8.564885,2019-09-02 23:19:38,0.0
414.0,0.011657715,-0.10571289,-0.018127441,-15.992367000000002,-12.343511999999999,6.603053599999999,2019-09-02 23:19:38,0.0
415.0,0.012023926,-0.09820557,-0.015136719,-18.022902,-14.687023000000002,10.2213745,2019-09-02 23:19:38,0.0
416.0,0.0036010741999999997,-0.11462402,-0.028015137000000002,-10.694656,-17.08397,10.511451,2019-09-02 23:19:38,0.0
417.0,-0.0034790040000000004,-0.10620117,-0.018920898000000002,-9.396947,-13.045800999999999,2.816794,2019-09-02 23:19:38,0.0
418.0,-0.0008544922000000001,-0.11456299,-0.002746582,-24.213741,-23.580153,5.374046,2019-09-02 23:19:38,0.0
419.0,-0.008056641,-0.12310791,-0.006591797,-15.862596,-19.816793,2.5419848,2019-09-02 23:19:39,0.0
420.0,-0.005493164,-0.12048339999999998,-0.010620117,-5.328244000000001,-27.183207,6.5801525,2019-09-02 23:19:39,0.0
421.0,-0.008605957,-0.12188721,-0.0068359375,-4.89313,-33.114502,11.396947,2019-09-02 23:19:39,0.0
422.0,-0.007629394499999999,-0.12365723,0.00036621094,6.2977099999999995,-32.404579999999996,16.549618,2019-09-02 23:19:39,0.0
423.0,-0.007080078,-0.11834717,0.013916016000000002,-2.480916,-28.984734000000003,15.206107000000001,2019-09-02 23:19:39,0.0
424.0,-0.012817383,-0.13061523,-0.0012817383,3.0,-26.465649,16.221375,2019-09-02 23:19:39,0.0
425.0,-0.008544922,-0.12823486,-0.008605957,-3.2900763,-20.374046,15.572519,2019-09-02 23:19:39,0.0
426.0,-0.009277344,-0.14117432,-0.005981445300000001,-11.549619,-11.488549,11.114504,2019-09-02 23:19:39,0.0
427.0,-0.0044555664,-0.13989258,-0.0064086914,7.664122,5.1679387000000006,1.8320610000000002,2019-09-02 23:19:39,0.0
428.0,0.008056641,-0.15441895,-0.0012207030999999999,-1.2671756,6.603053599999999,-2.8091602000000004,2019-09-02 23:19:39,0.0
429.0,0.017028809,-0.16119385,-0.012634277,-9.709924,22.274809,-7.6946563999999995,2019-09-02 23:19:39,0.0
430.0,0.010375977,-0.15582275,-0.012207031,-16.419847,40.030533,-12.671756,2019-09-02 23:19:39,0.0
431.0,0.009887695,-0.15289307,-0.008972168,-14.229007999999999,39.84733,-17.442749,2019-09-02 23:19:39,0.0
432.0,0.012939453,-0.12756348,-0.003540039,-15.274809,39.419846,-12.450381,2019-09-02 23:19:39,0.0
433.0,0.014160156,-0.10095215,-0.0018920898,-3.9389312000000007,35.618320000000004,-3.7175572,2019-09-02 23:19:39,0.0
434.0,0.0134887695,-0.08911133,-0.0053100586,11.671756,35.12214,6.1603055,2019-09-02 23:19:39,0.0
435.0,0.010131836,-0.09893799,-0.0025024414000000004,38.84733,36.984734,5.7938933,2019-09-02 23:19:39,0.0
436.0,0.013305663999999998,-0.08074951,0.008117675999999999,59.984733999999996,44.244274,-13.450381,2019-09-02 23:19:39,0.0
437.0,0.014160156,-0.07244873,0.004272461,26.923664000000002,44.9771,-22.839695000000003,2019-09-02 23:19:39,0.0
438.0,0.012451172,-0.09680176,0.0010375977,-16.496183,57.709922999999996,-34.160305,2019-09-02 23:19:39,0.0
439.0,0.018188476999999998,-0.11047363,-0.006042480500000001,-9.931297,73.15267,-41.709922999999996,2019-09-02 23:19:39,0.0
440.0,0.014221191000000001,-0.13220215,-0.0017700195,-22.10687,71.900764,-40.793890000000005,2019-09-02 23:19:39,0.0
441.0,0.012451172,-0.13665771,0.00048828125,-26.175573,76.183205,-32.961834,2019-09-02 23:19:39,0.0
442.0,0.0075683593999999995,-0.13250732,0.0033569335999999996,-7.2748094,72.44275,-22.740458,2019-09-02 23:19:39,0.0
443.0,-0.006164551,-0.12341308599999999,0.008300781,-9.908397,66.62595,-20.458015,2019-09-02 23:19:39,0.0
444.0,-0.011230469,-0.11639404,0.005493164,-3.5190839999999994,59.50382,-17.633587,2019-09-02 23:19:39,0.0
445.0,-0.016906738,-0.13153076,-0.00012207031000000001,-4.8778625,46.992367,-16.702289999999998,2019-09-02 23:19:39,0.0
446.0,-0.012207031,-0.13055419999999998,0.0020141601999999997,-4.40458,37.14504,-18.801527,2019-09-02 23:19:39,0.0
447.0,-0.0031738281,-0.13171387,0.0009765625,-9.648855000000001,31.770992,-15.870229,2019-09-02 23:19:39,0.0
448.0,-0.012390136999999999,-0.1383667,-0.007751465,-7.740458,22.0,-12.564885,2019-09-02 23:19:39,0.0
449.0,-0.009338379,-0.14758301,-0.004699707,-5.5343513,15.511451000000001,-7.7175574000000005,2019-09-02 23:19:39,0.0
450.0,-0.008239746,-0.15930176,-0.002319336,-5.664122,3.3435113,-10.106871,2019-09-02 23:19:39,0.0
451.0,0.0073242188,-0.16369629,-0.007629394499999999,-22.328245000000003,2.9770992,-12.511451,2019-09-02 23:19:40,0.0
452.0,0.0021362305,-0.16357422,-0.0138549805,-13.862596,-1.8854961,-9.374044999999999,2019-09-02 23:19:40,0.0
453.0,0.012207031,-0.12792969,-0.013305663999999998,-14.38168,-19.030535,21.030535,2019-09-02 23:19:40,0.0
454.0,0.0099487305,-0.15014648,-0.012084961000000002,2.5801528,-47.541985,28.419846999999997,2019-09-02 23:19:40,0.0
455.0,0.025634766,-0.13354492,-0.018188476999999998,26.396946000000003,-55.312977000000004,28.648854999999998,2019-09-02 23:19:40,0.0
456.0,0.017089844,-0.12335205,-0.023010253999999997,17.015266,-41.08397,35.267174,2019-09-02 23:19:40,0.0
457.0,0.016540527,-0.09893799,-0.008544922,12.229008,-35.23664,43.732826,2019-09-02 23:19:40,0.0
458.0,0.009765625,-0.09729004,-0.0038452148,21.625954,-36.51145,38.404579999999996,2019-09-02 23:19:40,0.0
459.0,0.0041503906,-0.10125732400000001,-0.00036621094,31.221375,-30.229008,37.625954,2019-09-02 23:19:40,0.0
460.0,-0.004028320300000001,-0.09326172,0.0095825195,51.404579999999996,-29.068703000000003,31.503816999999998,2019-09-02 23:19:40,0.0
461.0,-0.0021972656,-0.09259033,0.020812988,84.65649,-22.91603,16.87023,2019-09-02 23:19:40,0.0
462.0,0.0049438477,-0.08526611,0.018127441,97.27481,-22.412214000000002,1.1297709999999999,2019-09-02 23:19:40,0.0
463.0,0.0061035156000000005,-0.085998535,0.025939941,100.229004,-14.763359,-13.946565,2019-09-02 23:19:40,0.0
464.0,0.0030517578000000003,-0.07360839999999999,0.035339355,121.25191000000001,-10.412213000000001,-38.725190000000005,2019-09-02 23:19:40,0.0
465.0,-0.00048828125,-0.06933594,0.037902832000000004,145.41222,-17.633587,-64.43511,2019-09-02 23:19:40,0.0
466.0,0.0061035156000000005,-0.05731201,0.034240723,179.73282,-27.74809,-99.89313,2019-09-02 23:19:40,0.0
467.0,0.019470215,-0.048034667999999996,0.04272461,194.0,-33.46565,-145.22899999999998,2019-09-02 23:19:40,0.0
468.0,0.0345459,-0.04852295,0.050964355,184.2061,-59.55725,-188.21375,2019-09-02 23:19:40,0.0
469.0,0.06359863,-0.06072998,0.053527832000000004,181.41222,-135.77863,-231.55725,2019-09-02 23:19:40,0.0
470.0,0.10998535,-0.04498291,0.06927489999999999,130.71756000000002,-191.87787,-247.3435,2019-09-02 23:19:40,0.0
471.0,0.14202881,-0.012756348,0.036499023,52.038166,-250.1374,-250.1374,2019-09-02 23:19:40,0.0
472.0,0.18536377,0.004211426,0.0087890625,-82.8855,-250.1374,-234.98472999999998,2019-09-02 23:19:40,0.0
473.0,0.23126220000000003,-0.011169433999999999,-0.011352538999999998,-250.1374,-250.1374,-202.80153,2019-09-02 23:19:40,0.0
474.0,0.26550293,-0.03289795,-0.0546875,-250.1374,-202.23665,-198.43511999999998,2019-09-02 23:19:40,0.0
475.0,0.22875977,-0.07922363,-0.024963378999999997,-250.1374,-38.755726,-206.76335,2019-09-02 23:19:40,0.0
476.0,0.19958496,-0.07141113,-0.016601562,-191.8626,-6.5038165999999995,-199.2061,2019-09-02 23:19:40,0.0
477.0,0.1685791,-0.049743652,-0.006958008000000001,-101.76335999999999,31.152671999999995,-155.44275,2019-09-02 23:19:40,0.0
478.0,0.12347412,-0.03942871,0.016113281,-43.74046,53.251906999999996,-102.99235999999999,2019-09-02 23:19:40,0.0
479.0,0.109375,-0.024536132999999998,0.02508545,-13.549619,12.763359,-56.49618,2019-09-02 23:19:40,0.0
480.0,0.11370849599999999,-0.009460449000000001,0.016967773000000002,-30.793894,-25.732824,-14.045801,2019-09-02 23:19:40,0.0
481.0,0.12756348,-0.010986328,0.012756348,-72.63359,-4.2671757,11.648855000000001,2019-09-02 23:19:40,0.0
482.0,0.11566162,-0.024780273,0.009643555,-92.41984599999999,34.396946,18.809160000000002,2019-09-02 23:19:40,0.0
483.0,0.09539795,-0.028564452999999997,0.018981934,-92.84733,35.427483,13.290076000000001,2019-09-02 23:19:40,0.0
484.0,0.10333252,-0.03387451,0.022399902000000003,-90.92367,26.351145000000002,5.343511599999999,2019-09-02 23:19:40,0.0
485.0,0.10272217,-0.03540039,0.024291992000000002,-81.55725,22.709923,-6.4351144,2019-09-02 23:19:40,0.0
486.0,0.099487305,-0.034484863,0.026611327999999997,-69.938934,14.603053,-16.435114000000002,2019-09-02 23:19:40,0.0
487.0,0.10766601599999999,-0.0357666,0.026855469,-53.28244399999999,-5.259542,-24.358778,2019-09-02 23:19:40,0.0
488.0,0.11517334,-0.034973145,0.027832031,-30.38168,-14.541985,-26.946565999999997,2019-09-02 23:19:40,0.0
489.0,0.13195801,-0.03186035,0.032287598,-7.7709923,-37.419846,-25.801527,2019-09-02 23:19:41,0.0
490.0,0.15319824,-0.033813477,0.023803711,22.526718,-54.30534399999999,-25.396946,2019-09-02 23:19:41,0.0
491.0,0.16589355,-0.028686523,0.024536132999999998,44.076336,-33.14504,-14.893129,2019-09-02 23:19:41,0.0
492.0,0.1552124,-0.020324707,0.023925781,46.748093,-20.022902,-0.17557251,2019-09-02 23:19:41,0.0
493.0,0.1453247,-0.019165039,0.024230957,46.816795,-9.312977,20.824427,2019-09-02 23:19:41,0.0
494.0,0.15655518,-0.032043457000000004,0.03753662,49.83206,-23.832062,31.725191,2019-09-02 23:19:41,0.0
495.0,0.14544678,-0.012634277,0.016540527,60.038166000000004,43.358779999999996,45.778625,2019-09-02 23:19:41,0.0
496.0,0.09222412,-0.015686035,0.03515625,52.44275,75.938934,67.58015400000001,2019-09-02 23:19:41,0.0
497.0,0.12261963,-0.025939941,0.031799316,79.98473,-48.641220000000004,76.66412,2019-09-02 23:19:41,0.0
498.0,0.16723633,-0.013671875,-0.01171875,95.40458000000001,-3.6183207000000004,84.0687,2019-09-02 23:19:41,0.0
499.0,0.13977051,0.0006103515599999999,-0.0012817383,63.923664,106.98473,90.824425,2019-09-02 23:19:41,0.0
500.0,0.11486816400000001,-0.006958008000000001,0.013000488000000001,17.480917,91.34351,102.03053,2019-09-02 23:19:41,0.0
501.0,0.11767578,-0.014160156,0.008972168,6.4885497,46.961834,102.58778000000001,2019-09-02 23:19:41,0.0
502.0,0.12109375,-0.010314941,0.00012207031000000001,-1.038168,74.76335999999999,98.65649,2019-09-02 23:19:41,0.0
503.0,0.10675049,-0.024230957,0.013427733999999998,-6.89313,77.48092,89.51145,2019-09-02 23:19:41,0.0
504.0,0.10589599599999999,-0.026306152000000003,0.013427733999999998,-0.3740458,59.435116,76.03817,2019-09-02 23:19:41,0.0
505.0,0.09716797,-0.017700195,0.008666992,9.557252,53.71755600000001,62.984733999999996,2019-09-02 23:19:41,0.0
506.0,0.10113525400000001,-0.0146484375,0.011291503999999999,7.3587785000000006,54.961833999999996,46.541985,2019-09-02 23:19:41,0.0
507.0,0.09533691400000001,-0.01727295,0.0126953125,5.0458016,39.412212,35.312977000000004,2019-09-02 23:19:41,0.0
508.0,0.09539795,-0.02130127,0.006042480500000001,0.54198474,20.38168,20.664122,2019-09-02 23:19:41,0.0
509.0,0.11236572,-0.022644043,0.006286621,-4.5038165999999995,17.61832,4.236641400000001,2019-09-02 23:19:41,0.0
510.0,0.11370849599999999,-0.019897461,0.018798828,-4.763358599999999,5.854962,-14.038167999999999,2019-09-02 23:19:41,0.0
511.0,0.12719727,-0.025146484,0.012145996000000001,-2.5038167999999996,-24.358778,-33.572517,2019-09-02 23:19:41,0.0
512.0,0.14001465,-0.028808594,0.007019043000000001,4.519083999999999,-57.81679499999999,-60.30534399999999,2019-09-02 23:19:41,0.0
513.0,0.16259766,-0.032470703,0.00793457,7.9541984,-49.351147,-82.24428,2019-09-02 23:19:41,0.0
514.0,0.14971924,-0.02508545,0.014038086000000002,-0.045801528,-25.48855,-95.541985,2019-09-02 23:19:41,0.0
515.0,0.14343262,-0.01965332,0.0064697266000000005,-14.167939000000002,-48.46565,-104.16031,2019-09-02 23:19:41,0.0
516.0,0.15502929999999998,-0.023742676,0.00042724610000000003,-31.091602,-65.05344000000001,-105.938934,2019-09-02 23:19:41,0.0
517.0,0.1375122,-0.01171875,0.016296387,-51.221375,25.183207,-98.458015,2019-09-02 23:19:41,0.0
518.0,0.10266113,-0.022644043,0.031799316,-79.38931,-11.725191,-91.76335999999999,2019-09-02 23:19:41,0.0
519.0,0.13220215,-0.02508545,0.027526855,-61.068703,-77.145035,-84.87023,2019-09-02 23:19:41,0.0
520.0,0.15533447,-0.019470215,0.01184082,-40.229008,-29.038168,-72.8855,2019-09-02 23:19:41,0.0
521.0,0.11981201,-0.020751953,0.030883789,-49.290077000000004,22.374046,-53.419846,2019-09-02 23:19:41,0.0
522.0,0.100097656,-0.019226074,0.028503418,-46.312977000000004,2.8625952999999997,-33.389313,2019-09-02 23:19:41,0.0
523.0,0.10455322,-0.02319336,0.028747559,-35.15267,-6.068702,-19.656488,2019-09-02 23:19:41,0.0
524.0,0.10333252,-0.016662598,0.024414062,-34.53435,0.8549618,-9.045800999999999,2019-09-02 23:19:41,0.0
525.0,0.1083374,-0.022827148,0.03161621,-32.221375,17.969465,-8.038167999999999,2019-09-02 23:19:42,0.0
526.0,0.09344482400000001,-0.023925781,0.036499023,-27.496183000000002,7.839694500000001,-10.419847500000001,2019-09-02 23:19:42,0.0
527.0,0.10632324,-0.015197753999999999,0.03149414,-24.022902,3.167939,-13.893129,2019-09-02 23:19:42,0.0
528.0,0.10681152,-0.022399902000000003,0.030822753999999997,-23.343512,-0.84732825,-14.687023000000002,2019-09-02 23:19:42,0.0
529.0,0.11993408,-0.027526855,0.03173828,-20.328245000000003,-0.55725193,-15.396947,2019-09-02 23:19:42,0.0
530.0,0.11090088,-0.018981934,0.030273438,-18.045801,0.8778626,-17.61832,2019-09-02 23:19:42,0.0
531.0,0.11834717,-0.02154541,0.034729004,-12.282442999999999,-8.312977,-14.511451000000001,2019-09-02 23:19:42,0.0
532.0,0.13409424,-0.021972656,0.026794434,-7.6106872999999995,-19.557251,-14.564885,2019-09-02 23:19:42,0.0
533.0,0.14819336,-0.027526855,0.023986816,-2.0687022,-27.900763,-11.877863,2019-09-02 23:19:42,0.0
534.0,0.15808105,-0.029418945,0.021972656,-1.5725191,-16.564885999999998,-6.6335880000000005,2019-09-02 23:19:42,0.0
535.0,0.16705322,-0.031921387,0.026306152000000003,-0.33587787,-33.503820000000005,-3.9923663,2019-09-02 23:19:42,0.0
536.0,0.17126465,-0.037719727,0.014160156,6.366412,-22.770992,5.59542,2019-09-02 23:19:42,0.0
537.0,0.17810059,-0.028686523,0.013427733999999998,20.312977,-17.10687,9.183207000000001,2019-09-02 23:19:42,0.0
538.0,0.13726807,-0.012390136999999999,0.010986328,23.694656,86.44275,25.045801,2019-09-02 23:19:42,0.0
539.0,0.0769043,-0.030517577999999997,0.037902832000000004,25.145039,100.0458,49.038166,2019-09-02 23:19:42,0.0
540.0,0.09765625,-0.03375244,0.036132812,53.893130000000006,-58.458015,60.53435,2019-09-02 23:19:42,0.0
541.0,0.14227295,-0.023864746000000003,-0.017700195,84.37405,-24.786259,63.931297,2019-09-02 23:19:42,0.0
542.0,0.13299560000000002,-0.011474608999999998,0.0048217773,66.25954399999999,88.10687,73.061066,2019-09-02 23:19:42,0.0
543.0,0.10461426,-0.01940918,0.01928711,44.343509999999995,46.53435,74.9313,2019-09-02 23:19:42,0.0
544.0,0.12066650400000001,-0.02911377,-0.0036621094,45.312977000000004,5.076336,73.80153,2019-09-02 23:19:42,0.0
545.0,0.12426758,-0.0234375,0.0014648438,44.14504,48.12214,66.35878000000001,2019-09-02 23:19:42,0.0
546.0,0.10845947,-0.025146484,0.0073242188,37.53435,43.305344,63.366413,2019-09-02 23:19:42,0.0
547.0,0.10858154,-0.020385742,0.00592041,33.717556,33.08397,52.709922999999996,2019-09-02 23:19:42,0.0
548.0,0.09918213,-0.01763916,0.0073242188,24.320610000000002,35.694656,44.862595,2019-09-02 23:19:42,0.0
549.0,0.09857178,-0.02166748,0.008605957,18.259542,25.961832,39.267174,2019-09-02 23:19:42,0.0
550.0,0.107421875,-0.0099487305,0.0031738281,11.931297,18.778625,31.480916999999998,2019-09-02 23:19:42,0.0
551.0,0.11053467,-0.017456055,0.00793457,4.763358599999999,11.442748,22.51145,2019-09-02 23:19:42,0.0
552.0,0.11871338,-0.022094727,0.007873535,1.1679389999999998,5.10687,11.511451,2019-09-02 23:19:42,0.0
553.0,0.12042236,-0.027038574,0.018676758,7.5038165999999995,-2.9923662999999996,0.23664123,2019-09-02 23:19:42,0.0
554.0,0.13317871,-0.025634766,0.018493652,11.251908,-25.236639999999998,-12.267176,2019-09-02 23:19:42,0.0
555.0,0.16339111,-0.02960205,0.012573242,27.290077,-53.25954,-31.885496000000003,2019-09-02 23:19:42,0.0
556.0,0.16778564,-0.024108887000000002,0.0063476562,26.93893,-31.274809,-45.10687,2019-09-02 23:19:42,0.0
557.0,0.16381836,-0.013427733999999998,0.015197753999999999,5.412214,-22.091601999999998,-50.580154,2019-09-02 23:19:42,0.0
558.0,0.16821289,-0.014221191000000001,0.0018920898,-22.458015,-43.610687,-54.427482999999995,2019-09-02 23:19:43,0.0
559.0,0.15454102,-0.014831543,0.012939453,-54.419846,14.183207000000001,-50.709922999999996,2019-09-02 23:19:43,0.0
560.0,0.11407471,-0.009155273,0.027954102,-78.38931,43.625954,-47.015266,2019-09-02 23:19:43,0.0
561.0,0.08270264,-0.023986816,0.028991700000000002,-82.03817,34.725190000000005,-38.984734,2019-09-02 23:19:43,0.0
562.0,0.09637451,-0.030334472999999997,0.030456543,-51.82443,-39.862595,-39.21374,2019-09-02 23:19:43,0.0
563.0,0.12261963,-0.017944336,0.013549805,-20.030535,-28.374046000000003,-36.76336,2019-09-02 23:19:43,0.0
564.0,0.10620117,-0.01763916,0.024963378999999997,-29.404581,31.694656,-30.70229,2019-09-02 23:19:43,0.0
565.0,0.10272217,-0.017150878999999997,0.028930664,-40.404579999999996,-0.6259541999999999,-21.709923,2019-09-02 23:19:43,0.0
566.0,0.11633301,-0.013061523,0.017089844,-40.84733,-3.0458016,-14.053435,2019-09-02 23:19:43,0.0
567.0,0.115234375,-0.017333984,0.022155762000000002,-38.08397,17.167938,-11.206107000000001,2019-09-02 23:19:43,0.0
568.0,0.11016846,-0.018005371000000003,0.020629883,-37.954197,16.832062,-11.389313000000001,2019-09-02 23:19:43,0.0
569.0,0.10217285,-0.017028809,0.025390625,-40.87786,16.0,-12.290076,2019-09-02 23:19:43,0.0
570.0,0.10229492,-0.018920898000000002,0.024719237999999998,-41.160305,12.335877,-17.343512,2019-09-02 23:19:43,0.0
571.0,0.10113525400000001,-0.020812988,0.03326416,-36.412212,-0.38931298,-22.625954,2019-09-02 23:19:43,0.0
572.0,0.10803223,-0.016723633,0.031555176000000004,-24.534351,-7.6870227,-32.946564,2019-09-02 23:19:43,0.0
573.0,0.107543945,-0.020202637,0.027770996000000003,-19.198473,-13.007633,-40.427483,2019-09-02 23:19:43,0.0
574.0,0.11590576,-0.023986816,0.027404785,-18.709923,-24.175573,-47.12214,2019-09-02 23:19:43,0.0
575.0,0.14398193,-0.025634766,0.025939941,-21.984734,-51.129771999999996,-53.580154,2019-09-02 23:19:43,0.0
576.0,0.15838623,-0.027404785,0.016296387,-25.343512,-50.44275,-58.290077000000004,2019-09-02 23:19:43,0.0
577.0,0.16424560000000002,-0.029174805,0.01965332,-29.145039,-20.022902,-55.46565,2019-09-02 23:19:43,0.0
578.0,0.14794922,-0.034179688,0.025817871000000003,-19.534351,-32.564884,-49.221375,2019-09-02 23:19:43,0.0
579.0,0.15203857,-0.03161621,0.017456055,-1.70229,-25.175573,-39.404579999999996,2019-09-02 23:19:43,0.0
580.0,0.14343262,-0.036987305,0.035339355,14.938931,-25.526718,-26.022902,2019-09-02 23:19:43,0.0
581.0,0.12445068,-0.030151367000000002,0.02331543,46.076336,8.274809,-17.89313,2019-09-02 23:19:43,0.0
582.0,0.093566895,-0.041931152,0.04272461,50.793890000000005,31.389313,1.3816794,2019-09-02 23:19:43,0.0
583.0,0.13317871,-0.03387451,0.021911621000000003,90.70992,-85.36641,1.7328244,2019-09-02 23:19:43,0.0
584.0,0.15570068,-0.015686035,-0.0115356445,86.16794,23.038168,22.328245000000003,2019-09-02 23:19:43,0.0
585.0,0.11798096,-0.009399414,0.007385254,47.809162,103.381676,46.44275,2019-09-02 23:19:43,0.0
586.0,0.10241699,-0.011962891000000002,0.01751709,22.450382,35.610687,74.15267,2019-09-02 23:19:43,0.0
587.0,0.12377930000000001,-0.012939453,-0.0043945312,8.992367,41.610687,94.99235999999999,2019-09-02 23:19:43,0.0
588.0,0.11846924,-0.020446777,0.008544922,4.4198474999999995,76.03053,103.87023,2019-09-02 23:19:43,0.0
589.0,0.11383057,-0.022644043,0.012634277,8.748092,51.702290000000005,105.64886000000001,2019-09-02 23:19:43,0.0
590.0,0.11956787,-0.020324707,0.0073242188,20.122137,49.82443,98.34351,2019-09-02 23:19:43,0.0
591.0,0.111816406,-0.023498535,0.01184082,28.030534999999997,55.969467,86.94655999999999,2019-09-02 23:19:43,0.0
592.0,0.10455322,-0.021850586,0.009155273,31.396946000000003,44.076336,73.33588,2019-09-02 23:19:43,0.0
593.0,0.11431885,-0.014526367,0.006713866999999999,30.534351,30.137404999999998,62.206109999999995,2019-09-02 23:19:43,0.0
594.0,0.12017822,-0.020568848,0.0052490233999999995,24.0,25.175573,48.900764,2019-09-02 23:19:43,0.0
595.0,0.12908936,-0.028137207,0.0061035156000000005,18.648854999999998,18.152672,36.290077000000004,2019-09-02 23:19:43,0.0
596.0,0.13183594,-0.020812988,0.004211426,15.267176000000001,6.0458016,22.374046,2019-09-02 23:19:44,0.0
597.0,0.14636229999999997,-0.025939941,-0.0006103515599999999,20.328245000000003,-19.137404999999998,3.351145,2019-09-02 23:19:44,0.0
598.0,0.16314697,-0.01763916,-0.0015869141,12.732824,-20.435114000000002,-15.267176000000001,2019-09-02 23:19:44,0.0
599.0,0.15240479,-0.010131836,0.0018310547,-3.946565,12.580152499999999,-28.48855,2019-09-02 23:19:44,0.0
600.0,0.13562012,-0.020568848,0.011169433999999999,-22.526718,0.89312977,-38.21374,2019-09-02 23:19:44,0.0
601.0,0.14123535,-0.0154418945,0.0034179688000000002,-28.984734000000003,-28.671754999999997,-47.725190000000005,2019-09-02 23:19:44,0.0
602.0,0.12762451,-0.013671875,0.010253906,-40.702290000000005,40.679390000000005,-52.541985,2019-09-02 23:19:44,0.0
603.0,0.08898926,-0.010375977,0.033996582000000004,-60.664124,38.709922999999996,-49.984734,2019-09-02 23:19:44,0.0
604.0,0.097717285,-0.021362305,0.025817871000000003,-43.931297,-42.809162,-48.473279999999995,2019-09-02 23:19:44,0.0
605.0,0.13415527,-0.01965332,0.011962891000000002,-26.076335999999998,-44.519085,-48.320609999999995,2019-09-02 23:19:44,0.0
606.0,0.12805176,-0.01171875,0.0178833,-27.801527,21.137404999999998,-47.709922999999996,2019-09-02 23:19:44,0.0
607.0,0.1083374,-0.0115356445,0.023803711,-44.198475,5.2061067,-40.396946,2019-09-02 23:19:44,0.0
608.0,0.11157226599999999,-0.016174316,0.01763916,-55.74046,-8.618319999999999,-31.519083000000002,2019-09-02 23:19:44,0.0
609.0,0.10784912,-0.021057128999999997,0.020996094,-61.809162,5.0305343,-28.099237,2019-09-02 23:19:44,0.0
610.0,0.10522461,-0.025390625,0.01928711,-54.84733000000001,-0.8778626,-34.045803,2019-09-02 23:19:44,0.0
611.0,0.11047363,-0.022583007999999998,0.024353027000000003,-40.282444,-6.0305343,-45.53435,2019-09-02 23:19:44,0.0
612.0,0.105407715,-0.028747559,0.026062012000000002,-24.748089999999998,-4.40458,-53.251906999999996,2019-09-02 23:19:44,0.0
613.0,0.10241699,-0.020690918,0.023254395,-26.183207,-14.465648999999999,-58.984733999999996,2019-09-02 23:19:44,0.0
614.0,0.11254883,-0.022155762000000002,0.021362305,-25.190839999999998,-26.740458,-64.24428,2019-09-02 23:19:44,0.0
615.0,0.12042236,-0.018676758,0.030090332,-23.969465,-23.0,-66.145035,2019-09-02 23:19:44,0.0
616.0,0.12597656,-0.030334472999999997,0.034484863,-16.358778,-24.671754999999997,-71.16794,2019-09-02 23:19:44,0.0
617.0,0.13677979,-0.030639648,0.024780273,-12.053435,-36.76336,-67.20611,2019-09-02 23:19:44,0.0
618.0,0.15148926,-0.03375244,0.02154541,-6.190840000000001,-44.297709999999995,-63.885498,2019-09-02 23:19:44,0.0
619.0,0.16790771,-0.026855469,0.020751953,-0.8091603,-44.282444,-57.14504,2019-09-02 23:19:44,0.0
620.0,0.16418457,-0.02960205,0.020080566,-6.9160304,-20.038168,-44.87786,2019-09-02 23:19:44,0.0
621.0,0.14849854,-0.02911377,0.026855469,-6.442748,-20.297710000000002,-29.70229,2019-09-02 23:19:44,0.0
622.0,0.14801025,-0.039123535,0.020507812,-3.6717557999999997,-12.053435,-13.610686999999999,2019-09-02 23:19:44,0.0
623.0,0.14453125,-0.031433105,0.013793945,24.534351,-1.9770991999999998,-4.923664,2019-09-02 23:19:44,0.0
624.0,0.09893799,-0.027648926,0.03161621,20.786259,85.00764000000001,14.091603,2019-09-02 23:19:44,0.0
625.0,0.08569336,-0.037353516,0.048034667999999996,50.381679999999996,10.137404,29.389313,2019-09-02 23:19:44,0.0
626.0,0.14465332,-0.03387451,0.010070800999999999,98.73283,-77.53435,29.564885999999998,2019-09-02 23:19:44,0.0
627.0,0.16125488,-0.02142334,-0.0146484375,105.091606,55.17556999999999,44.755726,2019-09-02 23:19:44,0.0
628.0,0.11639404,-0.014221191000000001,0.016662598,80.41221999999999,96.72519,66.58778000000001,2019-09-02 23:19:44,0.0
629.0,0.119018555,-0.024719237999999998,0.004333496,70.31298000000001,26.854961,81.92367,2019-09-02 23:19:44,0.0
630.0,0.12664795,-0.020812988,-0.0032348633000000003,67.92367,60.83969499999999,93.816795,2019-09-02 23:19:44,0.0
631.0,0.12463379,-0.018554688,0.0052490233999999995,51.328243,75.25191,105.10687,2019-09-02 23:19:44,0.0
632.0,0.12597656,-0.025878906,0.0036010741999999997,37.496179999999995,55.045803,108.908394,2019-09-02 23:19:45,0.0
633.0,0.12377930000000001,-0.024597168,-0.0005493164,30.244274,60.221375,107.9771,2019-09-02 23:19:45,0.0
634.0,0.12469482400000001,-0.024658202999999997,-0.0034790040000000004,20.908398000000002,68.0458,103.770996,2019-09-02 23:19:45,0.0
635.0,0.11517334,-0.020263672,-0.0032958984000000004,16.89313,55.458015,95.55725,2019-09-02 23:19:45,0.0
636.0,0.12030029,-0.027648926,-0.00091552734,17.89313,42.801525,84.70992,2019-09-02 23:19:45,0.0
637.0,0.12579346,-0.025512695,0.0022583008,18.664122,39.694656,73.54961999999999,2019-09-02 23:19:45,0.0
638.0,0.119140625,-0.017211914,0.00592041,20.534351,30.045801,60.16794,2019-09-02 23:19:45,0.0
639.0,0.12188721,-0.018432617,0.005554199,19.290077,4.603053599999999,43.78626,2019-09-02 23:19:45,0.0
640.0,0.1484375,-0.020385742,-0.0053100586,21.374046,-14.702291,21.091601999999998,2019-09-02 23:19:45,0.0
641.0,0.15667725,-0.018188476999999998,0.0012207030999999999,17.267176,4.7022900000000005,2.1221373,2019-09-02 23:19:45,0.0
642.0,0.1338501,-0.0115356445,0.011474608999999998,-2.1755726,23.732824,-10.969465,2019-09-02 23:19:45,0.0
643.0,0.1307373,-0.02142334,0.014404297,-17.366413,-20.007633,-23.816793,2019-09-02 23:19:45,0.0
644.0,0.15026855,-0.017089844,0.007690429699999999,-11.526717,-23.183207,-39.85496,2019-09-02 23:19:45,0.0
645.0,0.11755371,-0.003112793,0.024047852,-24.885496,42.358779999999996,-49.587788,2019-09-02 23:19:45,0.0
646.0,0.08111572,-0.009460449000000001,0.03491211,-36.419846,15.923664000000002,-53.435116,2019-09-02 23:19:45,0.0
647.0,0.099121094,-0.017028809,0.035217285,-31.480916999999998,-53.37404599999999,-55.77099200000001,2019-09-02 23:19:45,0.0
648.0,0.13470459,-0.008422852,0.0178833,-27.19084,-48.839695,-63.809162,2019-09-02 23:19:45,0.0
649.0,0.12365723,-0.009033203,0.026977539,-40.961834,0.10687023,-68.55725,2019-09-02 23:19:45,0.0
650.0,0.11596680000000001,-0.013244628999999999,0.036743164,-45.679390000000005,-23.167938,-72.24428,2019-09-02 23:19:45,0.0
651.0,0.11639404,-0.011169433999999999,0.018310547,-49.984734,-27.854961,-72.01527,2019-09-02 23:19:45,0.0
652.0,0.115356445,-0.018554688,0.023376465,-49.419846,-20.435114000000002,-77.98473,2019-09-02 23:19:45,0.0
653.0,0.11230469,-0.018798828,0.030517577999999997,-42.9771,-24.625954,-81.62595,2019-09-02 23:19:45,0.0
654.0,0.11547851599999999,-0.025878906,0.02508545,-36.183205,-20.473282,-89.381676,2019-09-02 23:19:45,0.0
655.0,0.113464355,-0.028381347999999997,0.019958496000000003,-32.404579999999996,-28.969465000000003,-91.32061,2019-09-02 23:19:45,0.0
656.0,0.11437988,-0.020263672,0.023742676,-25.06107,-36.251907,-93.41221999999999,2019-09-02 23:19:45,0.0
657.0,0.11840819999999999,-0.022033691,0.025939941,-18.328245000000003,-34.709922999999996,-90.67175,2019-09-02 23:19:45,0.0
658.0,0.12854004,-0.028259277000000003,0.03375244,-13.0992365,-39.48855,-90.55725,2019-09-02 23:19:45,0.0
659.0,0.12725830000000002,-0.023498535,0.027832031,-2.8091602000000004,-41.74046,-83.32061,2019-09-02 23:19:45,0.0
660.0,0.1328125,-0.029785156,0.030212402000000003,-3.1908397999999996,-44.396946,-75.75572,2019-09-02 23:19:45,0.0
661.0,0.1616211,-0.02947998,0.02722168,-1.0,-62.946564,-63.32824300000001,2019-09-02 23:19:45,0.0
662.0,0.17492676,-0.022216797000000003,0.018432617,-0.32061067,-39.91603,-42.946564,2019-09-02 23:19:45,0.0
663.0,0.16809082,-0.028259277000000003,0.017211914,-8.0992365,-10.694656,-21.519083,2019-09-02 23:19:45,0.0
664.0,0.1515503,-0.032348632999999995,0.020568848,-2.7633588,-9.770992,4.6412214999999994,2019-09-02 23:19:46,0.0
665.0,0.15112305,-0.030639648,0.025634766,7.6335880000000005,-6.343511599999999,26.549618,2019-09-02 23:19:46,0.0
666.0,0.15063477,-0.033935547,0.022338867000000002,31.328245000000003,-1.6412214,40.076336,2019-09-02 23:19:46,0.0
667.0,0.11114502,-0.021057128999999997,0.026306152000000003,40.419846,82.20611,58.885498,2019-09-02 23:19:46,0.0
668.0,0.08001709,-0.031921387,0.038208007999999995,54.52672,45.801525,76.92367,2019-09-02 23:19:46,0.0
669.0,0.13653564,-0.012084961000000002,-0.003112793,117.67938999999998,81.83969,76.8855,2019-09-02 23:19:46,0.0
670.0,0.14648438,-0.022094727,-0.009643555,82.98473,58.938930000000006,72.71755999999999,2019-09-02 23:19:46,0.0
671.0,0.13519287,-0.018066406,-0.00091552734,59.50382,80.76335999999999,73.381676,2019-09-02 23:19:46,0.0
672.0,0.13677979,-0.009033203,-0.0006103515599999999,28.022902000000002,80.72519,77.938934,2019-09-02 23:19:46,0.0
673.0,0.1270752,-0.021240234,-0.012817383,8.610686999999999,82.30534,83.183205,2019-09-02 23:19:46,0.0
674.0,0.12249756,-0.016052246000000003,-0.0075683593999999995,-5.480916000000001,84.48092,86.061066,2019-09-02 23:19:46,0.0
675.0,0.10516357400000001,-0.025878906,-0.0024414061999999998,-4.7862597000000004,57.16030500000001,76.79389,2019-09-02 23:19:46,0.0
676.0,0.11785889,-0.025146484,-0.00048828125,-5.473282299999999,42.816795,65.145035,2019-09-02 23:19:46,0.0
677.0,0.119262695,-0.020874023000000002,0.0010986328,0.90076333,32.129771999999996,51.419846,2019-09-02 23:19:46,0.0
678.0,0.10949707,-0.025756836,0.009887695,13.129771,13.175572,40.343509999999995,2019-09-02 23:19:46,0.0
679.0,0.12359619,-0.026000977,0.009338379,24.137404999999998,-14.458015,23.961832,2019-09-02 23:19:46,0.0
680.0,0.12542725,-0.019836426,0.010253906,40.755726,-19.404581,5.5725193,2019-09-02 23:19:46,0.0
681.0,0.12854004,-0.02368164,0.026306152000000003,55.541985,-9.267176,-9.916031,2019-09-02 23:19:46,0.0
682.0,0.12261963,-0.0126953125,0.026367188,66.83969,-55.656490000000005,-32.931297,2019-09-02 23:19:46,0.0
683.0,0.15338135,-0.01171875,0.008605957,52.053436,-86.87023,-50.282444,2019-09-02 23:19:46,0.0
684.0,0.15002441,0.00024414062000000002,0.016052246000000003,38.587788,-13.160305,-68.58015400000001,2019-09-02 23:19:46,0.0
685.0,0.09924316400000001,0.0087890625,0.045898438,-0.71755725,59.22900799999999,-69.07633,2019-09-02 23:19:46,0.0
686.0,0.06744385,0.0095825195,0.050231934000000006,-54.870228000000004,-46.404579999999996,-57.22900799999999,2019-09-02 23:19:46,0.0
687.0,0.12506104,0.0022583008,0.014770508,-74.03053,-133.58778,-58.48855,2019-09-02 23:19:46,0.0
688.0,0.1609497,-0.0022583008,0.0005493164,-73.175575,-36.496179999999995,-61.900764,2019-09-02 23:19:46,0.0
689.0,0.14086914,-0.009033203,0.021606445,-88.46565,23.931297,-66.41984599999999,2019-09-02 23:19:46,0.0
690.0,0.11859131,-0.012512207,0.023925781,-104.618324,-1.8396946,-66.63359,2019-09-02 23:19:46,0.0
691.0,0.12524414,-0.014038086000000002,0.010925293,-117.20611000000001,1.2900764,-59.32824300000001,2019-09-02 23:19:46,0.0
692.0,0.11706543,-0.020935059,0.015563965,-117.37405,17.213741,-55.992367,2019-09-02 23:19:46,0.0
693.0,0.12420654,-0.01977539,0.018493652,-119.67175,8.541985,-56.190838,2019-09-02 23:19:46,0.0
694.0,0.11053467,-0.026245117000000002,0.01776123,-110.19847,9.938931,-62.55725,2019-09-02 23:19:46,0.0
695.0,0.10656738,-0.027954102,0.008972168,-97.9771,5.8778625,-69.83969,2019-09-02 23:19:46,0.0
696.0,0.11199951,-0.034606934,0.0073242188,-83.45038000000001,-5.3893127,-78.770996,2019-09-02 23:19:46,0.0
697.0,0.12152099599999999,-0.033813477,0.009155273,-68.83206,-9.290076,-83.73283,2019-09-02 23:19:46,0.0
698.0,0.12585449,-0.026428222999999997,0.011047363000000001,-64.8855,-9.244275,-88.29008,2019-09-02 23:19:47,0.0
699.0,0.12866211,-0.030761719,0.018981934,-60.961833999999996,-15.549619,-87.145035,2019-09-02 23:19:47,0.0
700.0,0.13330078,-0.023986816,0.013427733999999998,-62.076336,-27.839695000000003,-80.63359,2019-09-02 23:19:47,0.0
701.0,0.13195801,-0.02923584,0.008361816,-61.885498,-30.404581,-75.862595,2019-09-02 23:19:47,0.0
702.0,0.15185547,-0.034240723,0.009643555,-54.87786,-45.755726,-66.0229,2019-09-02 23:19:47,0.0
703.0,0.15289307,-0.03100586,0.004760742,-53.48855,-30.48855,-53.251906999999996,2019-09-02 23:19:47,0.0
704.0,0.15203857,-0.030273438,0.013366699,-58.061069999999994,-18.320610000000002,-34.702290000000005,2019-09-02 23:19:47,0.0
705.0,0.13842773,-0.027954102,0.008300781,-55.16794,-20.969465,-13.183207000000001,2019-09-02 23:19:47,0.0
706.0,0.15722656,-0.02935791,0.006042480500000001,-42.44275,-45.229008,1.2900764,2019-09-02 23:19:47,0.0
707.0,0.1359253,-0.020874023000000002,0.0099487305,-29.198473,12.030535,18.312977,2019-09-02 23:19:47,0.0
708.0,0.09014892599999999,-0.028564452999999997,0.03302002,-24.465649,42.748093,34.007633,2019-09-02 23:19:47,0.0
709.0,0.08422851599999999,-0.033508300000000005,0.025695799999999998,3.923664,-26.458015000000003,45.229008,2019-09-02 23:19:47,0.0
710.0,0.12872314,-0.036315917999999996,0.0028076171999999997,46.664124,-62.48855,50.656490000000005,2019-09-02 23:19:47,0.0
711.0,0.13916016,-0.028259277000000003,0.003112793,68.35114,15.496182999999998,64.503815,2019-09-02 23:19:47,0.0
712.0,0.13201904,-0.019165039,0.015930176,64.9542,27.290077,77.64121999999999,2019-09-02 23:19:47,0.0
713.0,0.13806152,-0.016967773000000002,0.007385254,62.74046,14.419847500000001,89.31298000000001,2019-09-02 23:19:47,0.0
714.0,0.14178467,-0.019592285,0.010559082,58.16030500000001,33.664124,100.00764000000001,2019-09-02 23:19:47,0.0
715.0,0.13519287,-0.013000488000000001,0.009887695,47.08397,42.44275,109.08397,2019-09-02 23:19:47,0.0
716.0,0.12915039,-0.024719237999999998,0.007446289,41.045803,37.900764,117.58778000000001,2019-09-02 23:19:47,0.0
717.0,0.12042236,-0.019714355,0.008850098,41.450382,35.748093,115.9313,2019-09-02 23:19:47,0.0
718.0,0.11883545,-0.022705077999999997,0.008483886999999999,48.129771999999996,38.183205,115.08397,2019-09-02 23:19:47,0.0
719.0,0.11840819999999999,-0.022155762000000002,0.0043945312,47.099236,35.099236,105.38931000000001,2019-09-02 23:19:47,0.0
720.0,0.11553955,-0.018798828,0.006286621,40.389313,37.618320000000004,95.08397,2019-09-02 23:19:47,0.0
721.0,0.11389160000000002,-0.02154541,0.0045166016,37.435116,32.229008,78.62595,2019-09-02 23:19:47,0.0
722.0,0.11816406,-0.021728516,0.007629394499999999,25.557251,26.87023,59.46565,2019-09-02 23:19:47,0.0
723.0,0.11993408,-0.022399902000000003,0.014343261999999999,22.656488,18.175573,37.961834,2019-09-02 23:19:47,0.0
724.0,0.12329101599999999,-0.018920898000000002,0.018005371000000003,17.091601999999998,3.6259542000000002,10.977099,2019-09-02 23:19:47,0.0
725.0,0.13171387,-0.019714355,0.01776123,16.610687,-14.053435,-17.61832,2019-09-02 23:19:47,0.0
726.0,0.14569092,-0.018554688,0.010559082,14.59542,-21.160304999999997,-44.603054,2019-09-02 23:19:47,0.0
727.0,0.14837646,-0.014465332,0.011962891000000002,6.2137402999999996,-14.053435,-66.57252,2019-09-02 23:19:47,0.0
728.0,0.14758301,-0.01574707,0.011657715,-8.7404585,-29.57252,-85.10687,2019-09-02 23:19:47,0.0
729.0,0.16387939999999998,-0.017700195,0.010681152,-23.190839999999998,-45.129771999999996,-100.0229,2019-09-02 23:19:47,0.0
730.0,0.15228271,-0.0154418945,0.01550293,-30.343512,8.175572,-109.1145,2019-09-02 23:19:47,0.0
731.0,0.10498047,-0.01751709,0.028259277000000003,-53.923664,39.381679999999996,-101.00764000000001,2019-09-02 23:19:47,0.0
732.0,0.08746338,-0.017028809,0.024902344,-63.38168,-10.717557000000001,-95.41984599999999,2019-09-02 23:19:47,0.0
733.0,0.121154785,-0.01574707,0.012207031,-44.954197,-69.94655999999999,-91.96947,2019-09-02 23:19:47,0.0
734.0,0.15557861,-0.013977051,-0.00579834,-41.549618,-5.961832,-75.64886,2019-09-02 23:19:48,0.0
735.0,0.13464355,-0.024047852,0.007690429699999999,-49.206109999999995,30.007633000000002,-61.648853,2019-09-02 23:19:48,0.0
736.0,0.12664795,-0.013549805,0.0053710938,-61.206109999999995,12.198473,-50.007633,2019-09-02 23:19:48,0.0
737.0,0.12005615,-0.017150878999999997,0.007385254,-72.73283,18.175573,-31.992366999999998,2019-09-02 23:19:48,0.0
738.0,0.119628906,-0.022583007999999998,0.0087890625,-89.84733,24.251910000000002,-25.175573,2019-09-02 23:19:48,0.0
739.0,0.11413574,-0.020568848,0.008911133,-94.87023,26.259542,-21.625954,2019-09-02 23:19:48,0.0
740.0,0.10534668,-0.030029297000000003,0.010681152,-88.31298000000001,21.816793,-24.816793,2019-09-02 23:19:48,0.0
741.0,0.1038208,-0.027954102,0.01586914,-69.72519,13.206107000000001,-30.23664,2019-09-02 23:19:48,0.0
742.0,0.10760498,-0.03845215,0.012390136999999999,-40.137405,-5.2442746,-38.908398,2019-09-02 23:19:48,0.0
743.0,0.11755371,-0.030212402000000003,0.015686035,-20.42748,-14.61832,-44.93893,2019-09-02 23:19:48,0.0
744.0,0.11950683599999999,-0.020935059,0.020202637,-10.21374,-10.488549,-45.503820000000005,2019-09-02 23:19:48,0.0
745.0,0.11651611,-0.030761719,0.024719237999999998,-12.664123,-13.541985,-49.14504,2019-09-02 23:19:48,0.0
746.0,0.121276855,-0.018615723,0.02142334,-13.740458499999999,-32.648853,-44.366413,2019-09-02 23:19:48,0.0
747.0,0.13256836,-0.02557373,0.015258788999999998,-8.206107000000001,-48.717556,-40.21374,2019-09-02 23:19:48,0.0
748.0,0.15917969,-0.022705077999999997,0.012084961000000002,1.1908396,-40.748093,-35.328243,2019-09-02 23:19:48,0.0
749.0,0.15197754,-0.01727295,0.02368164,1.8931297999999999,-25.08397,-24.534351,2019-09-02 23:19:48,0.0
750.0,0.15863037,-0.02746582,0.024230957,-3.7404580000000003,-36.251907,-15.526717000000001,2019-09-02 23:19:48,0.0
751.0,0.17529297,-0.021118164,0.020935059,2.946565,-41.816795,-7.259542,2019-09-02 23:19:48,0.0
752.0,0.14208984,-0.015258788999999998,0.024719237999999998,4.6106873,38.53435,9.412213000000001,2019-09-02 23:19:48,0.0
753.0,0.09704589999999999,-0.019348145,0.04144287,-2.3282442000000003,59.25954,28.67939,2019-09-02 23:19:48,0.0
754.0,0.09375,-0.032470703,0.041259766,31.015265999999997,-40.55725,40.984734,2019-09-02 23:19:48,0.0
755.0,0.15057373,-0.033691406,0.0049438477,74.41984599999999,-49.282444,47.030533,2019-09-02 23:19:48,0.0
756.0,0.15393066,-0.018615723,0.006286621,99.618324,64.07633,61.343509999999995,2019-09-02 23:19:48,0.0
757.0,0.11340332,-0.01171875,0.013183594,94.87786,56.427482999999995,72.56489,2019-09-02 23:19:48,0.0
758.0,0.12390137,-0.019897461,0.0022583008,92.496185,31.412214000000002,79.42748,2019-09-02 23:19:48,0.0
759.0,0.13543701,-0.009277344,-0.005065918,86.38931,54.793890000000005,83.48092,2019-09-02 23:19:48,0.0
760.0,0.12243652,-0.010437011999999999,0.009338379,63.068703,64.48092,87.40458000000001,2019-09-02 23:19:48,0.0
761.0,0.11907959,-0.007385254,0.0075683593999999995,36.679390000000005,59.0,89.89313,2019-09-02 23:19:48,0.0
762.0,0.1149292,-0.01586914,0.007080078,28.969465000000003,47.801525,85.00764000000001,2019-09-02 23:19:48,0.0
763.0,0.10882568,-0.020996094,-0.00048828125,28.549618,44.381679999999996,78.618324,2019-09-02 23:19:48,0.0
764.0,0.11840819999999999,-0.026794434,0.0014038085999999999,33.328243,33.045803,66.92367,2019-09-02 23:19:48,0.0
765.0,0.122558594,-0.016479492,-0.0017089844000000001,44.641220000000004,30.587785999999998,52.49618,2019-09-02 23:19:48,0.0
766.0,0.12908936,-0.023864746000000003,0.00048828125,41.099236,27.70229,40.793890000000005,2019-09-02 23:19:48,0.0
767.0,0.120910645,-0.020751953,0.004760742,28.229008,25.587785999999998,28.961832,2019-09-02 23:19:48,0.0
768.0,0.13049316,-0.023071289,0.008056641,16.824427,13.549619,20.793894,2019-09-02 23:19:48,0.0
769.0,0.13964844,-0.016479492,0.006225586,4.145038,-10.366412,7.671755999999999,2019-09-02 23:19:48,0.0
770.0,0.15307617,-0.024230957,-0.002746582,3.7404580000000003,-13.511451000000001,-5.9694657,2019-09-02 23:19:49,0.0
771.0,0.14898682,-0.01586914,0.0036010741999999997,-1.2900764,16.465649,-13.893129,2019-09-02 23:19:49,0.0
772.0,0.13745117,-0.01373291,0.0146484375,-14.908397,-0.8854962,-18.839695000000003,2019-09-02 23:19:49,0.0
773.0,0.14428711,-0.018188476999999998,0.007629394499999999,-17.358778,-30.717558,-25.183207,2019-09-02 23:19:49,0.0
774.0,0.13671875,-0.0087890625,0.011779785,-25.244274,16.770992,-33.343509999999995,2019-09-02 23:19:49,0.0
775.0,0.11578369,-0.004211426,0.032104492000000005,-44.633587,23.57252,-35.229008,2019-09-02 23:19:49,0.0
776.0,0.09466553,-0.009277344,0.030822753999999997,-61.656490000000005,4.557252,-35.427483,2019-09-02 23:19:49,0.0
777.0,0.10192871,-0.011962891000000002,0.029785156,-53.083969999999994,-36.549618,-40.030533,2019-09-02 23:19:49,0.0
778.0,0.1328125,-0.018615723,0.01977539,-40.0229,-25.335878,-45.12214,2019-09-02 23:19:49,0.0
779.0,0.12573242,-0.014160156,0.024719237999999998,-38.885498,7.2137402999999996,-47.160305,2019-09-02 23:19:49,0.0
780.0,0.11730957,-0.012145996000000001,0.022888184,-46.374046,-5.076336,-47.664124,2019-09-02 23:19:49,0.0
781.0,0.11889648400000001,-0.007751465,0.017333984,-58.48855,-8.603053,-43.396946,2019-09-02 23:19:49,0.0
782.0,0.12243652,-0.013183594,0.01763916,-66.92367,6.778625999999999,-44.679390000000005,2019-09-02 23:19:49,0.0
783.0,0.1194458,-0.017700195,0.015563965,-70.70229,10.595419999999999,-44.885498,2019-09-02 23:19:49,0.0
784.0,0.10614014,-0.02532959,0.024291992000000002,-62.44275,6.8549619999999996,-46.748093,2019-09-02 23:19:49,0.0
785.0,0.10430908,-0.022766112999999998,0.01776123,-51.78626,-4.6870227,-51.14504,2019-09-02 23:19:49,0.0
786.0,0.10119629,-0.022216797000000003,0.024230957,-35.366413,-6.2442746,-58.580154,2019-09-02 23:19:49,0.0
787.0,0.11450195,-0.022460938,0.030334472999999997,-30.694656,-16.610687,-62.16794,2019-09-02 23:19:49,0.0
788.0,0.119628906,-0.02331543,0.026000977,-29.91603,-24.0,-67.15267,2019-09-02 23:19:49,0.0
789.0,0.13122559,-0.019714355,0.023071289,-34.770992,-12.977099,-67.55725,2019-09-02 23:19:49,0.0
790.0,0.12860107,-0.021606445,0.024414062,-41.396946,-24.045801,-68.175575,2019-09-02 23:19:49,0.0
791.0,0.14172363,-0.024536132999999998,0.024414062,-43.038166,-34.473279999999995,-66.96183,2019-09-02 23:19:49,0.0
792.0,0.15319824,-0.024291992000000002,0.019348145,-34.320609999999995,-40.076336,-62.725190000000005,2019-09-02 23:19:49,0.0
793.0,0.16278076,-0.028747559,0.01586914,-28.854961,-35.328243,-53.938930000000006,2019-09-02 23:19:49,0.0
794.0,0.1609497,-0.029785156,0.019042969,-24.12977,-18.419847,-45.53435,2019-09-02 23:19:49,0.0
795.0,0.1506958,-0.03326416,0.015625,-22.213741,-17.160304999999997,-32.633587,2019-09-02 23:19:49,0.0
796.0,0.16394043,-0.026916503999999997,0.021484375,-12.091603,-43.648853,-21.198473,2019-09-02 23:19:49,0.0
797.0,0.15106201,-0.01171875,0.016906738,-11.396947,31.93893,-4.5038165999999995,2019-09-02 23:19:49,0.0
798.0,0.08264160000000001,-0.021728516,0.036193848,-33.15267,92.16794,16.145039,2019-09-02 23:19:49,0.0
799.0,0.061828613,-0.025512695,0.043151855,-18.87023,2.2824428,31.57252,2019-09-02 23:19:49,0.0
800.0,0.12524414,-0.03186035,0.010131836,25.183207,-93.19847,33.374046,2019-09-02 23:19:49,0.0
801.0,0.15161133,-0.032409667999999996,-0.007629394499999999,63.69465600000001,27.221375,47.679390000000005,2019-09-02 23:19:49,0.0
802.0,0.11871338,-0.022277832,0.014831543,61.77099200000001,68.87786,57.053436,2019-09-02 23:19:49,0.0
803.0,0.11602783,-0.023925781,0.005676269499999999,66.62595,8.610686999999999,66.9542,2019-09-02 23:19:49,0.0
804.0,0.13360596,-0.017822266,-0.008239746,68.70992,31.137404999999998,76.25191,2019-09-02 23:19:49,0.0
805.0,0.13055419999999998,-0.0126953125,0.006042480500000001,52.610687,45.503820000000005,86.938934,2019-09-02 23:19:50,0.0
806.0,0.12725830000000002,-0.021057128999999997,0.003112793,41.396946,41.78626,98.99235999999999,2019-09-02 23:19:50,0.0
807.0,0.113464355,-0.020202637,0.0029907227,38.396946,48.14504,103.61069,2019-09-02 23:19:50,0.0
808.0,0.11212158,-0.021606445,0.0020751953,42.603054,32.137405,102.0,2019-09-02 23:19:50,0.0
809.0,0.11291504,-0.025024414,-0.0020141601999999997,51.709922999999996,23.389313,93.94655999999999,2019-09-02 23:19:50,0.0
810.0,0.1182251,-0.02319336,-0.0025634766,56.366413,25.786259,83.24428,2019-09-02 23:19:50,0.0
811.0,0.12048339999999998,-0.024719237999999998,-0.001159668,57.809162,18.458015,67.0458,2019-09-02 23:19:50,0.0
812.0,0.12219238,-0.024841309,0.0009765625,58.71755600000001,3.59542,44.78626,2019-09-02 23:19:50,0.0
813.0,0.12731934,-0.020141601999999998,0.00030517577999999995,48.801525,-1.5648855,19.06107,2019-09-02 23:19:50,0.0
814.0,0.1260376,-0.023620605,0.0075683593999999995,40.778625,-4.946564700000001,-0.7633588000000001,2019-09-02 23:19:50,0.0
815.0,0.13323975,-0.032165527,0.0028076171999999997,40.099236,-33.816795,-21.702289999999998,2019-09-02 23:19:50,0.0
816.0,0.14654541,-0.031555176000000004,0.007019043000000001,43.10687,-41.564884,-41.908398,2019-09-02 23:19:50,0.0
817.0,0.15789795,-0.016967773000000002,0.0021972656,41.580154,-28.022902000000002,-51.564884,2019-09-02 23:19:50,0.0
818.0,0.15710449,-0.023498535,0.005981445300000001,28.404581,-34.664124,-57.793890000000005,2019-09-02 23:19:50,0.0
819.0,0.15374756,-0.012023926,-0.00018310547,15.335876999999998,-32.9771,-54.52672,2019-09-02 23:19:50,0.0
820.0,0.14672852,-0.0029907227,0.011291503999999999,3.6030532999999996,-13.519084,-48.17557,2019-09-02 23:19:50,0.0
821.0,0.12377930000000001,-0.0067749023,0.0211792,-11.748092,23.412214000000002,-38.992367,2019-09-02 23:19:50,0.0
822.0,0.08123779,-0.0029907227,0.027893066,-34.870228000000004,51.992367,-24.038168,2019-09-02 23:19:50,0.0
823.0,0.07000732400000001,-0.021118164,0.03704834,-32.229008,-21.328245000000003,-16.755726,2019-09-02 23:19:50,0.0
824.0,0.119018555,-0.019470215,0.016845703,-6.778625999999999,-67.37405,-14.351145,2019-09-02 23:19:50,0.0
825.0,0.1317749,-0.026550293,0.012451172,25.221375,10.343511999999999,-9.763359,2019-09-02 23:19:50,0.0
826.0,0.12145996,-0.020385742,0.030944824,22.93893,1.7709924,-8.725191,2019-09-02 23:19:50,0.0
827.0,0.12750244,-0.016174316,0.018554688,21.145039,-12.328244,-6.0,2019-09-02 23:19:50,0.0
828.0,0.13256836,-0.014282227,0.016906738,6.7175574000000005,11.053435,-1.6259542,2019-09-02 23:19:50,0.0
829.0,0.11791992,-0.01373291,0.01727295,-2.4885497,13.114504,-1.9389313000000001,2019-09-02 23:19:50,0.0
830.0,0.11273193,-0.017578125,0.026306152000000003,-7.1221375,12.465649,-0.34351146,2019-09-02 23:19:50,0.0
831.0,0.107299805,-0.014892578,0.021972656,2.29771,8.038167999999999,1.1755725000000001,2019-09-02 23:19:50,0.0
832.0,0.10614014,-0.022216797000000003,0.026855469,11.320611,4.519083999999999,-1.9847328999999998,2019-09-02 23:19:50,0.0
833.0,0.10546875,-0.023132324,0.026611327999999997,14.282442999999999,0.740458,-5.854962,2019-09-02 23:19:50,0.0
834.0,0.114746094,-0.0134887695,0.026794434,17.725191,-10.748092,-8.351144999999999,2019-09-02 23:19:50,0.0
835.0,0.11431885,-0.017089844,0.024047852,11.908397,-7.6183205,-12.381680000000001,2019-09-02 23:19:50,0.0
836.0,0.11920166,-0.010253906,0.026916503999999997,4.9694657,-1.3206106000000002,-15.473282999999999,2019-09-02 23:19:50,0.0
837.0,0.122924805,-0.011962891000000002,0.024047852,-2.9847328999999996,-14.274809,-20.274809,2019-09-02 23:19:50,0.0
838.0,0.1281128,-0.026733398,0.01928711,2.7175572,-31.358778000000004,-24.91603,2019-09-02 23:19:50,0.0
839.0,0.14916992,-0.0234375,0.02154541,11.183207000000001,-41.801525,-30.480916999999998,2019-09-02 23:19:50,0.0
840.0,0.15863037,-0.021240234,0.02166748,14.961832000000001,-42.221375,-34.160305,2019-09-02 23:19:50,0.0
841.0,0.1616211,-0.01953125,0.013427733999999998,8.7404585,-29.282442,-35.267174,2019-09-02 23:19:51,0.0
842.0,0.14447021,-0.016906738,0.013671875,11.312977,-18.08397,-31.503816999999998,2019-09-02 23:19:51,0.0
843.0,0.1430664,-0.02557373,0.020751953,24.946566,-42.114502,-26.32061,2019-09-02 23:19:51,0.0
844.0,0.13806152,-0.023376465,0.023132324,42.25954,-2.6717557999999997,-17.396946,2019-09-02 23:19:51,0.0
845.0,0.08880615,-0.019897461,0.03186035,42.480915,48.709922999999996,-3.5496182000000003,2019-09-02 23:19:51,0.0
846.0,0.08105469,-0.028869628999999997,0.038635254,62.549618,-44.603054,4.183206,2019-09-02 23:19:51,0.0
847.0,0.14105225,-0.030029297000000003,-0.009399414,88.458015,-74.89313,-2.7328243,2019-09-02 23:19:51,0.0
848.0,0.15032959,-0.02154541,-0.009338379,95.20611,37.76336,-4.4961834000000005,2019-09-02 23:19:51,0.0
849.0,0.11987305,-0.010437011999999999,0.014282227,76.84733,48.450382,-1.5877863,2019-09-02 23:19:51,0.0
850.0,0.12219238,-0.016113281,0.00579834,60.106869999999994,25.236639999999998,3.7099237,2019-09-02 23:19:51,0.0
851.0,0.12792969,-0.015014648,0.0020141601999999997,46.183205,40.755726,12.282442999999999,2019-09-02 23:19:51,0.0
852.0,0.12341308599999999,-0.014160156,0.0033569335999999996,34.931297,47.358779999999996,21.656488,2019-09-02 23:19:51,0.0
853.0,0.12615967,-0.014160156,-0.0029907227,21.740458,51.85496,36.251907,2019-09-02 23:19:51,0.0
854.0,0.11883545,-0.022644043,-0.0024414061999999998,17.10687,56.366413,49.503820000000005,2019-09-02 23:19:51,0.0
855.0,0.11376953,-0.024658202999999997,0.0026855469,15.793892999999999,47.984734,59.419846,2019-09-02 23:19:51,0.0
856.0,0.12170410000000002,-0.028015137000000002,-0.0009765625,20.786259,44.702290000000005,64.66412,2019-09-02 23:19:51,0.0
857.0,0.12023926,-0.024475097999999997,-0.0029907227,23.664122,50.625954,67.16794,2019-09-02 23:19:51,0.0
858.0,0.11846924,-0.026489257999999998,-0.0030517578000000003,22.671754999999997,40.183205,64.0687,2019-09-02 23:19:51,0.0
859.0,0.12249756,-0.02911377,-0.004699707,20.633587,32.328243,61.114502,2019-09-02 23:19:51,0.0
860.0,0.11791992,-0.020446777,0.0029907227,14.21374,34.946564,55.14504,2019-09-02 23:19:51,0.0
861.0,0.117248535,-0.024902344,0.003967285,7.900763499999999,30.290077,52.61832,2019-09-02 23:19:51,0.0
862.0,0.12512207,-0.02331543,0.008117675999999999,12.931297,5.7022900000000005,48.778625,2019-09-02 23:19:51,0.0
863.0,0.12689209,-0.016784668,0.005493164,17.61832,-5.0992365,44.633587,2019-09-02 23:19:51,0.0
864.0,0.13793945,-0.026123047000000003,0.010498047,32.946564,1.8549619,37.91603,2019-09-02 23:19:51,0.0
865.0,0.13555908,-0.012329102,0.023071289,38.503820000000005,6.8778625,29.816793,2019-09-02 23:19:51,0.0
866.0,0.14276123,-0.009155273,0.024902344,42.770992,-16.389313,16.51145,2019-09-02 23:19:51,0.0
867.0,0.15600586,-0.013977051,0.013122558999999999,34.114502,-34.717556,2.7404580000000003,2019-09-02 23:19:51,0.0
868.0,0.14331055,0.004028320300000001,0.02331543,24.946566,45.519085,-11.282442999999999,2019-09-02 23:19:51,0.0
869.0,0.10125732400000001,0.015258788999999998,0.046447754,-13.251907999999998,70.56489,-16.038168,2019-09-02 23:19:51,0.0
870.0,0.0769043,0.0071411133,0.04272461,-51.290077000000004,4.6946564,-12.427481,2019-09-02 23:19:51,0.0
871.0,0.12042236,0.004699707,0.027404785,-55.931297,-40.641220000000004,-17.412214000000002,2019-09-02 23:19:51,0.0
872.0,0.13500977,-0.004211426,0.022399902000000003,-59.519085,26.595419,-27.335878000000005,2019-09-02 23:19:51,0.0
873.0,0.11810303,-0.017822266,0.030151367000000002,-73.64886,29.946565999999997,-39.717556,2019-09-02 23:19:51,0.0
874.0,0.12286377,-0.012390136999999999,0.018554688,-85.16031,18.351145000000002,-49.603054,2019-09-02 23:19:51,0.0
875.0,0.12017822,-0.0146484375,0.0115356445,-99.12977,30.114503999999997,-54.251906999999996,2019-09-02 23:19:51,0.0
876.0,0.11138916,-0.02142334,0.019470215,-99.98473,18.87023,-61.106869999999994,2019-09-02 23:19:51,0.0
877.0,0.11230469,-0.028930664,0.007690429699999999,-94.816795,9.732824,-74.37405,2019-09-02 23:19:52,0.0
878.0,0.109436035,-0.03338623,0.012390136999999999,-79.21374,15.572519,-88.40458000000001,2019-09-02 23:19:52,0.0
879.0,0.11108398400000001,-0.03338623,0.013000488000000001,-70.68701999999999,-4.5725193,-101.64886,2019-09-02 23:19:52,0.0
880.0,0.11975098,-0.038757323999999996,0.006225586,-51.809162,-16.183207,-112.908394,2019-09-02 23:19:52,0.0
881.0,0.11816406,-0.030151367000000002,0.015563965,-35.656490000000005,-17.946566,-117.70228999999999,2019-09-02 23:19:52,0.0
882.0,0.12408447,-0.025512695,0.013061523,-27.473282,-31.664121999999995,-115.41984599999999,2019-09-02 23:19:52,0.0
883.0,0.12384033,-0.01965332,0.01940918,-19.809160000000002,-31.664121999999995,-104.35878000000001,2019-09-02 23:19:52,0.0
884.0,0.12341308599999999,-0.02368164,0.01776123,-24.198473,-31.152671999999995,-88.145035,2019-09-02 23:19:52,0.0
885.0,0.13031006,-0.03326416,0.014709473,-19.931297,-42.312977000000004,-72.0687,2019-09-02 23:19:52,0.0
886.0,0.14880371,-0.01977539,0.014465332,-16.625954,-54.572517000000005,-53.312977000000004,2019-09-02 23:19:52,0.0
887.0,0.1663208,-0.022766112999999998,0.015075683999999999,-17.93893,-42.587788,-37.610687,2019-09-02 23:19:52,0.0
888.0,0.14971924,-0.020812988,0.016601562,-30.603053999999997,-11.244275,-20.053434,2019-09-02 23:19:52,0.0
889.0,0.13903809,-0.019714355,0.025817871000000003,-41.473279999999995,-26.778625,-6.2977099999999995,2019-09-02 23:19:52,0.0
890.0,0.13543701,-0.022399902000000003,0.020812988,-36.0229,-24.61832,7.137404400000001,2019-09-02 23:19:52,0.0
891.0,0.14324951,-0.022155762000000002,0.02911377,-32.885498,-32.458015,14.580152499999999,2019-09-02 23:19:52,0.0
892.0,0.14202881,-0.02142334,0.02154541,-17.358778,-26.977097999999998,15.9007635,2019-09-02 23:19:52,0.0
893.0,0.11499023400000001,-0.024108887000000002,0.03741455,-10.625955000000001,32.076336,24.740458,2019-09-02 23:19:52,0.0
894.0,0.08239746,-0.021606445,0.038513184,-12.480916,25.717558,32.305344,2019-09-02 23:19:52,0.0
895.0,0.09106445,-0.021606445,0.033203125,2.7633588,-14.129771,42.954197,2019-09-02 23:19:52,0.0
896.0,0.12866211,-0.03125,0.019958496000000003,31.67939,-30.900763,49.603054,2019-09-02 23:19:52,0.0
897.0,0.16156006,-0.020202637,0.005004883,54.412212,13.511451000000001,59.77099200000001,2019-09-02 23:19:52,0.0
898.0,0.14404297,-0.022827148,0.008728027,53.35878,29.877863,68.43511,2019-09-02 23:19:52,0.0
899.0,0.1430664,-0.016479492,0.008300781,45.78626,44.328243,76.72519,2019-09-02 23:19:52,0.0
900.0,0.14630127,-0.018859863,0.0032348633000000003,38.396946,38.458015,79.9542,2019-09-02 23:19:52,0.0
901.0,0.14355469,-0.0138549805,0.0014648438,26.274809,43.458015,87.01527,2019-09-02 23:19:52,0.0
902.0,0.13665771,-0.021057128999999997,0.0034179688000000002,20.526718,52.274809999999995,91.55725,2019-09-02 23:19:52,0.0
903.0,0.123046875,-0.015563965,0.0026855469,19.412214000000002,48.450382,93.29771,2019-09-02 23:19:52,0.0
904.0,0.11590576,-0.024658202999999997,0.0028076171999999997,27.114503999999997,39.312977000000004,93.091606,2019-09-02 23:19:52,0.0
905.0,0.11553955,-0.021728516,0.0024414061999999998,36.78626,36.450382,86.145035,2019-09-02 23:19:52,0.0
906.0,0.11407471,-0.019348145,0.0064697266000000005,44.053436,33.007633,79.08397,2019-09-02 23:19:52,0.0
907.0,0.10723877,-0.014160156,0.008361816,37.664124,31.358778000000004,70.16794,2019-09-02 23:19:52,0.0
908.0,0.10961914,-0.016113281,0.00390625,30.580153000000003,29.145039,57.48855,2019-09-02 23:19:52,0.0
909.0,0.11248779,-0.01776123,0.010681152,18.694656,18.748089999999998,43.351147,2019-09-02 23:19:52,0.0
910.0,0.11584473,-0.017822266,0.011352538999999998,16.351145000000002,7.7480917,28.412214000000002,2019-09-02 23:19:52,0.0
911.0,0.11505127,-0.020080566,0.01550293,6.603053599999999,-0.64122134,13.519084,2019-09-02 23:19:52,0.0
912.0,0.11029053,-0.0211792,0.010498047,6.8549619999999996,-11.19084,-5.1221375,2019-09-02 23:19:53,0.0
913.0,0.12176514,-0.017578125,0.01586914,7.068702,-22.030535,-24.816793,2019-09-02 23:19:53,0.0
914.0,0.12750244,-0.021240234,0.020690918,13.061069,-36.374046,-41.267174,2019-09-02 23:19:53,0.0
915.0,0.14422607,-0.018981934,0.017333984,18.687023,-41.580154,-60.549618,2019-09-02 23:19:53,0.0
916.0,0.14221191,-0.023132324,0.02154541,11.641221,-31.145039,-71.89313,2019-09-02 23:19:53,0.0
917.0,0.14733887,-0.0028076171999999997,0.022460938,-5.4503818,-56.0229,-80.854965,2019-09-02 23:19:53,0.0
918.0,0.16052246,0.0021362305,0.013061523,-35.16794,-47.290077000000004,-82.41984599999999,2019-09-02 23:19:53,0.0
919.0,0.15673828,0.010437011999999999,0.0138549805,-74.67939,-7.793893300000001,-79.74045600000001,2019-09-02 23:19:53,0.0
920.0,0.121276855,-0.005065918,0.021484375,-110.49618500000001,15.40458,-75.27481,2019-09-02 23:19:53,0.0
921.0,0.10882568,-0.009155273,0.018737793,-131.1374,18.42748,-69.0229,2019-09-02 23:19:53,0.0
922.0,0.10968017599999999,-0.013427733999999998,0.025695799999999998,-134.78625,6.6488547,-65.816795,2019-09-02 23:19:53,0.0
923.0,0.12487793,-0.031921387,0.015563965,-111.56488999999999,-2.9007633,-62.083969999999994,2019-09-02 23:19:53,0.0
924.0,0.13562012,-0.029174805,0.016601562,-86.87023,20.274809,-55.038166000000004,2019-09-02 23:19:53,0.0
925.0,0.12927246,-0.027160645,0.010070800999999999,-73.40458000000001,33.679390000000005,-44.206109999999995,2019-09-02 23:19:53,0.0
926.0,0.13067627,-0.021728516,0.011169433999999999,-69.96947,37.969467,-31.603053999999997,2019-09-02 23:19:53,0.0
927.0,0.11981201,-0.013305663999999998,0.016418457,-73.34351,36.885498,-16.297710000000002,2019-09-02 23:19:53,0.0
928.0,0.12438965,-0.020874023000000002,0.0134887695,-73.0229,31.152671999999995,-6.4351144,2019-09-02 23:19:53,0.0
929.0,0.109436035,-0.014160156,0.0072021483999999995,-73.36641,36.312977000000004,-5.2671757,2019-09-02 23:19:53,0.0
930.0,0.11303711,-0.030700684,0.014343261999999999,-65.74045600000001,36.587788,-10.389313000000001,2019-09-02 23:19:53,0.0
931.0,0.10430908,-0.029968262000000002,0.010986328,-58.198475,30.244274,-16.854961,2019-09-02 23:19:53,0.0
932.0,0.10107422,-0.02758789,0.014160156,-48.435116,14.938931,-24.221375,2019-09-02 23:19:53,0.0
933.0,0.11303711,-0.025695799999999998,0.019348145,-38.007633,4.076336,-28.786259,2019-09-02 23:19:53,0.0
934.0,0.11608887,-0.028381347999999997,0.024536132999999998,-34.549618,-2.1526718,-28.694656,2019-09-02 23:19:53,0.0
935.0,0.11773682,-0.032287598,0.024353027000000003,-33.709922999999996,-6.7862597000000004,-25.030535,2019-09-02 23:19:53,0.0
936.0,0.11907959,-0.026245117000000002,0.018005371000000003,-29.480916999999998,-12.862596,-21.839695000000003,2019-09-02 23:19:53,0.0
937.0,0.12243652,-0.0234375,0.02734375,-22.076335999999998,-9.152672,-14.549619,2019-09-02 23:19:53,0.0
938.0,0.11480713,-0.028320312,0.031677246,-20.625954,-13.183207000000001,-10.2213745,2019-09-02 23:19:53,0.0
939.0,0.12670898,-0.036132812,0.028808594,-15.717557000000001,-26.847328000000005,-3.923664,2019-09-02 23:19:53,0.0
940.0,0.14831543,-0.03491211,0.030212402000000003,-10.694656,-27.595419,4.038168,2019-09-02 23:19:53,0.0
941.0,0.15234375,-0.04827881,0.028259277000000003,-5.068702,-13.068703,11.557252,2019-09-02 23:19:53,0.0
942.0,0.14807129,-0.050842285,0.03173828,6.145038,-23.732824,20.862595000000002,2019-09-02 23:19:53,0.0
943.0,0.15820312,-0.048583984000000004,0.026855469,23.496183,-28.580153000000003,29.76336,2019-09-02 23:19:53,0.0
944.0,0.1618042,-0.047668457000000004,0.023071289,38.78626,-6.969465700000001,45.221375,2019-09-02 23:19:53,0.0
945.0,0.12664795,-0.041015625,0.036743164,46.595420000000004,51.030533,71.55725,2019-09-02 23:19:53,0.0
946.0,0.10473633,-0.04309082,0.029541016,50.297709999999995,-8.0992365,96.51908,2019-09-02 23:19:53,0.0
947.0,0.1362915,-0.039245605,-0.0007324219,50.87786,-31.290077,117.0687,2019-09-02 23:19:53,0.0
948.0,0.152771,-0.040283203,0.0018310547,36.656490000000005,34.419846,143.01527,2019-09-02 23:19:54,0.0
949.0,0.13574219,-0.048461914,0.017700195,-7.5648856,37.53435,169.38168000000002,2019-09-02 23:19:54,0.0
950.0,0.13903809,-0.06188965,0.008483886999999999,-36.335876,17.496183,194.18321,2019-09-02 23:19:54,0.0
951.0,0.13909912,-0.08111572,0.0017089844000000001,-62.67175699999999,20.419847,218.67937999999998,2019-09-02 23:19:54,0.0
952.0,0.12457275400000001,-0.08898926,-0.008544922,-74.9313,23.312977,231.59541000000002,2019-09-02 23:19:54,0.0
953.0,0.10784912,-0.10095215,-0.0051879883,-65.137405,20.969465,230.48856,2019-09-02 23:19:54,0.0
954.0,0.10089111,-0.09906006,-0.0073242188,-55.76336,10.564885,224.99237000000002,2019-09-02 23:19:54,0.0
955.0,0.08856201,-0.07055664,-0.0037231445,-76.20611,-6.9160304,217.90076000000002,2019-09-02 23:19:54,0.0
956.0,0.06555176,-0.067871094,-0.0025024414000000004,-122.15267,0.46564886,204.41985,2019-09-02 23:19:54,0.0
957.0,0.036010742000000005,-0.0680542,-0.0010986328,-135.36641,-18.839695000000003,188.72519,2019-09-02 23:19:54,0.0
958.0,0.022277832,-0.06774902,-0.005676269499999999,-137.8855,-71.79389,161.0,2019-09-02 23:19:54,0.0
959.0,0.03149414,-0.09185791,-0.018188476999999998,-122.61068999999999,-75.175575,129.28243999999998,2019-09-02 23:19:54,0.0
960.0,0.028442382999999998,-0.11242676,-0.011047363000000001,-80.74045600000001,-48.015266,94.84733,2019-09-02 23:19:54,0.0
961.0,0.028991700000000002,-0.09729004,-0.009033203,-54.045803,-49.778625,56.091602,2019-09-02 23:19:54,0.0
962.0,0.032409667999999996,-0.08416748,-0.012268066000000001,-55.62595400000001,-23.656488,28.12977,2019-09-02 23:19:54,0.0
963.0,0.016845703,-0.100097656,-0.022460938,-111.1145,-11.335877,33.946564,2019-09-02 23:19:54,0.0
964.0,0.018798828,-0.14447021,-0.05895996,-113.0687,-18.885496,28.519083000000002,2019-09-02 23:19:54,0.0
965.0,0.016967773000000002,-0.1362915,-0.049560547,-106.00764,17.022902,19.099237,2019-09-02 23:19:54,0.0
966.0,0.0029296875,-0.12902832,-0.07220459,-105.824425,10.870229,21.549618,2019-09-02 23:19:54,0.0
967.0,-0.0036010741999999997,-0.14172363,-0.07873535,-90.061066,22.977098,16.610687,2019-09-02 23:19:54,0.0
968.0,-0.003967285,-0.12072754,-0.07849121,-67.824425,32.419846,16.244274,2019-09-02 23:19:54,0.0
969.0,0.0006103515599999999,-0.11907959,-0.07574463,-42.038166,16.740458,24.450382,2019-09-02 23:19:54,0.0
970.0,-0.0005493164,-0.08532715,-0.047851562,-6.4198474999999995,16.08397,32.038166,2019-09-02 23:19:54,0.0
971.0,-0.005432129,-0.08380127,-0.06616211,-3.8091602,0.77099234,43.137405,2019-09-02 23:19:54,0.0
972.0,-0.0006713867,-0.08428955,-0.07470703,1.4580153,6.656488400000001,39.10687,2019-09-02 23:19:54,0.0
973.0,-0.004028320300000001,-0.07073974599999999,-0.07757568,-13.022901,14.389313000000001,36.44275,2019-09-02 23:19:54,0.0
974.0,0.0010375977,-0.07244873,-0.07653808599999999,-24.030535,18.015266,38.12214,2019-09-02 23:19:54,0.0
975.0,-0.011352538999999998,-0.07592773400000001,-0.06921387,-56.12214,25.358778,41.78626,2019-09-02 23:19:54,0.0
976.0,-0.005981445300000001,-0.09436035,-0.07476807,-50.404579999999996,32.17557,38.427483,2019-09-02 23:19:54,0.0
977.0,-0.018188476999999998,-0.08123779,-0.07067871,-33.251907,31.450382,33.91603,2019-09-02 23:19:54,0.0
978.0,-0.022583007999999998,-0.085998535,-0.06719971,-29.961832,29.419846999999997,25.244274,2019-09-02 23:19:54,0.0
979.0,-0.02166748,-0.07897949,-0.06829834,-22.839695000000003,21.900763,20.671754999999997,2019-09-02 23:19:54,0.0
980.0,-0.020874023000000002,-0.08331299,-0.06304932,-21.038168,13.0,11.954199000000001,2019-09-02 23:19:54,0.0
981.0,-0.028564452999999997,-0.08660889,-0.072265625,-13.335876999999998,8.541985,4.038168,2019-09-02 23:19:54,0.0
982.0,-0.032714844,-0.08825683599999999,-0.060668945,-7.3816795,5.4656487,-4.2900763,2019-09-02 23:19:54,0.0
983.0,-0.035949707000000004,-0.08666992,-0.07189941400000001,-22.526718,0.5954198,-5.335878,2019-09-02 23:19:54,0.0
984.0,-0.037841797,-0.08886719,-0.08337402,-37.0,4.1984735,-1.5114504,2019-09-02 23:19:55,0.0
985.0,-0.030029297000000003,-0.09857178,-0.08654785,-35.76336,7.2671757,-8.129771,2019-09-02 23:19:55,0.0
986.0,-0.03753662,-0.09716797,-0.1015625,-43.129771999999996,7.10687,-10.748092,2019-09-02 23:19:55,0.0
987.0,-0.037719727,-0.10296631,-0.12554932,-75.0458,-6.4885497,-5.259542,2019-09-02 23:19:55,0.0
988.0,-0.024353027000000003,-0.10430908,-0.1352539,-93.46565,11.519084,-10.549619,2019-09-02 23:19:55,0.0
989.0,-0.02722168,-0.09655762,-0.13458252,-78.816795,1.5343511,-14.870229,2019-09-02 23:19:55,0.0
990.0,-0.020751953,-0.09985351599999999,-0.14337158,-66.43511,-2.0076337,-18.809160000000002,2019-09-02 23:19:55,0.0
991.0,-0.005126953,-0.07635498,-0.124938965,-52.076336,-2.961832,-23.900763,2019-09-02 23:19:55,0.0
992.0,-0.0051879883,-0.05517578,-0.09045410000000001,-39.664124,-14.38168,-20.389313,2019-09-02 23:19:55,0.0
993.0,-0.015808105,-0.035339355,-0.09210205,-38.732826,-24.48855,-17.206106,2019-09-02 23:19:55,0.0
994.0,-0.024902344,-0.027526855,-0.10314941400000001,-55.40458,-14.290076000000001,-24.297710000000002,2019-09-02 23:19:55,0.0
995.0,-0.01776123,-0.026855469,-0.10314941400000001,-42.55725,-20.580153,-25.114504,2019-09-02 23:19:55,0.0
996.0,-0.023071289,-0.025817871000000003,-0.104003906,-52.091602,-23.42748,-19.656488,2019-09-02 23:19:55,0.0
997.0,-0.020874023000000002,-0.024047852,-0.10980224599999999,-56.74046,-19.671754999999997,-18.91603,2019-09-02 23:19:55,0.0
998.0,-0.024414062,-0.033508300000000005,-0.10571289,-37.900764,-10.396947,-28.053434000000003,2019-09-02 23:19:55,0.0
999.0,-0.027282715,-0.03552246,-0.09924316400000001,-23.732824,-15.0992365,-31.61832,2019-09-02 23:19:55,0.0
1000.0,-0.025817871000000003,-0.03503418,-0.09362793,-19.282442,-14.435115,-34.53435,2019-09-02 23:19:55,0.0
1001.0,-0.020629883,-0.027770996000000003,-0.09564209,-33.12214,-12.572519,-33.564884,2019-09-02 23:19:55,0.0
1002.0,-0.021484375,-0.03918457,-0.101501465,-42.320609999999995,-12.954199000000001,-29.480916999999998,2019-09-02 23:19:55,0.0
1003.0,-0.025512695,-0.044006348,-0.10455322,-45.335876,-9.007633,-28.038168,2019-09-02 23:19:55,0.0
1004.0,-0.028808594,-0.039245605,-0.11444092,-42.679390000000005,-7.6870227,-26.08397,2019-09-02 23:19:55,0.0
1005.0,-0.023742676,-0.03527832,-0.12469482400000001,-44.564884,-7.183206,-23.450382,2019-09-02 23:19:55,0.0
1006.0,-0.019226074,-0.04156494,-0.12835693,-34.419846,-3.1755726,-23.57252,2019-09-02 23:19:55,0.0
1007.0,-0.020141601999999998,-0.04083252,-0.15234375,-33.862595,-2.3206108,-14.625955,2019-09-02 23:19:55,0.0
1008.0,-0.020080566,-0.055480957000000004,-0.17822266,-14.534351000000001,-1.8625953999999998,-10.496183,2019-09-02 23:19:55,0.0
1009.0,-0.015563965,-0.037109375,-0.15777588,10.992367,18.473282,-10.931297,2019-09-02 23:19:55,0.0
1010.0,-0.0154418945,-0.034973145,-0.13769531,18.076335999999998,16.328245000000003,-3.3969467000000004,2019-09-02 23:19:55,0.0
1011.0,-0.013000488000000001,-0.039855957000000004,-0.1449585,7.335878,13.717557000000001,10.702291,2019-09-02 23:19:55,0.0
1012.0,-0.008483886999999999,-0.048217773,-0.13348389,19.641222,28.57252,11.534351,2019-09-02 23:19:55,0.0
1013.0,0.0008544922000000001,-0.043395996,-0.08288574,39.366413,17.038168,8.564885,2019-09-02 23:19:55,0.0
1014.0,-0.0061035156000000005,-0.03265381,-0.09313965,42.48855,-5.3511453,25.221375,2019-09-02 23:19:55,0.0
1015.0,-0.0134887695,-0.027832031,-0.13372803,8.877863,-5.335878,33.870228000000004,2019-09-02 23:19:55,0.0
1016.0,-0.022460938,-0.045043945,-0.13909912,5.0229006,17.335878,34.21374,2019-09-02 23:19:55,0.0
1017.0,-0.010559082,-0.038879395,-0.113464355,38.55725,13.877863,29.862595000000002,2019-09-02 23:19:55,0.0
1018.0,-0.0073242188,-0.026062012000000002,-0.09222412,34.427483,3.091603,33.030533,2019-09-02 23:19:55,0.0
1019.0,-0.012390136999999999,-0.018920898000000002,-0.09527588,26.580153000000003,9.824428,32.55725,2019-09-02 23:19:56,0.0
1020.0,-0.01953125,-0.024475097999999997,-0.08062744,0.84732825,15.427481,35.267174,2019-09-02 23:19:56,0.0
1021.0,-0.027282715,-0.039978027,-0.07849121,-10.526717,10.870229,35.0,2019-09-02 23:19:56,0.0
1022.0,-0.025939941,-0.03656006,-0.09527588,-11.664123,15.7786255,35.946564,2019-09-02 23:19:56,0.0
1023.0,-0.037231445,-0.036621094,-0.09820557,-16.190839999999998,13.969465,35.473279999999995,2019-09-02 23:19:56,0.0
1024.0,-0.035888672,-0.040222167999999996,-0.10095215,-20.91603,21.10687,30.030534999999997,2019-09-02 23:19:56,0.0
1025.0,-0.039367676000000004,-0.047302246,-0.10369873,-25.778625,15.267176000000001,25.458015,2019-09-02 23:19:56,0.0
1026.0,-0.036499023,-0.056640625,-0.12072754,-18.160304999999997,14.022901000000001,21.389313,2019-09-02 23:19:56,0.0
1027.0,-0.034729004,-0.04736328,-0.11694336,-10.916031,16.229008,16.068703,2019-09-02 23:19:56,0.0
1028.0,-0.039794922,-0.039001465,-0.12567139,-15.259541500000001,12.091603,9.251908,2019-09-02 23:19:56,0.0
1029.0,-0.03668213,-0.03363037,-0.13360596,-22.717558,9.106871,6.8244276,2019-09-02 23:19:56,0.0
1030.0,-0.03729248,-0.03967285,-0.14465332,-28.534351,15.274809,0.8854962,2019-09-02 23:19:56,0.0
1031.0,-0.040039062,-0.046020507999999995,-0.13964844,-30.305344,9.030535,-3.4122138,2019-09-02 23:19:56,0.0
1032.0,-0.028991700000000002,-0.028381347999999997,-0.15252686,-28.87023,9.847328,-6.5343513,2019-09-02 23:19:56,0.0
1033.0,-0.037902832000000004,-0.029418945,-0.15753174,-18.801527,6.6488547,-10.419847500000001,2019-09-02 23:19:56,0.0
1034.0,-0.015808105,-0.030273438,-0.12664795,3.8854961,6.8244276,-22.10687,2019-09-02 23:19:56,0.0
1035.0,-0.018981934,-0.008911133,-0.11950683599999999,-6.0,-2.6488549999999997,-18.595419,2019-09-02 23:19:56,0.0
1036.0,-0.02154541,-0.014282227,-0.12329101599999999,-4.2137402999999996,-11.389313000000001,-22.91603,2019-09-02 23:19:56,0.0
1037.0,-0.016662598,-0.013000488000000001,-0.12322998,-5.442748,3.3053436,-22.809160000000002,2019-09-02 23:19:56,0.0
1038.0,-0.015380858999999998,-0.020629883,-0.11218262,7.534351299999999,-7.3664119999999995,-26.793894,2019-09-02 23:19:56,0.0
1039.0,-0.01739502,-0.011474608999999998,-0.09613037,-1.6870228999999999,-5.3129773,-23.282442,2019-09-02 23:19:56,0.0
1040.0,-0.020812988,-0.016235351999999998,-0.099731445,-15.167939000000002,-7.038167999999999,-24.099237,2019-09-02 23:19:56,0.0
1041.0,-0.025695799999999998,-0.014038086000000002,-0.088012695,-16.221375,-5.5801525000000005,-24.717558,2019-09-02 23:19:56,0.0
1042.0,-0.022827148,-0.020996094,-0.09637451,-20.587785999999998,-7.152672,-25.274809,2019-09-02 23:19:56,0.0
1043.0,-0.028137207,-0.026062012000000002,-0.101501465,-16.198473,-0.20610687,-25.48855,2019-09-02 23:19:56,0.0
1044.0,-0.026489257999999998,-0.03845215,-0.10296631,-10.167939,-1.1450381,-24.977098,2019-09-02 23:19:56,0.0
1045.0,-0.022460938,-0.032165527,-0.11798096,-1.2137405,-4.9923663000000005,-23.343512,2019-09-02 23:19:56,0.0
1046.0,-0.024597168,-0.037902832000000004,-0.1149292,1.1603054,-3.4809160000000006,-21.595419,2019-09-02 23:19:56,0.0
1047.0,-0.028198242000000002,-0.035583496,-0.11889648400000001,4.053435299999999,-1.2519083999999998,-19.633587,2019-09-02 23:19:56,0.0
1048.0,-0.022766112999999998,-0.034423828,-0.121032715,11.2213745,-4.6488547,-16.541985,2019-09-02 23:19:56,0.0
1049.0,-0.020385742,-0.04095459,-0.12268066400000001,15.633588,0.9847328000000002,-13.21374,2019-09-02 23:19:56,0.0
1050.0,-0.02532959,-0.042114257999999995,-0.13220215,25.12977,9.717557000000001,-9.572519,2019-09-02 23:19:56,0.0
1051.0,-0.014221191000000001,-0.041992188,-0.13122559,34.580154,24.625954,-6.8015265,2019-09-02 23:19:56,0.0
1052.0,-0.005432129,-0.046020507999999995,-0.12799072,47.9771,41.374046,-4.1984735,2019-09-02 23:19:56,0.0
1053.0,0.003967285,-0.05505371,-0.1281128,62.923664,57.16030500000001,-1.0152671,2019-09-02 23:19:56,0.0
1054.0,0.011047363000000001,-0.055908203,-0.12286377,63.267174,78.40458000000001,4.2824425999999995,2019-09-02 23:19:57,0.0
1055.0,0.00982666,-0.06549072,-0.11950683599999999,83.458015,89.21374,2.1145039,2019-09-02 23:19:57,0.0
1056.0,0.009765625,-0.061462402,-0.09484863,125.19084,82.9313,-3.4885497,2019-09-02 23:19:57,0.0
1057.0,0.0068359375,-0.05224609400000001,-0.10882568,109.44275,55.648853,7.4961834000000005,2019-09-02 23:19:57,0.0
1058.0,0.021850586,-0.047302246,-0.12048339999999998,48.091602,64.900764,16.198473,2019-09-02 23:19:57,0.0
1059.0,0.01574707,-0.05871582,-0.11029053,10.167939,76.55725,21.641222,2019-09-02 23:19:57,0.0
1060.0,0.008972168,-0.05987549,-0.10290527,-6.10687,54.885498,31.412214000000002,2019-09-02 23:19:57,0.0
1061.0,0.0048217773,-0.05609131,-0.1116333,-17.396946,41.183205,38.931297,2019-09-02 23:19:57,0.0
1062.0,0.00030517577999999995,-0.064941406,-0.11090088,-10.541985,35.809162,37.694656,2019-09-02 23:19:57,0.0
1063.0,-0.008422852,-0.053649902,-0.11364746,-8.557252,28.412214000000002,33.458015,2019-09-02 23:19:57,0.0
1064.0,-0.013183594,-0.054382324,-0.09686279,-1.1526718,24.748089999999998,29.564885999999998,2019-09-02 23:19:57,0.0
1065.0,-0.018127441,-0.055847167999999996,-0.09033203,2.9923662999999996,22.496183,25.610687,2019-09-02 23:19:57,0.0
1066.0,-0.009521484,-0.06109619,-0.08843994,3.3206108,21.977098,21.114504,2019-09-02 23:19:57,0.0
1067.0,-0.007873535,-0.070129395,-0.08160400400000001,9.633588,22.267176,12.038167999999999,2019-09-02 23:19:57,0.0
1068.0,-0.0005493164,-0.07189941400000001,-0.08258057,17.404581,23.42748,2.8625952999999997,2019-09-02 23:19:57,0.0
1069.0,-0.008239746,-0.085754395,-0.08807373,26.61832,27.786259,-6.3587785000000006,2019-09-02 23:19:57,0.0
1070.0,0.003967285,-0.09649658,-0.0871582,74.01527,38.53435,-23.442749,2019-09-02 23:19:57,0.0
1071.0,-0.001159668,-0.09509277,-0.064453125,158.76335,56.656490000000005,-50.82443,2019-09-02 23:19:57,0.0
1072.0,0.00018310547,-0.10412598,-0.054748535,241.62596000000002,63.71755600000001,-83.938934,2019-09-02 23:19:57,0.0
1073.0,0.010253906,-0.101501465,-0.042907715,250.12977999999998,53.587788,-121.80153,2019-09-02 23:19:57,0.0
1074.0,0.01965332,-0.10882568,-0.051696777,250.12977999999998,43.114502,-173.94656,2019-09-02 23:19:57,0.0
1075.0,0.026062012000000002,-0.10827637,-0.055908203,250.12977999999998,28.74809,-240.01527000000002,2019-09-02 23:19:57,0.0
1076.0,0.05517578,-0.11804199,-0.023803711,250.12977999999998,-18.076335999999998,-250.1374,2019-09-02 23:19:57,0.0
1077.0,0.07458496,-0.09246826,-0.007629394499999999,250.12977999999998,-67.67939,-250.1374,2019-09-02 23:19:57,0.0
1078.0,0.084472656,-0.019592285,-0.013793945,250.12977999999998,-108.33588,-250.1374,2019-09-02 23:19:57,0.0
1079.0,0.123046875,0.070495605,0.06951904,250.12977999999998,-166.84734,-207.61831999999998,2019-09-02 23:19:57,0.0
1080.0,0.15216064,0.028320312,0.04498291,-7.3129773,-250.1374,-93.70992,2019-09-02 23:19:57,0.0
1081.0,0.17352295,-0.035888672,0.008728027,-87.41984599999999,-248.37403999999998,-75.26717,2019-09-02 23:19:57,0.0
1082.0,0.19036865,-0.037353516,-0.008178711,-105.87023,-172.18321,-75.00764000000001,2019-09-02 23:19:57,0.0
1083.0,0.17468262,-0.047607422,-0.00042724610000000003,-117.19084,-59.366413,-66.175575,2019-09-02 23:19:57,0.0
1084.0,0.14233398,-0.053771973,-0.0006713867,-69.72519,-1.2137405,-53.49618,2019-09-02 23:19:57,0.0
1085.0,0.12158203,-0.04949951,-0.001159668,-26.38168,18.595419,-36.328243,2019-09-02 23:19:57,0.0
1086.0,0.1104126,-0.032958984,0.0037231445,0.41984734,21.748089999999998,-16.229008,2019-09-02 23:19:57,0.0
1087.0,0.11004639,-0.020446777,0.012329102,-0.18320611,20.465649,2.8396947,2019-09-02 23:19:57,0.0
1088.0,0.109558105,-0.01739502,0.02331543,-18.946566,10.290076,18.740458,2019-09-02 23:19:57,0.0
1089.0,0.119018555,-0.007629394499999999,0.026916503999999997,-54.51145,-0.007633588,30.022902000000002,2019-09-02 23:19:57,0.0
1090.0,0.11883545,-0.030151367000000002,0.023498535,-76.29771,-2.9389312000000003,30.70229,2019-09-02 23:19:58,0.0
1091.0,0.1260376,-0.029052734,0.016174316,-71.58015400000001,-7.2290077,23.648854999999998,2019-09-02 23:19:58,0.0
1092.0,0.13720703,-0.040649414,0.00982666,-53.221375,-12.824428,13.648855,2019-09-02 23:19:58,0.0
1093.0,0.14520264,-0.03515625,0.0028076171999999997,-31.045801,-28.145039,-0.6259541999999999,2019-09-02 23:19:58,0.0
1094.0,0.16113281,-0.02758789,-0.008911133,-25.61832,-33.48855,-11.465649,2019-09-02 23:19:58,0.0
1095.0,0.17132568,-0.011657715,-0.01171875,-37.961834,14.183207000000001,-9.541985,2019-09-02 23:19:58,0.0
1096.0,0.16705322,-0.018981934,-0.0034790040000000004,-64.23664000000001,29.778625,-10.419847500000001,2019-09-02 23:19:58,0.0
1097.0,0.16937256,-0.017150878999999997,-0.003967285,-95.68701999999999,21.396946,-4.2824425999999995,2019-09-02 23:19:58,0.0
1098.0,0.14276123,-0.020812988,0.012878418,-107.183205,103.496185,4.0229006,2019-09-02 23:19:58,0.0
1099.0,0.08044433599999999,-0.017333984,0.021362305,-120.61068999999999,127.51908,19.412214000000002,2019-09-02 23:19:58,0.0
1100.0,0.055664062,-0.022033691,0.02947998,-102.75572,58.114502,30.404581,2019-09-02 23:19:58,0.0
1101.0,0.09466553,-0.030944824,0.013916016000000002,-41.839695,-42.0,27.57252,2019-09-02 23:19:58,0.0
1102.0,0.121154785,-0.028442382999999998,0.0064697266000000005,3.076336,9.2595415,28.503816999999998,2019-09-02 23:19:58,0.0
1103.0,0.11486816400000001,-0.017333984,0.01776123,11.145039,40.992367,26.29771,2019-09-02 23:19:58,0.0
1104.0,0.10601807,-0.026367188,0.008972168,8.122137,30.282442,18.335878,2019-09-02 23:19:58,0.0
1105.0,0.11157226599999999,-0.00592041,0.016601562,-9.076336,42.74046,13.893129,2019-09-02 23:19:58,0.0
1106.0,0.103515625,-0.014831543,0.020629883,-28.832062,43.381679999999996,6.8320612999999994,2019-09-02 23:19:58,0.0
1107.0,0.10766601599999999,-0.015197753999999999,0.024902344,-38.419846,28.633587,-1.389313,2019-09-02 23:19:58,0.0
1108.0,0.10247803,-0.027038574,0.022644043,-32.93893,10.954199000000001,-10.450381,2019-09-02 23:19:58,0.0
1109.0,0.09588623,-0.032470703,0.019165039,-21.08397,6.236641400000001,-22.595419,2019-09-02 23:19:58,0.0
1110.0,0.10577392599999999,-0.028625487999999998,0.016906738,-5.038168,1.1526718,-32.870228000000004,2019-09-02 23:19:58,0.0
1111.0,0.115234375,-0.032104492000000005,0.018859863,5.2519083,-7.3511453,-39.404579999999996,2019-09-02 23:19:58,0.0
1112.0,0.11499023400000001,-0.020935059,0.021484375,12.236641,-6.0076336999999995,-46.221375,2019-09-02 23:19:58,0.0
1113.0,0.11285400400000001,-0.019226074,0.022094727,3.3664122000000005,-13.648855,-47.290077000000004,2019-09-02 23:19:58,0.0
1114.0,0.11920166,-0.01965332,0.018066406,-8.152672,-29.23664,-48.816795,2019-09-02 23:19:58,0.0
1115.0,0.1430664,-0.022033691,0.013916016000000002,-11.160305000000001,-41.16794,-54.15266999999999,2019-09-02 23:19:58,0.0
1116.0,0.15161133,-0.027709961,0.020568848,-8.618319999999999,-49.0,-57.190838,2019-09-02 23:19:58,0.0
1117.0,0.15692139,-0.021911621000000003,0.012390136999999999,-15.458015,-34.305344,-58.48855,2019-09-02 23:19:58,0.0
1118.0,0.15472412,-0.026672362999999998,0.013366699,-19.816793,-22.442749,-55.091602,2019-09-02 23:19:58,0.0
1119.0,0.1593628,-0.030456543,0.018920898000000002,-15.083969,-42.89313,-51.687022999999996,2019-09-02 23:19:58,0.0
1120.0,0.16003418,-0.023376465,0.015258788999999998,0.091603056,-36.870228000000004,-47.625954,2019-09-02 23:19:58,0.0
1121.0,0.12518310000000002,-0.020141601999999998,0.020385742,-6.3587785000000006,51.717556,-24.465649,2019-09-02 23:19:58,0.0
1122.0,0.07702637,-0.033691406,0.039733887,0.19847329,33.526720000000005,-9.534351,2019-09-02 23:19:58,0.0
1123.0,0.10583496,-0.030883789,0.032348632999999995,50.580154,-98.29008,-9.511451,2019-09-02 23:19:58,0.0
1124.0,0.16278076,-0.02734375,-0.011047363000000001,76.36641,-34.412212,7.7862597000000004,2019-09-02 23:19:58,0.0
1125.0,0.13745117,-0.01727295,0.0068359375,64.25954399999999,68.091606,27.969465000000003,2019-09-02 23:19:58,0.0
1126.0,0.09698486,-0.010253906,0.021606445,43.717556,55.458015,50.190838,2019-09-02 23:19:59,0.0
1127.0,0.11987305,-0.006958008000000001,0.008178711,30.374046000000003,18.099237,70.96183,2019-09-02 23:19:59,0.0
1128.0,0.12561035,-0.007019043000000001,-0.00091552734,16.725191,48.580154,85.26717,2019-09-02 23:19:59,0.0
1129.0,0.12188721,-0.0072631836,0.0073242188,-8.022901,58.068703,94.67939,2019-09-02 23:19:59,0.0
1130.0,0.109436035,-0.023986816,0.012939453,-17.320610000000002,51.9771,99.58778000000001,2019-09-02 23:19:59,0.0
1131.0,0.10906982400000001,-0.026367188,0.011047363000000001,-2.480916,42.85496,92.56489,2019-09-02 23:19:59,0.0
1132.0,0.11419678,-0.032958984,0.011779785,10.801527,35.381679999999996,82.92367,2019-09-02 23:19:59,0.0
1133.0,0.10595703,-0.02545166,0.008422852,30.328245000000003,28.213741,71.52672,2019-09-02 23:19:59,0.0
1134.0,0.11688232400000001,-0.024353027000000003,0.010131836,37.16794,25.290077,54.931297,2019-09-02 23:19:59,0.0
1135.0,0.11273193,-0.02355957,0.0126953125,40.328243,14.770992000000001,39.78626,2019-09-02 23:19:59,0.0
1136.0,0.12072754,-0.020446777,0.017211914,33.351147,10.412213000000001,24.564885999999998,2019-09-02 23:19:59,0.0
1137.0,0.11682129,-0.019348145,0.013305663999999998,16.778625,-0.84732825,9.557252,2019-09-02 23:19:59,0.0
1138.0,0.13415527,-0.02142334,0.00982666,11.2595415,-21.656488,-8.389313000000001,2019-09-02 23:19:59,0.0
1139.0,0.14471436,-0.0146484375,0.007751465,10.961832000000001,-33.129771999999996,-26.12977,2019-09-02 23:19:59,0.0
1140.0,0.15002441,-0.019958496000000003,0.0126953125,4.6793895,-2.9694657,-39.419846,2019-09-02 23:19:59,0.0
1141.0,0.13598633,-0.017333984,0.01965332,-7.519083999999999,9.931297,-44.290077000000004,2019-09-02 23:19:59,0.0
1142.0,0.13568115,-0.012145996000000001,0.012451172,-16.526718,-42.870228000000004,-54.778625,2019-09-02 23:19:59,0.0
1143.0,0.15661621,-0.015075683999999999,0.0061035156000000005,-31.89313,-18.832062,-56.580154,2019-09-02 23:19:59,0.0
1144.0,0.1359253,-0.010314941,0.016113281,-51.381679999999996,40.687022999999996,-62.14504,2019-09-02 23:19:59,0.0
1145.0,0.086120605,-0.0138549805,0.024414062,-84.900764,52.427483,-55.778625,2019-09-02 23:19:59,0.0
1146.0,0.09362793,-0.029968262000000002,0.027404785,-74.79389,-37.076336,-56.351147,2019-09-02 23:19:59,0.0
1147.0,0.14489746,-0.025634766,0.0072021483999999995,-43.885498,-56.16794,-57.0,2019-09-02 23:19:59,0.0
1148.0,0.14227295,-0.021850586,0.012145996000000001,-28.091602,29.786259,-44.366413,2019-09-02 23:19:59,0.0
1149.0,0.105529785,-0.018371582,0.021728516,-35.549618,32.687022999999996,-33.328243,2019-09-02 23:19:59,0.0
1150.0,0.10321045,-0.011413574,0.017028809,-29.221375,4.2061067,-21.0,2019-09-02 23:19:59,0.0
1151.0,0.11212158,-0.01574707,0.0095825195,-36.23664,9.687023,-7.961832000000001,2019-09-02 23:19:59,0.0
1152.0,0.10443115,-0.014770508,0.0178833,-53.0,20.42748,-4.4198474999999995,2019-09-02 23:19:59,0.0
1153.0,0.10412598,-0.029663086,0.013366699,-53.610687,13.702291,-6.664122,2019-09-02 23:19:59,0.0
1154.0,0.10675049,-0.029968262000000002,0.019226074,-47.473279999999995,12.183207000000001,-13.656488000000001,2019-09-02 23:19:59,0.0
1155.0,0.10076904,-0.029663086,0.018310547,-37.427483,7.206106699999999,-26.091601999999998,2019-09-02 23:19:59,0.0
1156.0,0.10980224599999999,-0.02709961,0.021362305,-27.351145000000002,-2.0305343000000002,-33.08397,2019-09-02 23:19:59,0.0
1157.0,0.10369873,-0.02508545,0.023376465,-18.068703,-8.267176,-38.984734,2019-09-02 23:19:59,0.0
1158.0,0.10675049,-0.022888184,0.024963378999999997,-9.618319999999999,-18.885496,-45.10687,2019-09-02 23:19:59,0.0
1159.0,0.11816406,-0.028625487999999998,0.018432617,-3.870229,-32.114502,-48.12214,2019-09-02 23:19:59,0.0
1160.0,0.13598633,-0.0234375,0.018859863,1.3282443000000002,-35.595420000000004,-51.17557,2019-09-02 23:19:59,0.0
1161.0,0.14520264,-0.03125,0.019470215,9.396947,-42.801525,-53.28244399999999,2019-09-02 23:20:00,0.0
1162.0,0.15606689999999998,-0.02355957,0.02154541,7.9923663000000005,-34.137405,-46.717556,2019-09-02 23:20:00,0.0
1163.0,0.17120361,-0.016723633,0.01776123,-0.259542,-43.15267,-36.44275,2019-09-02 23:20:00,0.0
1164.0,0.17266846,-0.020019531,0.008911133,-8.061069,-35.038166,-20.290077,2019-09-02 23:20:00,0.0
1165.0,0.16516113,-0.021057128999999997,0.013122558999999999,-3.7709922999999996,-13.992367000000002,-5.5801525000000005,2019-09-02 23:20:00,0.0
1166.0,0.1270752,-0.013916016000000002,0.02746582,-8.282442999999999,56.870228000000004,13.816792999999999,2019-09-02 23:20:00,0.0
1167.0,0.08703613,-0.018005371000000003,0.030395507999999998,-14.870229,66.35114,36.984734,2019-09-02 23:20:00,0.0
1168.0,0.09857178,-0.025634766,0.03314209,13.931297,-47.473279999999995,42.83206,2019-09-02 23:20:00,0.0
1169.0,0.15716553,-0.01953125,-0.007507324,48.900764,-21.854961,51.015266,2019-09-02 23:20:00,0.0
1170.0,0.13391113,-0.013427733999999998,0.009399414,55.793890000000005,68.061066,61.938930000000006,2019-09-02 23:20:00,0.0
1171.0,0.11242676,-0.014587402,0.015075683999999999,39.87786,59.633587,73.98473,2019-09-02 23:20:00,0.0
1172.0,0.11651611,-0.017456055,0.007019043000000001,34.44275,31.587785999999998,79.78626,2019-09-02 23:20:00,0.0
1173.0,0.11676025400000001,-0.014160156,0.0032958984000000004,24.320610000000002,45.381679999999996,83.496185,2019-09-02 23:20:00,0.0
1174.0,0.12451172,-0.015808105,0.01159668,12.076336,46.603054,83.70992,2019-09-02 23:20:00,0.0
1175.0,0.109436035,-0.013183594,0.012084961000000002,8.21374,45.15267,78.8855,2019-09-02 23:20:00,0.0
1176.0,0.11114502,-0.022583007999999998,0.014526367,16.984734,36.755726,70.10687,2019-09-02 23:20:00,0.0
1177.0,0.10845947,-0.030639648,0.007080078,30.328245000000003,21.496183,58.59542,2019-09-02 23:20:00,0.0
1178.0,0.11193848,-0.022277832,0.006164551,40.10687,23.10687,48.87786,2019-09-02 23:20:00,0.0
1179.0,0.115356445,-0.02746582,0.005493164,37.732826,19.320610000000002,38.267174,2019-09-02 23:20:00,0.0
1180.0,0.11584473,-0.015258788999999998,0.0068969727,30.137404999999998,14.816792999999999,26.206106,2019-09-02 23:20:00,0.0
1181.0,0.11529541,-0.010192871,0.00793457,15.534351000000001,16.931297,15.511451000000001,2019-09-02 23:20:00,0.0
1182.0,0.12011719,-0.014038086000000002,0.010253906,2.5801528,-1.3129771000000001,3.7862597,2019-09-02 23:20:00,0.0
1183.0,0.14190674,-0.017150878999999997,0.002380371,-3.3129769999999996,-27.045801,-14.419847500000001,2019-09-02 23:20:00,0.0
1184.0,0.16503906,-0.015014648,0.0048828125,-5.396946400000001,-24.809160000000002,-31.76336,2019-09-02 23:20:00,0.0
1185.0,0.15753174,-0.02130127,0.0067749023,-17.335878,7.099236500000001,-42.305344,2019-09-02 23:20:00,0.0
1186.0,0.15527344,-0.020324707,0.0045776367,-27.595419,-31.793894,-56.038166000000004,2019-09-02 23:20:00,0.0
1187.0,0.16687012,-0.020324707,0.006713866999999999,-31.167938,-25.152672,-64.41221999999999,2019-09-02 23:20:00,0.0
1188.0,0.12963867,-0.012573242,0.01965332,-37.06107,54.030533,-64.9313,2019-09-02 23:20:00,0.0
1189.0,0.07537842,-0.012268066000000001,0.031677246,-63.46565,67.76335999999999,-55.206109999999995,2019-09-02 23:20:00,0.0
1190.0,0.06750488,-0.021606445,0.035461426000000004,-49.21374,-21.137404999999998,-54.59542,2019-09-02 23:20:00,0.0
1191.0,0.11407471,-0.02368164,0.018615723,-23.519083,-91.8855,-57.64122,2019-09-02 23:20:00,0.0
1192.0,0.13354492,-0.017578125,0.00982666,-5.114504,-2.7557251,-53.297709999999995,2019-09-02 23:20:00,0.0
1193.0,0.11358642599999999,-0.018615723,0.02734375,-5.671755999999999,7.099236500000001,-53.748093000000004,2019-09-02 23:20:00,0.0
1194.0,0.11627197,-0.011657715,0.020568848,-7.335878,-20.12977,-49.045803,2019-09-02 23:20:00,0.0
1195.0,0.12597656,-0.014343261999999999,0.018188476999999998,-21.717558,2.5114503,-33.969467,2019-09-02 23:20:00,0.0
1196.0,0.124816895,-0.011779785,0.020385742,-36.282444,5.3587785000000006,-25.541985,2019-09-02 23:20:00,0.0
1197.0,0.11853027,-0.014587402,0.018981934,-42.694656,10.022901,-15.015267000000001,2019-09-02 23:20:01,0.0
1198.0,0.113342285,-0.029296875,0.022521972999999997,-36.541985,6.885496000000001,-14.351145,2019-09-02 23:20:01,0.0
1199.0,0.104003906,-0.029785156,0.024169922000000003,-18.152672,2.3969467,-14.2213745,2019-09-02 23:20:01,0.0
1200.0,0.10516357400000001,-0.02758789,0.030334472999999997,-10.877863,-4.1603055,-17.679389999999998,2019-09-02 23:20:01,0.0
1201.0,0.115722656,-0.018188476999999998,0.024719237999999998,-9.061069,-3.7175572,-20.702289999999998,2019-09-02 23:20:01,0.0
1202.0,0.12121582,-0.016906738,0.029968262000000002,-7.625953999999999,0.97709924,-23.557251,2019-09-02 23:20:01,0.0
1203.0,0.12042236,-0.01574707,0.026855469,-13.114504,-8.427481,-23.740458,2019-09-02 23:20:01,0.0
1204.0,0.11981201,-0.021240234,0.022949219,-8.580152499999999,-15.106871,-27.015265999999997,2019-09-02 23:20:01,0.0
1205.0,0.14074707,-0.028686523,0.020996094,-4.946564700000001,-23.335878,-27.244274,2019-09-02 23:20:01,0.0
1206.0,0.16229248,-0.024353027000000003,0.024169922000000003,3.778626,-45.320609999999995,-31.23664,2019-09-02 23:20:01,0.0
1207.0,0.17102051,-0.028930664,0.013122558999999999,5.328244000000001,-27.274809,-27.290077,2019-09-02 23:20:01,0.0
1208.0,0.16046143,-0.015625,0.012451172,-3.9770992,-6.259542,-17.274809,2019-09-02 23:20:01,0.0
1209.0,0.14849854,-0.027954102,0.018188476999999998,-2.0305343000000002,-16.969465,-7.862595599999999,2019-09-02 23:20:01,0.0
1210.0,0.1585083,-0.006591797,0.016662598,12.137404,-4.5114503,0.099236645,2019-09-02 23:20:01,0.0
1211.0,0.10668945,-0.009521484,0.024841309,-8.511451,76.541985,21.0,2019-09-02 23:20:01,0.0
1212.0,0.08581543,-0.027038574,0.034851073999999996,5.2977099999999995,-1.0,33.206109999999995,2019-09-02 23:20:01,0.0
1213.0,0.1359253,-0.020996094,0.003112793,40.25954,-65.96947,35.839695,2019-09-02 23:20:01,0.0
1214.0,0.14910889,-0.013793945,-0.0010375977,59.893130000000006,53.389313,53.106869999999994,2019-09-02 23:20:01,0.0
1215.0,0.10717773400000001,-0.012145996000000001,0.015686035,42.564884,62.916030000000006,71.0458,2019-09-02 23:20:01,0.0
1216.0,0.106933594,-0.014221191000000001,0.010437011999999999,30.229008,30.984734000000003,84.24428,2019-09-02 23:20:01,0.0
1217.0,0.11907959,-0.009460449000000001,-0.0020751953,21.358778,41.374046,93.62595,2019-09-02 23:20:01,0.0
1218.0,0.10968017599999999,-0.014953613000000001,0.0044555664,12.7786255,46.625954,96.061066,2019-09-02 23:20:01,0.0
1219.0,0.11206055,-0.020751953,0.012756348,10.274809,34.076336,88.32061,2019-09-02 23:20:01,0.0
1220.0,0.10980224599999999,-0.031677246,0.0099487305,21.496183,30.664121999999995,75.89313,2019-09-02 23:20:01,0.0
1221.0,0.0925293,-0.025695799999999998,0.0072631836,40.312977000000004,18.38168,45.809162,2019-09-02 23:20:01,0.0
1222.0,0.10241699,-0.013122558999999999,0.0045776367,40.335876,10.389313000000001,31.977097999999998,2019-09-02 23:20:01,0.0
1223.0,0.11010742,-0.010009766,0.012145996000000001,35.038166,6.40458,19.946566,2019-09-02 23:20:01,0.0
1224.0,0.12164307,-0.009521484,0.010681152,23.595419,-1.389313,6.442748,2019-09-02 23:20:01,0.0
1225.0,0.1282959,-0.0154418945,0.014953613000000001,21.366413,-9.908397,-5.4885497,2019-09-02 23:20:01,0.0
1226.0,0.14312744,-0.019958496000000003,0.008239746,10.2595415,-20.297710000000002,-17.679389999999998,2019-09-02 23:20:01,0.0
1227.0,0.15301514,-0.017333984,0.0071411133,10.618319999999999,-39.25954,-32.358779999999996,2019-09-02 23:20:01,0.0
1228.0,0.16552734,-0.017700195,-0.00091552734,4.9389315,-25.328245000000003,-40.839695,2019-09-02 23:20:01,0.0
1229.0,0.15496826,-0.0041503906,0.0021362305,-14.969465,3.4122138,-48.045803,2019-09-02 23:20:01,0.0
1230.0,0.15112305,-0.017028809,0.004211426,-30.213741,-28.206106,-50.679390000000005,2019-09-02 23:20:01,0.0
1231.0,0.16143799,-0.019897461,0.0048217773,-35.366413,-29.282442,-60.37404599999999,2019-09-02 23:20:01,0.0
1232.0,0.125,-0.012268066000000001,0.024841309,-50.381679999999996,61.12214,-58.14504,2019-09-02 23:20:02,0.0
1233.0,0.06921387,-0.014526367,0.027648926,-68.30534,49.862595,-55.312977000000004,2019-09-02 23:20:02,0.0
1234.0,0.06958008,-0.016906738,0.036499023,-50.519085,-38.954197,-55.564884,2019-09-02 23:20:02,0.0
1235.0,0.12805176,-0.021606445,0.009643555,-20.206106,-79.72519,-57.885498,2019-09-02 23:20:02,0.0
1236.0,0.13922119,-0.01586914,0.01928711,-9.610686999999999,8.885496,-51.51145,2019-09-02 23:20:02,0.0
1237.0,0.11175537,-0.013183594,0.028625487999999998,-18.526718,9.343511999999999,-44.0,2019-09-02 23:20:02,0.0
1238.0,0.122558594,-0.014343261999999999,0.01727295,-27.480916999999998,-10.167939,-28.23664,2019-09-02 23:20:02,0.0
1239.0,0.11639404,-0.009155273,0.015319824,-43.793890000000005,14.40458,-10.114504,2019-09-02 23:20:02,0.0
1240.0,0.115356445,-0.012756348,0.020141601999999998,-53.22900799999999,12.083969,0.6946565,2019-09-02 23:20:02,0.0
1241.0,0.11639404,-0.020202637,0.022583007999999998,-57.251906999999996,16.748089999999998,6.7328243,2019-09-02 23:20:02,0.0
1242.0,0.10797119,-0.021728516,0.022277832,-43.427483,15.816792999999999,4.7022900000000005,2019-09-02 23:20:02,0.0
1243.0,0.10107422,-0.025268555,0.026245117000000002,-32.770992,5.946564700000001,-2.076336,2019-09-02 23:20:02,0.0
1244.0,0.10888672,-0.022583007999999998,0.024353027000000003,-21.137404999999998,2.1145039,-10.656488000000001,2019-09-02 23:20:02,0.0
1245.0,0.11175537,-0.014343261999999999,0.022460938,-18.496183,-2.8931298,-15.938931,2019-09-02 23:20:02,0.0
1246.0,0.11651611,-0.019714355,0.022888184,-18.801527,-8.274809,-21.885496,2019-09-02 23:20:02,0.0
1247.0,0.1194458,-0.01776123,0.021118164,-22.93893,-7.091603299999999,-23.709923,2019-09-02 23:20:02,0.0
1248.0,0.12402344,-0.016479492,0.030456543,-19.419847,-16.297710000000002,-27.87023,2019-09-02 23:20:02,0.0
1249.0,0.13885498,-0.022888184,0.024536132999999998,-10.7786255,-39.84733,-30.541984999999997,2019-09-02 23:20:02,0.0
1250.0,0.15588379,-0.024291992000000002,0.020935059,-1.3435115,-37.580154,-32.801525,2019-09-02 23:20:02,0.0
1251.0,0.15942383,-0.016784668,0.017456055,-4.152672,-31.404581,-29.931296999999997,2019-09-02 23:20:02,0.0
1252.0,0.16186523,-0.025024414,0.010314941,-12.984733,-12.305344,-24.06107,2019-09-02 23:20:02,0.0
1253.0,0.16137695,-0.022888184,0.020812988,-9.122137,-18.717558,-18.946566,2019-09-02 23:20:02,0.0
1254.0,0.13537598,-0.018737793,0.018676758,-14.0992365,38.969467,-1.7251908999999999,2019-09-02 23:20:02,0.0
1255.0,0.08636474599999999,-0.023925781,0.033203125,-20.534351,51.320609999999995,16.099237,2019-09-02 23:20:02,0.0
1256.0,0.11096191400000001,-0.022399902000000003,0.023376465,13.076336,-58.44275,22.274809,2019-09-02 23:20:02,0.0
1257.0,0.15136719,-0.022460938,-0.015136719,48.007633,-13.328244,33.87786,2019-09-02 23:20:02,0.0
1258.0,0.13287354,-0.014709473,0.010009766,52.78626,68.87786,45.885498,2019-09-02 23:20:02,0.0
1259.0,0.10534668,-0.008056641,0.016418457,30.229008,47.44275,61.709922999999996,2019-09-02 23:20:02,0.0
1260.0,0.12060547,-0.017211914,0.0036621094,24.122137,23.908398000000002,70.80153,2019-09-02 23:20:02,0.0
1261.0,0.11267089999999998,-0.008300781,0.003112793,11.923664,52.480915,79.38931,2019-09-02 23:20:02,0.0
1262.0,0.10467529,-0.01586914,0.015319824,-8.396947,42.312977000000004,82.12977,2019-09-02 23:20:02,0.0
1263.0,0.10961914,-0.026550293,0.010925293,-4.0610685,30.862595000000002,72.0,2019-09-02 23:20:02,0.0
1264.0,0.10522461,-0.028320312,0.010314941,8.183207000000001,29.641221999999996,58.198475,2019-09-02 23:20:02,0.0
1265.0,0.103027344,-0.02545166,0.0154418945,22.343512,23.671754999999997,45.702290000000005,2019-09-02 23:20:02,0.0
1266.0,0.107543945,-0.020019531,0.007446289,39.412212,12.030535,33.358779999999996,2019-09-02 23:20:02,0.0
1267.0,0.11187744,-0.025756836,0.0053710938,39.045803,5.1679387000000006,20.122137,2019-09-02 23:20:02,0.0
1268.0,0.124816895,-0.020263672,0.007019043000000001,30.519083000000002,4.3587785000000006,10.748092,2019-09-02 23:20:03,0.0
1269.0,0.12872314,-0.008056641,0.008178711,18.557251,4.885496,1.8091604,2019-09-02 23:20:03,0.0
1270.0,0.13287354,-0.020690918,0.0045776367,0.53435117,-2.7251909,-6.7557254,2019-09-02 23:20:03,0.0
1271.0,0.14611816,-0.013549805,0.0064086914,-5.740458,-31.450382,-17.839695000000003,2019-09-02 23:20:03,0.0
1272.0,0.16821289,-0.015319824,0.0045776367,-6.152672,-20.908398000000002,-30.343512,2019-09-02 23:20:03,0.0
1273.0,0.14990234,-0.024108887000000002,0.006042480500000001,-23.007633,8.572519,-35.312977000000004,2019-09-02 23:20:03,0.0
1274.0,0.16314697,-0.022216797000000003,0.006652831999999999,-27.526718,-39.396946,-46.595420000000004,2019-09-02 23:20:03,0.0
1275.0,0.1673584,-0.017089844,-0.0030517578000000003,-27.244274,-4.7175574000000005,-52.14504,2019-09-02 23:20:03,0.0
1276.0,0.13232422,-0.013671875,0.021118164,-32.580154,48.381679999999996,-52.0229,2019-09-02 23:20:03,0.0
1277.0,0.08416748,-0.00982666,0.022705077999999997,-49.328243,35.381679999999996,-42.694656,2019-09-02 23:20:03,0.0
1278.0,0.07269287,-0.018798828,0.02935791,-40.206109999999995,-8.954199000000001,-38.427483,2019-09-02 23:20:03,0.0
1279.0,0.12182617,-0.012573242,0.014038086000000002,-17.221375,-61.76336,-32.625954,2019-09-02 23:20:03,0.0
1280.0,0.1293335,-0.011108398,0.0087890625,-8.625955000000001,0.9541985000000001,-24.48855,2019-09-02 23:20:03,0.0
1281.0,0.11853027,-0.0107421875,0.023132324,-9.793892999999999,16.290077,-20.099237,2019-09-02 23:20:03,0.0
1282.0,0.12219238,-0.009765625,0.019104003999999997,-24.877863,3.9694656999999998,-13.671756,2019-09-02 23:20:03,0.0
1283.0,0.11645508,-0.010925293,0.013183594,-39.694656,21.236639999999998,-2.793893,2019-09-02 23:20:03,0.0
1284.0,0.11267089999999998,-0.008972168,0.022705077999999997,-49.931297,22.694656,0.610687,2019-09-02 23:20:03,0.0
1285.0,0.09906006,-0.017028809,0.022033691,-53.435116,19.320610000000002,0.8091603,2019-09-02 23:20:03,0.0
1286.0,0.10040283,-0.03161621,0.023864746000000003,-37.358779999999996,8.877863,-4.3053436,2019-09-02 23:20:03,0.0
1287.0,0.10229492,-0.024658202999999997,0.022827148,-30.015265999999997,5.656488400000001,-14.763359,2019-09-02 23:20:03,0.0
1288.0,0.10040283,-0.016906738,0.024230957,-20.099237,-1.6259542,-24.48855,2019-09-02 23:20:03,0.0
1289.0,0.10900879,-0.01763916,0.022766112999999998,-16.992367,-9.442748,-33.274809999999995,2019-09-02 23:20:03,0.0
1290.0,0.11907959,-0.018798828,0.021484375,-21.87023,-13.175572,-39.48855,2019-09-02 23:20:03,0.0
1291.0,0.13024902,-0.026855469,0.019042969,-20.076335999999998,-23.038168,-43.641220000000004,2019-09-02 23:20:03,0.0
1292.0,0.13781738,-0.02368164,0.015930176,-19.435114000000002,-40.458015,-49.08397,2019-09-02 23:20:03,0.0
1293.0,0.1671753,-0.028869628999999997,0.018249512,-3.076336,-56.35878,-52.64122,2019-09-02 23:20:03,0.0
1294.0,0.17456055,-0.024841309,0.009155273,-7.5801525,-25.824427,-46.351147,2019-09-02 23:20:03,0.0
1295.0,0.16790771,-0.018920898000000002,0.018493652,-7.6946563999999995,-24.328245000000003,-42.06107,2019-09-02 23:20:03,0.0
1296.0,0.15502929999999998,-0.013427733999999998,0.01751709,-19.931297,-12.0,-29.412214000000002,2019-09-02 23:20:03,0.0
1297.0,0.16766357,-0.018188476999999998,0.017578125,-3.0076337000000004,-41.435116,-28.847328000000005,2019-09-02 23:20:03,0.0
1298.0,0.1270752,-0.014160156,0.030395507999999998,-12.656488000000001,65.73283,-9.389313000000001,2019-09-02 23:20:03,0.0
1299.0,0.06707764,-0.030700684,0.03894043,-16.641222,62.312977000000004,5.2442746,2019-09-02 23:20:03,0.0
1300.0,0.10498047,-0.037475586,0.025817871000000003,37.412212,-82.73283,1.7251908999999999,2019-09-02 23:20:03,0.0
1301.0,0.14685059,-0.024230957,-0.013977051,78.83206,-8.480916,14.267176000000001,2019-09-02 23:20:03,0.0
1302.0,0.13085938,-0.006652831999999999,0.0044555664,76.12214,78.99235999999999,30.862595000000002,2019-09-02 23:20:03,0.0
1303.0,0.10388183599999999,-0.0154418945,0.012329102,64.70229,42.82443,45.519085,2019-09-02 23:20:04,0.0
1304.0,0.11645508,-0.016845703,0.0016479492000000002,55.984733999999996,32.969467,56.992367,2019-09-02 23:20:04,0.0
1305.0,0.119018555,-0.011779785,0.005737304699999999,41.618320000000004,62.290077000000004,68.16794,2019-09-02 23:20:04,0.0
1306.0,0.10797119,-0.0061035156000000005,0.008361816,20.977098,49.129771999999996,75.16794,2019-09-02 23:20:04,0.0
1307.0,0.10961914,-0.018188476999999998,0.0048217773,13.862596,44.190838,75.10687,2019-09-02 23:20:04,0.0
1308.0,0.10491943,-0.02520752,0.008056641,13.687023000000002,44.9771,70.43511,2019-09-02 23:20:04,0.0
1309.0,0.103637695,-0.031188965,0.0049438477,21.641222,31.274809,60.755726,2019-09-02 23:20:04,0.0
1310.0,0.11621094,-0.029724121000000003,-0.0034179688000000002,36.755726,19.145039,50.114502,2019-09-02 23:20:04,0.0
1311.0,0.11810303,-0.026184082,-0.0025024414000000004,43.778625,13.923664000000002,37.885498,2019-09-02 23:20:04,0.0
1312.0,0.12298584,-0.020324707,-0.0022583008,44.328243,6.900763499999999,31.175572999999996,2019-09-02 23:20:04,0.0
1313.0,0.12805176,-0.019897461,0.0028686523,27.12977,4.1297708,24.450382,2019-09-02 23:20:04,0.0
1314.0,0.13458252,-0.021484375,-0.004638672,17.755726,-18.824427,16.748089999999998,2019-09-02 23:20:04,0.0
1315.0,0.17358398,-0.01574707,-0.014404297,11.160305000000001,-39.480915,0.64122134,2019-09-02 23:20:04,0.0
1316.0,0.16888428,-0.014587402,-0.008239746,-4.2900763,-11.816792999999999,-9.465649,2019-09-02 23:20:04,0.0
1317.0,0.15179443,-0.015930176,-0.0033569335999999996,-28.25191,14.465648999999999,-19.679389999999998,2019-09-02 23:20:04,0.0
1318.0,0.14923096,-0.01727295,0.0029296875,-34.717556,-28.10687,-30.732824,2019-09-02 23:20:04,0.0
1319.0,0.15710449,-0.01361084,0.003112793,-28.06107,-12.7404585,-39.717556,2019-09-02 23:20:04,0.0
1320.0,0.12164307,-0.010925293,0.024353027000000003,-33.748093,45.679390000000005,-36.85496,2019-09-02 23:20:04,0.0
1321.0,0.07849121,-0.014770508,0.038208007999999995,-45.83206,47.946564,-29.06107,2019-09-02 23:20:04,0.0
1322.0,0.07464599599999999,-0.017150878999999997,0.045288086,-21.770992,-45.030533,-26.648854999999998,2019-09-02 23:20:04,0.0
1323.0,0.11444092,-0.012023926,0.018249512,1.4351145,-60.37404599999999,-22.564885999999998,2019-09-02 23:20:04,0.0
1324.0,0.12231445,-0.0134887695,0.022033691,10.580152499999999,12.145039,-15.824428,2019-09-02 23:20:04,0.0
1325.0,0.10815430000000001,-0.008544922,0.029296875,-5.5648856,-3.534351,-16.89313,2019-09-02 23:20:04,0.0
1326.0,0.12036133,-0.010070800999999999,0.01574707,-24.160304999999997,-5.076336,-17.954199,2019-09-02 23:20:04,0.0
1327.0,0.1194458,-0.0115356445,0.014953613000000001,-38.374046,22.152672,-19.137404999999998,2019-09-02 23:20:04,0.0
1328.0,0.10217285,-0.008850098,0.028076172000000003,-50.870228000000004,18.435114000000002,-21.862595000000002,2019-09-02 23:20:04,0.0
1329.0,0.10638428,-0.018798828,0.023376465,-53.85496,15.282442999999999,-22.404581,2019-09-02 23:20:04,0.0
1330.0,0.1083374,-0.013977051,0.025939941,-38.76336,6.3587785000000006,-25.977098,2019-09-02 23:20:04,0.0
1331.0,0.10827637,-0.022583007999999998,0.020812988,-21.320610000000002,-4.557252,-30.671754999999997,2019-09-02 23:20:04,0.0
1332.0,0.11682129,-0.027282715,0.021850586,-16.91603,-6.664122,-34.595420000000004,2019-09-02 23:20:04,0.0
1333.0,0.119628906,-0.016174316,0.017211914,-14.267176000000001,-4.908396700000001,-40.25954,2019-09-02 23:20:04,0.0
1334.0,0.12524414,-0.018554688,0.01727295,-17.343512,-12.267176,-43.641220000000004,2019-09-02 23:20:04,0.0
1335.0,0.13043213,-0.021728516,0.014892578,-20.671754999999997,-27.793894,-46.503820000000005,2019-09-02 23:20:04,0.0
1336.0,0.14508057,-0.020507812,0.016235351999999998,-18.854961,-38.251907,-51.503820000000005,2019-09-02 23:20:04,0.0
1337.0,0.16430664,-0.027160645,0.006225586,-13.022901,-46.14504,-56.862595,2019-09-02 23:20:04,0.0
1338.0,0.17059326,-0.025390625,0.010803223,-13.656488000000001,-27.687022999999996,-54.15266999999999,2019-09-02 23:20:04,0.0
1339.0,0.16125488,-0.036315917999999996,0.015930176,-11.557252,-17.549618,-48.908398,2019-09-02 23:20:05,0.0
1340.0,0.13232422,-0.031921387,0.028320312,-0.64122134,-9.870229,-37.694656,2019-09-02 23:20:05,0.0
1341.0,0.11730957,-0.023864746000000003,0.026550293,15.183207000000001,-9.893129,-24.656488,2019-09-02 23:20:05,0.0
1342.0,0.09924316400000001,-0.03112793,0.026794434,22.51145,25.213741,-5.526717700000001,2019-09-02 23:20:05,0.0
1343.0,0.11187744,-0.041259766,0.024536132999999998,51.450382,-59.015266000000004,-0.65648854,2019-09-02 23:20:05,0.0
1344.0,0.17254639,-0.040771484,-0.015258788999999998,91.229004,-50.221375,7.603053599999999,2019-09-02 23:20:05,0.0
1345.0,0.16003418,-0.022827148,-0.012207031,82.503815,65.34351,33.709922999999996,2019-09-02 23:20:05,0.0
1346.0,0.12341308599999999,-0.016296387,-0.007446289,74.92367,113.31298000000001,53.267174,2019-09-02 23:20:05,0.0
1347.0,0.12017822,-0.012817383,0.009643555,61.48855,47.160305,77.56489,2019-09-02 23:20:05,0.0
1348.0,0.13372803,0.0007324219,0.0006103515599999999,47.038166,70.94655999999999,101.48855,2019-09-02 23:20:05,0.0
1349.0,0.12286377,-0.0028076171999999997,0.006042480500000001,17.503817,83.24428,119.54961999999999,2019-09-02 23:20:05,0.0
1350.0,0.11138916,-0.009399414,0.008117675999999999,-13.580152499999999,69.31298000000001,133.81679,2019-09-02 23:20:05,0.0
1351.0,0.117004395,-0.017028809,0.0016479492000000002,-21.404581,58.610687,135.71756000000002,2019-09-02 23:20:05,0.0
1352.0,0.11767578,-0.02178955,-6.1035155999999994e-05,-9.564885,60.969467,125.23664,2019-09-02 23:20:05,0.0
1353.0,0.11187744,-0.031555176000000004,-0.0015258789000000001,2.2366412,56.068703,110.41221999999999,2019-09-02 23:20:05,0.0
1354.0,0.11090088,-0.037963867000000005,0.0021362305,23.816793,34.129771999999996,85.63359,2019-09-02 23:20:05,0.0
1355.0,0.117370605,-0.031188965,0.0037231445,42.160305,27.801527,62.923664,2019-09-02 23:20:05,0.0
1356.0,0.11663818,-0.023864746000000003,0.0065307617,42.984734,15.687023000000002,39.870228000000004,2019-09-02 23:20:05,0.0
1357.0,0.12548828,-0.030578612999999998,0.0068359375,45.374046,-12.236641,14.297709,2019-09-02 23:20:05,0.0
1358.0,0.16021729,-0.015930176,0.0008544922000000001,20.709923,-26.328245000000003,-36.93893,2019-09-02 23:20:05,0.0
1359.0,0.14025879,-0.010192871,0.0065307617,-9.442748,6.1603055,-49.16794,2019-09-02 23:20:05,0.0
1360.0,0.14160156,-0.010681152,0.013671875,-27.48855,-14.312976999999998,-62.587788,2019-09-02 23:20:05,0.0
1361.0,0.14019775,-0.0008544922000000001,0.009155273,-48.595420000000004,-21.236639999999998,-70.0458,2019-09-02 23:20:05,0.0
1362.0,0.10845947,0.0015869141,0.018127441,-72.36641,45.068703,-68.48092,2019-09-02 23:20:05,0.0
1363.0,0.07751465,-0.018859863,0.025390625,-99.778625,15.015267000000001,-68.12214,2019-09-02 23:20:05,0.0
1364.0,0.105529785,-0.017333984,0.02130127,-86.618324,-56.664124,-71.41984599999999,2019-09-02 23:20:05,0.0
1365.0,0.14483643,-0.031433105,0.016113281,-52.358779999999996,-35.93893,-75.9771,2019-09-02 23:20:05,0.0
1366.0,0.14227295,-0.017578125,0.01965332,-39.10687,-3.961832,-76.32061,2019-09-02 23:20:05,0.0
1367.0,0.13183594,-0.016906738,0.020263672,-47.206109999999995,2.129771,-69.770996,2019-09-02 23:20:05,0.0
1368.0,0.11859131,-0.020935059,0.017578125,-50.83206,1.2137405,-65.64886,2019-09-02 23:20:05,0.0
1369.0,0.121032715,-0.0053100586,0.01977539,-52.305344,-5.740458,-58.061069999999994,2019-09-02 23:20:05,0.0
1370.0,0.11950683599999999,-0.018676758,0.018188476999999998,-59.85496,-4.5114503,-53.59542,2019-09-02 23:20:05,0.0
1371.0,0.113220215,-0.0234375,0.014892578,-63.46565,7.038167999999999,-54.908398,2019-09-02 23:20:05,0.0
1372.0,0.10455322,-0.03253174,0.020202637,-61.37404599999999,3.8778627,-58.312977000000004,2019-09-02 23:20:06,0.0
1373.0,0.10949707,-0.026611327999999997,0.017150878999999997,-51.053436,-10.946565,-65.60305,2019-09-02 23:20:06,0.0
1374.0,0.12152099599999999,-0.031677246,0.01953125,-37.862595,-19.664122,-69.36641,2019-09-02 23:20:06,0.0
1375.0,0.11975098,-0.023376465,0.022155762000000002,-35.87786,-10.374044999999999,-72.48092,2019-09-02 23:20:06,0.0
1376.0,0.11743164,-0.034057617000000005,0.02532959,-36.17557,-10.519084,-71.824425,2019-09-02 23:20:06,0.0
1377.0,0.12145996,-0.033569336,0.017822266,-30.175572999999996,-42.412212,-70.66412,2019-09-02 23:20:06,0.0
1378.0,0.15222168,-0.03112793,0.0064086914,-17.61832,-59.068703,-67.78626,2019-09-02 23:20:06,0.0
1379.0,0.17047119,-0.03186035,0.003112793,-4.1221375,-45.46565,-54.62595400000001,2019-09-02 23:20:06,0.0
1380.0,0.16552734,-0.032104492000000005,0.0115356445,0.4427481,-18.389313,-39.0229,2019-09-02 23:20:06,0.0
1381.0,0.15106201,-0.031433105,0.017028809,5.2519083,-18.450382,-18.480917,2019-09-02 23:20:06,0.0
1382.0,0.14245605,-0.02520752,0.021362305,9.503817,-20.137404999999998,6.5114503,2019-09-02 23:20:06,0.0
1383.0,0.15106201,-0.020629883,0.014038086000000002,25.267176,-10.343511999999999,23.251910000000002,2019-09-02 23:20:06,0.0
1384.0,0.09216308599999999,-0.03186035,0.029296875,16.076335999999998,81.76335999999999,46.129771999999996,2019-09-02 23:20:06,0.0
1385.0,0.08087158,-0.042114257999999995,0.042785645,43.053436,-4.8625956,57.59542,2019-09-02 23:20:06,0.0
1386.0,0.14367676,-0.037597656,-0.0043945312,94.20611,-78.618324,54.106869999999994,2019-09-02 23:20:06,0.0
1387.0,0.16888428,-0.027893066,-0.01739502,121.74808999999999,38.587788,64.45038000000001,2019-09-02 23:20:06,0.0
1388.0,0.14263916,-0.020446777,-0.008605957,124.29771000000001,91.58778000000001,75.137405,2019-09-02 23:20:06,0.0
1389.0,0.13378906,-0.009643555,0.0068359375,115.16031000000001,49.908398,81.15267,2019-09-02 23:20:06,0.0
1390.0,0.13354492,-0.0020751953,0.00030517577999999995,101.061066,79.45038000000001,90.84733,2019-09-02 23:20:06,0.0
1391.0,0.13122559,0.00042724610000000003,0.007629394499999999,60.961833999999996,77.618324,102.08397,2019-09-02 23:20:06,0.0
1392.0,0.12414551,-0.0025024414000000004,0.005065918,29.38168,69.32825,110.05344,2019-09-02 23:20:06,0.0
1393.0,0.12554932,-0.014038086000000002,-0.002380371,5.9541984,71.58015400000001,113.47328,2019-09-02 23:20:06,0.0
1394.0,0.11846924,-0.02166748,0.0031738281,1.9236640999999999,68.03817,107.00764,2019-09-02 23:20:06,0.0
1395.0,0.119140625,-0.030883789,-0.002319336,9.839694999999999,58.48855,99.51908,2019-09-02 23:20:06,0.0
1396.0,0.11877441400000001,-0.029785156,-0.0017700195,24.839695000000003,52.427483,82.63359,2019-09-02 23:20:06,0.0
1397.0,0.11804199,-0.024597168,-0.0009765625,33.381679999999996,43.496179999999995,65.54961999999999,2019-09-02 23:20:06,0.0
1398.0,0.11676025400000001,-0.016418457,-0.00018310547,22.748089999999998,21.587785999999998,33.328243,2019-09-02 23:20:06,0.0
1399.0,0.1317749,-0.02319336,-0.002319336,16.114504,-9.961832000000001,13.816792999999999,2019-09-02 23:20:06,0.0
