measurement,Acc_X,Acc_Y,Acc_Z,Gyr_X,Gyr_Y,Gyr_Z,Time(hh:mm:ss),Label
148.0,0.05279541,0.022460938,0.11285400400000001,-14.282442999999999,9.007633,-1.9770991999999998,2019-09-03 13:56:40,5.0
149.0,0.054748535,0.017822266,0.11810303,-13.954199,7.2137402999999996,-2.519084,2019-09-03 13:56:40,5.0
150.0,0.054504395,0.024169922000000003,0.11285400400000001,-7.969465700000001,4.9389315,-4.343511599999999,2019-09-03 13:56:40,5.0
151.0,0.05267334,0.023071289,0.11779785,-11.183207000000001,4.5801525000000005,-4.946564700000001,2019-09-03 13:56:40,5.0
152.0,0.06274414,0.024414062,0.12023926,-7.076336,2.6259542000000002,-4.2900763,2019-09-03 13:56:40,5.0
153.0,0.05090332,0.012207031,0.115234375,-8.656488000000001,8.175572,-4.1984735,2019-09-03 13:56:40,5.0
154.0,0.052856445,0.0087890625,0.117248535,-2.0076337,4.0839696000000005,-0.8091603,2019-09-03 13:56:40,5.0
155.0,0.05279541,0.0079956055,0.11358642599999999,31.335878000000005,2.129771,-2.3664122000000005,2019-09-03 13:56:40,5.0
156.0,0.048828125,0.017578125,0.11279297,53.778625,-1.9694656000000004,-2.572519,2019-09-03 13:56:40,5.0
157.0,0.05633545,0.034484863,0.10876465,44.923664,-6.4885497,-4.9541984,2019-09-03 13:56:40,5.0
158.0,0.049133300000000005,0.030212402000000003,0.11193848,43.412212,-10.007633,-6.473282299999999,2019-09-03 13:56:40,5.0
159.0,0.055114746,0.028381347999999997,0.10906982400000001,60.389313,-11.671756,-9.374044999999999,2019-09-03 13:56:40,5.0
160.0,0.055419922,0.03527832,0.10430908,80.862595,-10.251908,-10.419847500000001,2019-09-03 13:56:40,5.0
161.0,0.058532715,0.049743652,0.10534668,78.61069,-8.671756,-10.648855000000001,2019-09-03 13:56:40,5.0
162.0,0.06225586,0.05102539,0.10192871,78.0458,-6.396946400000001,-9.641221,2019-09-03 13:56:40,5.0
163.0,0.06536865,0.06024169999999999,0.10089111,78.908394,-9.19084,-7.2137402999999996,2019-09-03 13:56:40,5.0
164.0,0.058776855,0.049621582000000004,0.09777832,81.66412,-9.984733,-7.1450380000000004,2019-09-03 13:56:40,5.0
165.0,0.07330322,0.055847167999999996,0.09344482400000001,87.84733,-10.106871,-7.2519083,2019-09-03 13:56:40,5.0
166.0,0.06225586,0.06738281,0.09161377,101.824425,-11.78626,-8.717557000000001,2019-09-03 13:56:40,5.0
167.0,0.06555176,0.07952881,0.07397461,79.55725,-6.015267400000001,-8.679389,2019-09-03 13:56:40,5.0
168.0,0.053833007999999995,0.08294678,0.07696533,57.946564,-4.6870227,-6.190840000000001,2019-09-03 13:56:40,5.0
169.0,0.051818848,0.09918213,0.07330322,40.931297,-1.7175573,-5.374046,2019-09-03 13:56:40,5.0
170.0,0.052734375,0.09185791,0.07043457,-6.480916000000001,4.9389315,-1.0610687,2019-09-03 13:56:40,5.0
171.0,0.05126953,0.07165527,0.076293945,-8.541985,2.6259542000000002,0.97709924,2019-09-03 13:56:40,5.0
172.0,0.06890869,0.07458496,0.0769043,4.625954,2.076336,1.7633588,2019-09-03 13:56:40,5.0
173.0,0.05529785,0.078063965,0.07769775400000001,13.992367000000002,-4.374046,1.6793894,2019-09-03 13:56:40,5.0
174.0,0.06225586,0.08514404,0.07904053,14.343511999999999,-0.71755725,2.2824428,2019-09-03 13:56:40,5.0
175.0,0.056640625,0.07672119,0.07232666,20.465649,1.1450381,-0.8015267,2019-09-03 13:56:40,5.0
176.0,0.059020996,0.08886719,0.06799316400000001,16.351145000000002,3.8625953,1.2900764,2019-09-03 13:56:40,5.0
177.0,0.06585693,0.10455322,0.06500244,15.389313000000001,-1.1297709999999999,0.32061067,2019-09-03 13:56:40,5.0
178.0,0.06878662,0.080078125,0.06616211,-17.08397,7.7328243,-0.17557251,2019-09-03 13:56:40,5.0
179.0,0.070495605,0.06939697,0.07055664,8.946565,1.5496184,-6.4656487,2019-09-03 13:56:40,5.0
180.0,0.06640625,0.0949707,0.062438965,0.77099234,0.6259541999999999,-2.870229,2019-09-03 13:56:40,5.0
181.0,0.061950684000000006,0.08428955,0.0680542,-24.778625,11.977099,-2.961832,2019-09-03 13:56:40,5.0
182.0,0.06304932,0.08111572,0.07128906,-13.427481,9.038167999999999,-5.152672,2019-09-03 13:56:40,5.0
183.0,0.062561035,0.08215332,0.072265625,-1.6793894,6.519083999999999,-4.3893127,2019-09-03 13:56:40,5.0
184.0,0.06188965,0.08129883,0.06719971,-3.8625953,3.7099237,-3.793893,2019-09-03 13:56:41,5.0
185.0,0.064331055,0.07574463,0.06530762,2.2137403,2.1526718,-3.8854961,2019-09-03 13:56:41,5.0
186.0,0.060302734000000004,0.082092285,0.070495605,11.114504,2.519084,-2.5496182000000003,2019-09-03 13:56:41,5.0
187.0,0.062316895,0.07928467,0.0647583,-2.0076337,2.7328243,-0.23664123,2019-09-03 13:56:41,5.0
188.0,0.061462402,0.08648682,0.06945801,0.77862597,3.1145039,-1.6641221000000002,2019-09-03 13:56:41,5.0
189.0,0.06390381,0.08874512,0.074035645,-8.21374,7.862595599999999,-1.6412214,2019-09-03 13:56:41,5.0
190.0,0.06341553,0.085754395,0.06854248,-12.9007635,10.603053,-4.9007635,2019-09-03 13:56:41,5.0
191.0,0.061462402,0.08404541,0.06781006,-17.465649,17.114504,-5.8702292,2019-09-03 13:56:41,5.0
192.0,0.07519531,0.085754395,0.06292724599999999,-12.038167999999999,9.557252,-4.3053436,2019-09-03 13:56:41,5.0
193.0,0.06567383,0.08624267599999999,0.06420898400000001,1.5114504,12.725191,-7.259542,2019-09-03 13:56:41,5.0
194.0,0.07055664,0.08465576,0.07379150400000001,-4.7938933,14.977098999999999,-7.6488547,2019-09-03 13:56:41,5.0
195.0,0.060668945,0.08062744,0.07397461,9.969465,6.2519083,-9.641221,2019-09-03 13:56:41,5.0
196.0,0.06323242,0.08972168,0.07409668,5.9389315,5.9389315,-5.015267400000001,2019-09-03 13:56:41,5.0
197.0,0.061340332000000004,0.09411621,0.05895996,0.15267175,7.7862597000000004,-3.8854961,2019-09-03 13:56:41,5.0
198.0,0.068481445,0.09008789,0.06469726599999999,-2.870229,11.045800999999999,-3.206107,2019-09-03 13:56:41,5.0
199.0,0.059448242000000005,0.08416748,0.06378174,-10.931297,10.381680000000001,-4.2900763,2019-09-03 13:56:41,5.0
200.0,0.06109619,0.08850098,0.06726074,-7.1450380000000004,8.206107000000001,-3.4274809999999998,2019-09-03 13:56:41,5.0
201.0,0.06793213,0.09265137,0.05871582,-36.038166,11.908397,-7.519083999999999,2019-09-03 13:56:41,5.0
202.0,0.064941406,0.105529785,0.07330322,-85.87786,18.480917,-4.2977099999999995,2019-09-03 13:56:41,5.0
203.0,0.06896973,0.08782959,0.07141113,-129.47328000000002,27.519083000000002,-5.5419846,2019-09-03 13:56:41,5.0
204.0,0.07043457,0.07061767599999999,0.08312988,-136.96947,27.93893,-7.557252,2019-09-03 13:56:41,5.0
205.0,0.07696533,0.05822754,0.093811035,-141.96184,31.854961,-9.694656,2019-09-03 13:56:41,5.0
206.0,0.07537842,0.036132812,0.09008789,-103.39695,31.656488,-6.862595599999999,2019-09-03 13:56:41,5.0
207.0,0.06878662,0.047424315999999994,0.103027344,-77.938934,38.496179999999995,1.6717557,2019-09-03 13:56:41,5.0
208.0,0.04650879,0.049743652,0.11584473,-95.16031,48.366413,-2.70229,2019-09-03 13:56:41,5.0
209.0,0.047790527,0.060913086,0.11566162,-103.79389,47.84733,-4.625954,2019-09-03 13:56:41,5.0
210.0,0.030334472999999997,0.06347656,0.12945557,-55.190838,51.83206,8.923664,2019-09-03 13:56:41,5.0
211.0,0.028564452999999997,0.036865234,0.11285400400000001,-93.47328,56.900764,8.832061,2019-09-03 13:56:41,5.0
212.0,0.051513672,0.05041504,0.1260376,-88.26717,40.809162,20.442749,2019-09-03 13:56:41,5.0
213.0,0.051208496,0.045166015999999996,0.121276855,-79.496185,31.114503999999997,33.732826,2019-09-03 13:56:41,5.0
214.0,0.062316895,0.020141601999999998,0.13104248,-71.32825,2.6335877999999995,58.038166000000004,2019-09-03 13:56:41,5.0
215.0,0.030029297000000003,0.09295654,0.12841797,-58.793890000000005,16.763360000000002,39.274809999999995,2019-09-03 13:56:41,5.0
216.0,0.15423584,0.026550293,0.050476074,-250.1374,-29.175572999999996,38.770992,2019-09-03 13:56:41,5.0
217.0,0.0115356445,-0.042419434000000006,0.25439453,-86.66412,60.22900799999999,-2.519084,2019-09-03 13:56:41,5.0
218.0,0.08496094,-0.026550293,0.08557129,-57.648853,-4.763358599999999,53.969467,2019-09-03 13:56:41,5.0
219.0,0.046142578,0.008117675999999999,0.1295166,-61.74046,18.320610000000002,31.67939,2019-09-03 13:56:41,5.0
220.0,0.042053223,-0.009765625,0.11071777,-44.78626,1.7099236,28.931296999999997,2019-09-03 13:56:42,5.0
221.0,0.0546875,-0.008728027,0.08734131,-21.648854999999998,10.519084,28.282442,2019-09-03 13:56:42,5.0
222.0,0.04333496,-0.0065307617,0.08544922,-27.984734000000003,21.755726,24.290077,2019-09-03 13:56:42,5.0
223.0,0.04058838,-0.013427733999999998,0.08959961,-27.534351,25.305344,20.312977,2019-09-03 13:56:42,5.0
224.0,0.04901123,-0.019958496000000003,0.07836914,-38.969467,31.801527,15.938931,2019-09-03 13:56:42,5.0
225.0,0.031555176000000004,-0.02520752,0.08312988,-17.755726,44.358779999999996,7.656488400000001,2019-09-03 13:56:42,5.0
226.0,0.026977539,-0.030761719,0.09814453,-27.80916,48.91603,-1.6793894,2019-09-03 13:56:42,5.0
227.0,0.02911377,-0.018066406,0.11242676,-25.694656,39.137405,-8.106871,2019-09-03 13:56:42,5.0
228.0,0.023010253999999997,-0.036376953,0.11657715,-29.580153000000003,38.717556,-15.274809,2019-09-03 13:56:42,5.0
229.0,0.021606445,-0.029174805,0.1149292,-18.992367,32.480915,-15.167939000000002,2019-09-03 13:56:42,5.0
230.0,0.026184082,-0.04559326,0.11627197,10.335877,29.213741,-15.19084,2019-09-03 13:56:42,5.0
231.0,0.018432617,-0.022033691,0.12066650400000001,32.778625,30.045801,-13.442748000000002,2019-09-03 13:56:42,5.0
232.0,0.01965332,-0.010864258,0.13226318,7.2137402999999996,23.236639999999998,-14.297709,2019-09-03 13:56:42,5.0
233.0,0.03363037,-0.040649414,0.17022705,-21.305344,10.9007635,-30.038168,2019-09-03 13:56:42,5.0
234.0,0.033508300000000005,-0.02545166,0.16821289,-2.129771,13.610686999999999,-35.06107,2019-09-03 13:56:42,5.0
235.0,-0.00592041,-0.01763916,0.15490723,1.8549619,2.7557251,-9.480916,2019-09-03 13:56:42,5.0
236.0,0.04248047,-0.03186035,0.117248535,3.2366412,-13.648855,2.3664122000000005,2019-09-03 13:56:42,5.0
237.0,0.028320312,-0.03503418,0.12438965,15.0992365,4.519083999999999,0.38167940000000006,2019-09-03 13:56:42,5.0
238.0,0.029968262000000002,-0.02130127,0.12756348,19.236639999999998,-1.8854961,2.4122138,2019-09-03 13:56:42,5.0
239.0,0.03930664,-0.02532959,0.11303711,4.6870227,-7.9923663000000005,0.31297709999999995,2019-09-03 13:56:42,5.0
240.0,0.03527832,-0.024780273,0.11199951,-7.89313,-3.9847328999999996,-2.8244274,2019-09-03 13:56:42,5.0
241.0,0.042419434000000006,-0.018554688,0.12152099599999999,-3.59542,1.4503816,-7.10687,2019-09-03 13:56:42,5.0
242.0,0.04473877,-0.02319336,0.12463379,-0.07633588,0.122137405,-8.870229,2019-09-03 13:56:42,5.0
243.0,0.037109375,-0.017089844,0.11407471,3.206107,3.6641220000000003,-10.396947,2019-09-03 13:56:42,5.0
244.0,0.039611816,-0.018920898000000002,0.12530518,7.8244276,10.610686999999999,-10.977099,2019-09-03 13:56:42,5.0
245.0,0.036071777,-0.014160156,0.13409424,-3.2442749,10.244275,-9.9007635,2019-09-03 13:56:42,5.0
246.0,0.03173828,-0.018432617,0.12835693,-6.5496182,6.625953999999999,-5.3129773,2019-09-03 13:56:42,5.0
247.0,0.024963378999999997,-0.016418457,0.12335205,-4.984732599999999,7.5801525,-5.7328243,2019-09-03 13:56:42,5.0
248.0,0.036132812,-0.0115356445,0.12365723,-8.770992,6.839694500000001,-7.839694500000001,2019-09-03 13:56:42,5.0
249.0,0.03552246,-0.019104003999999997,0.12359619,-8.412213000000001,6.335878,-8.343511999999999,2019-09-03 13:56:42,5.0
250.0,0.0345459,-0.011047363000000001,0.122924805,-6.473282299999999,6.4885497,-7.4961834000000005,2019-09-03 13:56:42,5.0
251.0,0.029724121000000003,-0.018127441,0.12377930000000001,-4.3206105,5.1755724,-7.0229006,2019-09-03 13:56:42,5.0
252.0,0.044067382999999995,-0.016723633,0.12548828,3.0,0.35877863,-7.183206,2019-09-03 13:56:42,5.0
253.0,0.0357666,-0.022766112999999998,0.12408447,-6.053435299999999,7.396946400000001,-5.2977099999999995,2019-09-03 13:56:42,5.0
254.0,0.03112793,-0.0138549805,0.12469482400000001,-3.40458,6.8778625,-4.961832,2019-09-03 13:56:43,5.0
255.0,0.035888672,-0.01550293,0.12207031,-3.2671757,5.10687,-6.4274807,2019-09-03 13:56:43,5.0
256.0,0.040771484,-0.008117675999999999,0.12384033,6.152672,3.8015267999999995,-5.89313,2019-09-03 13:56:43,5.0
257.0,0.031066895,-0.005554199,0.12207031,1.5572518999999998,4.2977099999999995,-5.6183205,2019-09-03 13:56:43,5.0
258.0,0.034118652,-0.010375977,0.12664795,0.129771,3.9389312000000007,-4.5343513,2019-09-03 13:56:43,5.0
259.0,0.036376953,-0.009033203,0.12390137,-2.8854961,4.4198474999999995,-5.145038,2019-09-03 13:56:43,5.0
260.0,0.033447266,-0.010620117,0.12011719,-5.091603299999999,3.9389312000000007,-4.8015265,2019-09-03 13:56:43,5.0
261.0,0.046691895,-0.009765625,0.12609863,-6.4885497,4.2061067,-4.2061067,2019-09-03 13:56:43,5.0
262.0,0.043395996,-0.012023926,0.11627197,-7.8320612999999994,6.1679387000000006,-4.076336,2019-09-03 13:56:43,5.0
263.0,0.030334472999999997,-0.007751465,0.12371826,-2.5877862,5.778626,-3.59542,2019-09-03 13:56:43,5.0
264.0,0.040039062,-0.015563965,0.12695312,-5.4580154,7.374046000000001,-2.1450381000000003,2019-09-03 13:56:43,5.0
265.0,0.030029297000000003,-0.0075683593999999995,0.12518310000000002,-7.236641400000001,7.7480917,-3.4198472,2019-09-03 13:56:43,5.0
266.0,0.03540039,-0.015808105,0.12060547,-8.519084,7.3511453,-2.1603053,2019-09-03 13:56:43,5.0
267.0,0.039855957000000004,-0.008911133,0.12750244,-11.358779,8.9007635,-3.6259542000000002,2019-09-03 13:56:43,5.0
268.0,0.04949951,0.0063476562,0.16925049,-19.877863,-6.0992365,0.8167939000000001,2019-09-03 13:56:43,5.0
269.0,0.041748047,-0.012756348,0.11560058599999999,-5.145038,7.0839696,3.1526718,2019-09-03 13:56:43,5.0
270.0,0.027709961,-0.02709961,0.09991455,2.7175572,15.839695,2.793893,2019-09-03 13:56:43,5.0
271.0,0.03137207,-0.028869628999999997,0.110839844,-6.80916,4.1603055,-0.7633588000000001,2019-09-03 13:56:43,5.0
272.0,0.026794434,-0.027282715,0.12463379,14.175572,-4.5343513,4.0152674,2019-09-03 13:56:43,5.0
273.0,0.025634766,-0.027404785,0.12670898,16.534351,-12.312977,3.4274809999999998,2019-09-03 13:56:43,5.0
274.0,0.044616699999999995,-0.021972656,0.14263916,50.343509999999995,-13.427481,5.114504,2019-09-03 13:56:43,5.0
275.0,0.026062012000000002,-0.0099487305,0.12231445,77.48855,6.3206105,8.465649,2019-09-03 13:56:43,5.0
276.0,0.046813965,0.0016479492000000002,0.11810303,76.33588,2.2748091,9.969465,2019-09-03 13:56:43,5.0
277.0,0.044555664,0.020080566,0.12048339999999998,65.05344000000001,-4.5114503,6.1679387000000006,2019-09-03 13:56:43,5.0
278.0,0.05291748,0.034301757999999995,0.12939453,38.129771999999996,2.9389312000000003,5.7480917,2019-09-03 13:56:43,5.0
279.0,0.043823242000000005,0.02355957,0.12243652,29.89313,10.633588,7.5267177,2019-09-03 13:56:43,5.0
280.0,0.04144287,0.014953613000000001,0.1194458,22.12977,7.961832000000001,16.877863,2019-09-03 13:56:43,5.0
281.0,0.051086426,0.018188476999999998,0.12561035,30.29771,17.419847,19.977098,2019-09-03 13:56:43,5.0
282.0,0.040039062,0.04248047,0.12286377,24.305344,22.923664000000002,22.198473,2019-09-03 13:56:43,5.0
283.0,0.038024902,0.029418945,0.11932373,-13.7786255,13.0,21.931297,2019-09-03 13:56:43,5.0
284.0,0.04547119,0.007446289,0.11846924,-19.740458,15.167939000000002,20.465649,2019-09-03 13:56:43,5.0
285.0,0.030883789,0.013244628999999999,0.11987305,0.9312976999999999,20.954199,18.862595000000002,2019-09-03 13:56:43,5.0
286.0,0.027038574,0.0234375,0.12261963,-9.870229,17.992367,15.343511999999999,2019-09-03 13:56:43,5.0
287.0,0.031799316,0.017700195,0.117004395,-11.519084,13.091603,14.21374,2019-09-03 13:56:43,5.0
288.0,0.03479004,0.019104003999999997,0.12420654,3.4427480000000004,9.488549,16.42748,2019-09-03 13:56:43,5.0
289.0,0.03643799,0.013183594,0.1260376,-5.3893127,5.40458,15.557251999999998,2019-09-03 13:56:43,5.0
290.0,0.04345703,0.012634277,0.12261963,3.9312977999999994,4.366412,10.633588,2019-09-03 13:56:44,5.0
291.0,0.049682617000000005,0.0154418945,0.12542725,1.0076336,5.5801525000000005,7.740458,2019-09-03 13:56:44,5.0
292.0,0.036315917999999996,0.013305663999999998,0.12634277,-1.2900764,0.9160305000000001,5.946564700000001,2019-09-03 13:56:44,5.0
293.0,0.035217285,0.018737793,0.12377930000000001,5.190840000000001,3.3435113,6.709923700000001,2019-09-03 13:56:44,5.0
294.0,0.044128417999999996,0.016967773000000002,0.11761474599999999,7.3511453,0.099236645,7.0839696,2019-09-03 13:56:44,5.0
295.0,0.042907715,0.01574707,0.13122559,7.931298,3.0,9.534351,2019-09-03 13:56:44,5.0
296.0,0.036499023,0.014404297,0.12042236,12.412213000000001,2.9541984,10.7786255,2019-09-03 13:56:44,5.0
297.0,0.046875,0.023498535,0.11596680000000001,7.885496000000001,6.9923663000000005,8.801527,2019-09-03 13:56:44,5.0
298.0,0.038208007999999995,0.015808105,0.12072754,12.587786999999999,8.297709,9.236641,2019-09-03 13:56:44,5.0
299.0,0.03161621,0.022827148,0.12640381,12.564885,10.358779,10.2595415,2019-09-03 13:56:44,5.0
300.0,0.035217285,0.02947998,0.1161499,12.2213745,10.541985,6.885496000000001,2019-09-03 13:56:44,5.0
301.0,0.03289795,0.023986816,0.12365723,-3.40458,8.839694999999999,9.297709,2019-09-03 13:56:44,5.0
302.0,0.041137695,0.022888184,0.12048339999999998,3.870229,7.847328,6.6870227,2019-09-03 13:56:44,5.0
303.0,0.03869629,0.025634766,0.11938476599999999,7.1450380000000004,6.70229,5.3816795,2019-09-03 13:56:44,5.0
304.0,0.050598145,0.02142334,0.12164307,-9.503817,9.732824,3.1755726,2019-09-03 13:56:44,5.0
305.0,0.047180176,0.023864746000000003,0.11968994,-0.48854962,9.290076,1.5038168,2019-09-03 13:56:44,5.0
306.0,0.02746582,0.02520752,0.11755371,-0.71755725,8.694656,-0.45801526,2019-09-03 13:56:44,5.0
307.0,0.030822753999999997,0.034240723,0.12030029,-2.0610688,7.7709923,0.33587787,2019-09-03 13:56:44,5.0
308.0,0.045166015999999996,0.03125,0.12078857400000001,-7.59542,10.305344,-1.2748091000000001,2019-09-03 13:56:44,5.0
309.0,0.03894043,0.025390625,0.12365723,-13.656488000000001,13.21374,-1.2366412,2019-09-03 13:56:44,5.0
310.0,0.03540039,0.03704834,0.123046875,-20.755726,13.229007999999999,-2.2366412,2019-09-03 13:56:44,5.0
311.0,0.037963867000000005,0.017333984,0.1227417,-19.450382,12.0,-3.0610687999999997,2019-09-03 13:56:44,5.0
312.0,0.03869629,0.024047852,0.11370849599999999,-14.40458,10.725191,-5.442748,2019-09-03 13:56:44,5.0
313.0,0.020446777,0.022888184,0.12213135,-25.725191,12.648855000000001,-7.3664119999999995,2019-09-03 13:56:44,5.0
314.0,0.036376953,0.012878418,0.12054443,-25.099237,12.152672,-10.587786999999999,2019-09-03 13:56:44,5.0
315.0,0.02935791,0.014587402,0.12774658,-19.564885999999998,9.648855000000001,-15.740458499999999,2019-09-03 13:56:44,5.0
316.0,0.023620605,0.011962891000000002,0.12518310000000002,-18.603054,-0.31297709999999995,-31.473282,2019-09-03 13:56:44,5.0
317.0,0.0390625,0.025634766,0.12243652,-19.12977,-12.625955000000001,-46.55725,2019-09-03 13:56:44,5.0
318.0,0.029724121000000003,0.03326416,0.12835693,-19.038168,-11.229008,-48.770992,2019-09-03 13:56:44,5.0
319.0,0.03314209,0.049194336,0.12268066400000001,-30.274809,-14.366412,-44.610687,2019-09-03 13:56:44,5.0
320.0,0.03894043,0.018615723,0.12432861,-39.770992,-11.389313000000001,-35.396946,2019-09-03 13:56:44,5.0
321.0,0.041015625,0.016174316,0.120910645,-29.312977000000004,-4.5038165999999995,-22.152672,2019-09-03 13:56:44,5.0
322.0,0.047790527,0.0107421875,0.117126465,-26.961832,1.9465648999999998,-16.641222,2019-09-03 13:56:44,5.0
323.0,0.039978027,0.010620117,0.12402344,-15.847328,15.259541500000001,-15.801526999999998,2019-09-03 13:56:44,5.0
324.0,0.031188965,0.012084961000000002,0.12469482400000001,-12.610686999999999,15.580152499999999,-13.687023000000002,2019-09-03 13:56:44,5.0
325.0,0.03643799,0.021240234,0.11975098,2.0458016,15.251907999999998,-14.557251999999998,2019-09-03 13:56:44,5.0
326.0,0.042419434000000006,0.018005371000000003,0.12109375,0.22900763,20.282442,-12.656488000000001,2019-09-03 13:56:44,5.0
327.0,0.036376953,0.026550293,0.125,-0.33587787,18.404581,-9.19084,2019-09-03 13:56:45,5.0
328.0,0.037719727,0.018432617,0.12725830000000002,-3.8778627,18.908398000000002,-10.160305000000001,2019-09-03 13:56:45,5.0
329.0,0.032592773,0.020935059,0.12902832,-8.068703,15.984732999999999,-10.152672,2019-09-03 13:56:45,5.0
330.0,0.043884277,0.014526367,0.119140625,-0.3740458,13.717557000000001,-11.816792999999999,2019-09-03 13:56:45,5.0
331.0,0.041809082000000004,0.0154418945,0.12426758,3.465649,18.045801,-12.854961,2019-09-03 13:56:45,5.0
332.0,0.02935791,0.022094727,0.12139892599999999,1.5343511,15.473282999999999,-15.312976999999998,2019-09-03 13:56:45,5.0
333.0,0.022827148,0.018188476999999998,0.119628906,-0.03816794,11.206107000000001,-15.152672,2019-09-03 13:56:45,5.0
334.0,0.019958496000000003,0.026367188,0.12268066400000001,0.43511450000000007,11.236641,-13.061069,2019-09-03 13:56:45,5.0
335.0,0.022277832,0.031677246,0.12664795,-7.8244276,15.770992000000001,-8.664123,2019-09-03 13:56:45,5.0
336.0,0.026123047000000003,0.026916503999999997,0.12664795,-0.41984734,8.770992,-6.366412,2019-09-03 13:56:45,5.0
337.0,0.031799316,0.014709473,0.12194824,-7.2290077,12.763359,-7.1221375,2019-09-03 13:56:45,5.0
338.0,0.029174805,0.023071289,0.12176514,5.6183205,12.870229,-6.603053599999999,2019-09-03 13:56:45,5.0
339.0,0.031433105,0.020751953,0.12072754,2.1984732000000005,11.80916,-6.183206,2019-09-03 13:56:45,5.0
340.0,0.024719237999999998,0.020935059,0.1194458,8.801527,11.061069,-4.4656487,2019-09-03 13:56:45,5.0
341.0,0.022888184,0.03338623,0.12145996,3.0076337000000004,10.122137,-3.9541983999999997,2019-09-03 13:56:45,5.0
342.0,0.024719237999999998,0.01763916,0.12286377,8.160305000000001,11.320611,-3.1984732000000005,2019-09-03 13:56:45,5.0
343.0,0.020690918,0.026428222999999997,0.11907959,10.633588,10.19084,-1.648855,2019-09-03 13:56:45,5.0
344.0,0.0211792,0.019165039,0.12152099599999999,16.717558,9.305344,-0.16030534,2019-09-03 13:56:45,5.0
345.0,0.019348145,0.028198242000000002,0.11932373,11.038167999999999,10.625955000000001,-0.740458,2019-09-03 13:56:45,5.0
346.0,0.02557373,0.03643799,0.11968994,3.2290077,13.885496,-1.6641221000000002,2019-09-03 13:56:45,5.0
347.0,0.024536132999999998,0.034484863,0.11981201,9.229008,12.2213745,-3.0305343,2019-09-03 13:56:45,5.0
348.0,0.020935059,0.03881836,0.121032715,0.5038168,13.893129,-2.7557251,2019-09-03 13:56:45,5.0
349.0,0.02355957,0.035095215,0.123046875,-0.6335878,11.267176,-1.7786259999999998,2019-09-03 13:56:45,5.0
350.0,0.022216797000000003,0.034240723,0.124816895,1.9923664,7.6946563999999995,-3.9694656999999998,2019-09-03 13:56:45,5.0
351.0,0.026428222999999997,0.042541504,0.12573242,-4.656488400000001,9.770992,-2.4732822999999997,2019-09-03 13:56:45,5.0
352.0,0.025695799999999998,0.033203125,0.11968994,-7.4961834000000005,10.450381,-2.2595419999999997,2019-09-03 13:56:45,5.0
353.0,0.020019531,0.0357666,0.11920166,-1.8702290000000001,9.893129,-2.923664,2019-09-03 13:56:45,5.0
354.0,0.03161621,0.033569336,0.11993408,-5.2061067,12.007633,-1.9312977,2019-09-03 13:56:45,5.0
355.0,0.026550293,0.031188965,0.12036133,-3.4274809999999998,12.847328,-3.7480917000000002,2019-09-03 13:56:45,5.0
356.0,0.01953125,0.034179688,0.11932373,0.15267175,13.175572,-3.6259542000000002,2019-09-03 13:56:45,5.0
357.0,0.017700195,0.028747559,0.11791992,-2.3969467,14.129771,-5.335878,2019-09-03 13:56:45,5.0
358.0,0.02709961,0.04559326,0.12207031,0.8167939000000001,12.717557000000001,-3.7633588,2019-09-03 13:56:45,5.0
359.0,0.025939941,0.049194336,0.11315918,-2.5038167999999996,14.389313000000001,-4.9541984,2019-09-03 13:56:45,5.0
360.0,0.013549805,0.039001465,0.11608887,-3.908397,15.198473000000002,-4.114504,2019-09-03 13:56:45,5.0
361.0,0.023925781,0.038879395,0.12701416,-1.7938931,13.076336,-2.3358779999999997,2019-09-03 13:56:46,5.0
362.0,0.01727295,0.039611816,0.11889648400000001,-3.2442749,14.21374,-4.5419846,2019-09-03 13:56:46,5.0
363.0,0.026489257999999998,0.036010742000000005,0.11999512,-6.190840000000001,15.21374,-6.4580154,2019-09-03 13:56:46,5.0
364.0,0.016174316,0.039916992000000005,0.11883545,-3.6870230000000004,13.389313000000001,-5.89313,2019-09-03 13:56:46,5.0
365.0,0.018005371000000003,0.04046631,0.123168945,-5.0305343,13.312976999999998,-4.8244276,2019-09-03 13:56:46,5.0
366.0,0.01586914,0.046813965,0.1171875,-3.778626,11.198473,-5.396946400000001,2019-09-03 13:56:46,5.0
367.0,0.014099121000000001,0.042297363,0.12420654,-9.969465,11.824428,-5.221374,2019-09-03 13:56:46,5.0
368.0,0.016235351999999998,0.03326416,0.12341308599999999,-5.5496182,11.412213000000001,-5.053435299999999,2019-09-03 13:56:46,5.0
369.0,0.008666992,0.037597656,0.1194458,-6.793893300000001,10.290076,-4.5038165999999995,2019-09-03 13:56:46,5.0
370.0,0.014770508,0.043762207000000004,0.12371826,-3.5267177000000003,8.862596,-3.8625953,2019-09-03 13:56:46,5.0
371.0,0.017944336,0.045288086,0.12133789,-4.885496,8.816792999999999,-2.1603053,2019-09-03 13:56:46,5.0
372.0,0.019836426,0.037231445,0.117248535,0.66412216,5.847328,-2.389313,2019-09-03 13:56:46,5.0
373.0,0.024230957,0.043640137,0.12518310000000002,-10.625955000000001,8.541985,-1.9847328999999998,2019-09-03 13:56:46,5.0
374.0,0.015075683999999999,0.041015625,0.11828613,-9.114504,7.9847326,-2.9160306,2019-09-03 13:56:46,5.0
375.0,0.020629883,0.039245605,0.12182617,-6.343511599999999,7.89313,-1.5496184,2019-09-03 13:56:46,5.0
376.0,0.015258788999999998,0.038330078,0.12072754,0.15267175,7.1221375,-2.557252,2019-09-03 13:56:46,5.0
377.0,0.020690918,0.038024902,0.12188721,-9.709924,9.664123,-2.4503817999999997,2019-09-03 13:56:46,5.0
378.0,0.0126953125,0.03503418,0.12200928,-7.5267177,7.465648700000001,-3.0992367,2019-09-03 13:56:46,5.0
379.0,0.016235351999999998,0.041015625,0.11804199,-9.7786255,7.3511453,-1.5801526000000001,2019-09-03 13:56:46,5.0
380.0,0.018798828,0.040649414,0.124938965,-13.175572,5.740458,-1.8473282,2019-09-03 13:56:46,5.0
381.0,0.0134887695,0.04083252,0.12615967,-7.89313,4.2061067,-1.9083970000000001,2019-09-03 13:56:46,5.0
382.0,0.020507812,0.03289795,0.11987305,-10.442748,5.10687,-2.5954200000000003,2019-09-03 13:56:46,5.0
383.0,0.012939453,0.045776367000000005,0.11462402,-12.664123,4.557252,-2.5801528,2019-09-03 13:56:46,5.0
384.0,0.012084961000000002,0.04083252,0.11920166,-9.664123,6.0229006,-3.0305343,2019-09-03 13:56:46,5.0
385.0,0.022216797000000003,0.045166015999999996,0.121032715,-11.816792999999999,6.793893300000001,-4.0152674,2019-09-03 13:56:46,5.0
386.0,0.019470215,0.04095459,0.11920166,-5.625954,5.3206105,-2.480916,2019-09-03 13:56:46,5.0
387.0,0.0048217773,0.038269042999999996,0.12414551,-8.015267,7.59542,-3.0992367,2019-09-03 13:56:46,5.0
388.0,0.024902344,0.046142578,0.12469482400000001,-8.572519,8.045800999999999,-3.0,2019-09-03 13:56:46,5.0
389.0,0.015625,0.040527344,0.12213135,-5.6412214999999994,8.885496,-1.7862595000000001,2019-09-03 13:56:46,5.0
390.0,0.020141601999999998,0.03729248,0.12188721,-7.5114503,7.625953999999999,-3.4809160000000006,2019-09-03 13:56:46,5.0
391.0,0.01965332,0.03717041,0.12182617,-2.6259542000000002,7.396946400000001,-3.1221373,2019-09-03 13:56:46,5.0
392.0,0.018371582,0.038513184,0.12084961,-8.984733,7.290076299999999,-3.5190839999999994,2019-09-03 13:56:46,5.0
393.0,0.018249512,0.03741455,0.123168945,-7.2519083,7.557252,-1.7175573,2019-09-03 13:56:46,5.0
394.0,0.01751709,0.045715332000000004,0.12451172,-6.1679387000000006,6.190840000000001,-1.9083970000000001,2019-09-03 13:56:46,5.0
395.0,0.01953125,0.034729004,0.124816895,-11.496183,7.7328243,-0.6259541999999999,2019-09-03 13:56:47,5.0
396.0,0.011047363000000001,0.031433105,0.12359619,-6.7709923,7.1297708,-2.442748,2019-09-03 13:56:47,5.0
397.0,0.014526367,0.04321289,0.12634277,-6.8320612999999994,6.5496182,-2.793893,2019-09-03 13:56:47,5.0
398.0,0.010070800999999999,0.041625977,0.12432861,-7.931298,7.29771,-2.8854961,2019-09-03 13:56:47,5.0
399.0,0.015380858999999998,0.037841797,0.12109375,0.35877863,5.5496182,-1.8091604,2019-09-03 13:56:47,5.0
400.0,0.020507812,0.041992188,0.12213135,-8.167939,5.480916000000001,-3.206107,2019-09-03 13:56:47,5.0
401.0,0.015808105,0.040771484,0.121276855,-7.4198475,5.519083999999999,-3.4427480000000004,2019-09-03 13:56:47,5.0
402.0,0.022766112999999998,0.036499023,0.11627197,-5.3053436,6.1603055,-2.5801528,2019-09-03 13:56:47,5.0
403.0,0.0234375,0.042297363,0.11633301,-4.4274807,4.091603299999999,-2.8473282,2019-09-03 13:56:47,5.0
404.0,0.017578125,0.03503418,0.12286377,-8.526717,5.8778625,-3.129771,2019-09-03 13:56:47,5.0
405.0,0.021118164,0.041137695,0.1270752,-11.0,7.9770994,-2.5648854,2019-09-03 13:56:47,5.0
406.0,0.016662598,0.037719727,0.121276855,-7.89313,6.9160304,-2.9541984,2019-09-03 13:56:47,5.0
407.0,0.005126953,0.040161132999999995,0.11480713,-6.038168,6.114504,-1.3816794,2019-09-03 13:56:47,5.0
408.0,0.020935059,0.037109375,0.11975098,-6.9465647,7.183206,-2.8625952999999997,2019-09-03 13:56:47,5.0
409.0,0.011352538999999998,0.037353516,0.12298584,-8.938931,7.4885497,-2.465649,2019-09-03 13:56:47,5.0
410.0,0.017578125,0.04119873,0.12213135,-9.21374,8.503817,-4.076336,2019-09-03 13:56:47,5.0
411.0,0.014282227,0.03314209,0.11560058599999999,-8.061069,7.656488400000001,-2.4732822999999997,2019-09-03 13:56:47,5.0
412.0,0.016052246000000003,0.041931152,0.11596680000000001,-3.3816792999999996,6.145038,-1.8244275,2019-09-03 13:56:47,5.0
413.0,0.013305663999999998,0.038879395,0.12329101599999999,-9.366412,5.1297708,-2.2595419999999997,2019-09-03 13:56:47,5.0
414.0,0.012512207,0.040161132999999995,0.12384033,-8.763359,6.5419846,-3.076336,2019-09-03 13:56:47,5.0
415.0,0.010131836,0.042907715,0.12402344,-2.4732822999999997,3.5801528,-1.5801526000000001,2019-09-03 13:56:47,5.0
416.0,0.01928711,0.03930664,0.120910645,-10.916031,7.137404400000001,-3.7862597,2019-09-03 13:56:47,5.0
417.0,0.012756348,0.04095459,0.12402344,-3.4427480000000004,4.908396700000001,-1.7938931,2019-09-03 13:56:47,5.0
418.0,0.013549805,0.045532227,0.11791992,-10.320611,6.9389315,-1.9083970000000001,2019-09-03 13:56:47,5.0
419.0,0.008911133,0.037475586,0.12152099599999999,-6.183206,7.1984735,-2.7633588,2019-09-03 13:56:47,5.0
420.0,0.009155273,0.043029785,0.117004395,-5.961832,6.9770994,-3.2366412,2019-09-03 13:56:47,5.0
421.0,0.01550293,0.0423584,0.12109375,-8.9007635,8.290076,-4.9923663000000005,2019-09-03 13:56:47,5.0
422.0,0.01159668,0.04296875,0.1227417,-5.8778625,6.0839696,-3.0152671000000004,2019-09-03 13:56:47,5.0
423.0,0.01171875,0.039367676000000004,0.12109375,-4.854962,8.312977,-2.29771,2019-09-03 13:56:47,5.0
424.0,0.007751465,0.038635254,0.12042236,-7.8549619999999996,6.183206,-2.206107,2019-09-03 13:56:47,5.0
425.0,0.018798828,0.042907715,0.12341308599999999,-2.3511450000000003,4.114504,-2.8931298,2019-09-03 13:56:47,5.0
426.0,0.019592285,0.038757323999999996,0.12683105,-5.9160304,5.6183205,-3.038168,2019-09-03 13:56:47,5.0
427.0,0.024536132999999998,0.039733887,0.12194824,-10.557252,6.709923700000001,-3.534351,2019-09-03 13:56:47,5.0
428.0,0.015197753999999999,0.03967285,0.12445068,-7.70229,6.656488400000001,-2.6335877999999995,2019-09-03 13:56:47,5.0
429.0,0.017211914,0.03717041,0.117004395,-1.9236640999999999,5.145038,-3.183206,2019-09-03 13:56:47,5.0
430.0,0.011474608999999998,0.041870117000000005,0.115356445,-9.564885,7.099236500000001,-2.6183207000000004,2019-09-03 13:56:47,5.0
431.0,0.013916016000000002,0.030212402000000003,0.11956787,-7.8244276,6.9541984,-3.3740457999999998,2019-09-03 13:56:47,5.0
432.0,0.012451172,0.031921387,0.1227417,-10.465649,6.2977099999999995,-2.9312978,2019-09-03 13:56:48,5.0
433.0,0.021362305,0.03564453,0.12036133,-8.931297,7.038167999999999,-2.3358779999999997,2019-09-03 13:56:48,5.0
434.0,0.019470215,0.03466797,0.12072754,-6.3511453,6.3206105,-3.167939,2019-09-03 13:56:48,5.0
435.0,0.018981934,0.04925537,0.12017822,-9.832061,6.4198474999999995,-3.4351146,2019-09-03 13:56:48,5.0
436.0,0.009460449000000001,0.045837402,0.12268066400000001,-8.763359,7.541984599999999,-2.1984732000000005,2019-09-03 13:56:48,5.0
437.0,0.01574707,0.03729248,0.11676025400000001,-11.351144999999999,7.541984599999999,-2.7404580000000003,2019-09-03 13:56:48,5.0
438.0,0.021972656,0.040222167999999996,0.12042236,-2.7557251,5.7175574000000005,-2.923664,2019-09-03 13:56:48,5.0
439.0,0.014587402,0.0423584,0.11541748,-7.0839696,6.4885497,-3.5648854,2019-09-03 13:56:48,5.0
440.0,0.012390136999999999,0.047180176,0.12902832,-7.8778625,6.3129773,-2.8015267999999995,2019-09-03 13:56:48,5.0
441.0,0.025146484,0.044921875,0.12084961,-6.8244276,7.6946563999999995,-2.9923662999999996,2019-09-03 13:56:48,5.0
442.0,0.015014648,0.030334472999999997,0.12878418,-6.4961834000000005,7.1755724,-2.3206108,2019-09-03 13:56:48,5.0
443.0,0.024719237999999998,0.039611816,0.12536621,-5.6793895,5.946564700000001,-1.6259542,2019-09-03 13:56:48,5.0
444.0,0.0072631836,0.037353516,0.122924805,-8.603053,5.6946564,-2.70229,2019-09-03 13:56:48,5.0
445.0,0.017150878999999997,0.04449463,0.12268066400000001,-5.1297708,6.2519083,-2.2748091,2019-09-03 13:56:48,5.0
446.0,0.015808105,0.033325195,0.12237549,-9.938931,6.671755999999999,-2.221374,2019-09-03 13:56:48,5.0
447.0,0.024230957,0.03375244,0.12145996,-10.129771,7.7480917,-1.7709924,2019-09-03 13:56:48,5.0
448.0,0.012451172,0.04449463,0.11956787,-9.0,7.236641400000001,-2.6412212999999998,2019-09-03 13:56:48,5.0
449.0,0.016906738,0.033935547,0.12664795,-8.480916,6.2061067,-2.9160306,2019-09-03 13:56:48,5.0
450.0,0.015930176,0.03643799,0.12017822,0.9694656999999999,5.4351144,-2.6946564,2019-09-03 13:56:48,5.0
451.0,0.022399902000000003,0.042236328,0.12280273400000001,-7.763358599999999,4.1603055,-2.8244274,2019-09-03 13:56:48,5.0
452.0,0.022216797000000003,0.041503906,0.11529541,-11.389313000000001,6.656488400000001,-3.167939,2019-09-03 13:56:48,5.0
453.0,0.023986816,0.04449463,0.11639404,-10.679389,6.5801525,-3.5648854,2019-09-03 13:56:48,5.0
454.0,0.014709473,0.03137207,0.11773682,-6.519083999999999,6.4580154,-2.8625952999999997,2019-09-03 13:56:48,5.0
455.0,0.013000488000000001,0.03753662,0.12023926,-9.381680000000001,7.4503818,-2.8931298,2019-09-03 13:56:48,5.0
456.0,0.022277832,0.03930664,0.113220215,-10.389313000000001,8.946565,-3.648855,2019-09-03 13:56:48,5.0
457.0,0.015075683999999999,0.03881836,0.12225342,-2.793893,7.0534353,-3.3969467000000004,2019-09-03 13:56:48,5.0
458.0,0.0107421875,0.03967285,0.11981201,-8.488549,7.412214,-3.4961832000000004,2019-09-03 13:56:48,5.0
459.0,0.021972656,0.03765869,0.12420654,-9.2213745,7.0229006,-3.4732822999999997,2019-09-03 13:56:48,5.0
460.0,0.025756836,0.032470703,0.1262207,-8.725191,6.4198474999999995,-2.4198472,2019-09-03 13:56:48,5.0
461.0,0.02130127,0.0345459,0.11968994,-9.977099,7.236641400000001,-3.0076337000000004,2019-09-03 13:56:48,5.0
462.0,0.015380858999999998,0.034057617000000005,0.1239624,-4.9007635,6.6183205,-2.7633588,2019-09-03 13:56:48,5.0
463.0,0.016235351999999998,0.036621094,0.117126465,-2.572519,5.0610685,-2.5648854,2019-09-03 13:56:48,5.0
464.0,0.020141601999999998,0.040100098,0.11975098,-2.6717557999999997,6.740458,-3.3740457999999998,2019-09-03 13:56:48,5.0
465.0,0.013793945,0.0357666,0.122924805,-8.404580000000001,7.4885497,-2.9007633,2019-09-03 13:56:48,5.0
466.0,0.014831543,0.042053223,0.1194458,-8.725191,6.6793895,-2.3969467,2019-09-03 13:56:48,5.0
467.0,0.01361084,0.037902832000000004,0.12670898,-10.167939,7.3816795,-1.9007633999999998,2019-09-03 13:56:48,5.0
468.0,0.016174316,0.039245605,0.12048339999999998,-7.29771,5.847328,-2.6641220000000003,2019-09-03 13:56:49,5.0
469.0,0.02142334,0.040771484,0.117370605,-7.2137402999999996,6.656488400000001,-2.480916,2019-09-03 13:56:49,5.0
470.0,0.008422852,0.03387451,0.11773682,-8.80916,6.412214,-3.038168,2019-09-03 13:56:49,5.0
471.0,0.015625,0.039794922,0.12060547,-6.4580154,5.625954,-3.3740457999999998,2019-09-03 13:56:49,5.0
472.0,0.01940918,0.037963867000000005,0.11651611,-3.8167940000000002,5.1297708,-3.2671757,2019-09-03 13:56:49,5.0
473.0,0.016174316,0.037963867000000005,0.11517334,-8.366412,8.122137,-3.0305343,2019-09-03 13:56:49,5.0
474.0,0.0134887695,0.036254882999999995,0.12243652,-5.1374044,5.396946400000001,-2.3969467,2019-09-03 13:56:49,5.0
475.0,0.022705077999999997,0.03857422,0.123168945,0.03816794,4.603053599999999,-3.5190839999999994,2019-09-03 13:56:49,5.0
476.0,0.022277832,0.034301757999999995,0.11749267599999999,-8.908397,6.1603055,-2.7251909,2019-09-03 13:56:49,5.0
477.0,0.023864746000000003,0.04046631,0.115234375,-6.480916000000001,7.8320612999999994,-2.5801528,2019-09-03 13:56:49,5.0
478.0,0.022399902000000003,0.04168701,0.12225342,-8.19084,7.091603299999999,-2.8625952999999997,2019-09-03 13:56:49,5.0
479.0,0.016479492,0.04931640599999999,0.12036133,-3.7328242999999994,6.3893127,-2.8931298,2019-09-03 13:56:49,5.0
480.0,0.018554688,0.036499023,0.11828613,-6.885496000000001,6.2900763,-2.870229,2019-09-03 13:56:49,5.0
481.0,0.016845703,0.044311523,0.12420654,-11.381680000000001,6.709923700000001,-2.7251909,2019-09-03 13:56:49,5.0
482.0,0.017456055,0.04345703,0.11755371,-2.29771,5.5725193,-3.908397,2019-09-03 13:56:49,5.0
483.0,0.020019531,0.048828125,0.12060547,-4.374046,4.664122,-3.038168,2019-09-03 13:56:49,5.0
484.0,0.018859863,0.040222167999999996,0.12402344,-2.2290077,5.5648856,-2.1450381000000003,2019-09-03 13:56:49,5.0
485.0,0.021240234,0.041809082000000004,0.11663818,-2.8473282,5.6106873,-3.6030532999999996,2019-09-03 13:56:49,5.0
486.0,0.020446777,0.04309082,0.12286377,-7.9160304,6.778625999999999,-3.351145,2019-09-03 13:56:49,5.0
487.0,0.015625,0.043701172,0.12487793,-11.725191,5.7099237,-5.0305343,2019-09-03 13:56:49,5.0
488.0,0.01751709,0.03942871,0.12670898,-12.694656,6.6793895,-5.5725193,2019-09-03 13:56:49,5.0
489.0,0.014953613000000001,0.046569824,0.1171875,-8.824428,5.1679387000000006,-4.671755999999999,2019-09-03 13:56:49,5.0
490.0,0.005065918,0.036499023,0.1262207,-15.824428,12.603053,-5.0,2019-09-03 13:56:49,5.0
491.0,0.022888184,0.041870117000000005,0.12677002,-6.7175574000000005,0.8167939000000001,-5.0992365,2019-09-03 13:56:49,5.0
492.0,0.0146484375,0.03894043,0.12030029,-10.015267,4.3893127,-5.1755724,2019-09-03 13:56:49,5.0
493.0,0.018859863,0.0357666,0.11358642599999999,-5.6106873,2.7709923,-4.412214,2019-09-03 13:56:49,5.0
494.0,0.014038086000000002,0.032348632999999995,0.12548828,-10.290076,4.5801525000000005,-3.4961832000000004,2019-09-03 13:56:49,5.0
495.0,0.016235351999999998,0.038330078,0.12280273400000001,-12.885496,5.5648856,-3.4351146,2019-09-03 13:56:49,5.0
496.0,0.017822266,0.036193848,0.12457275400000001,-14.290076000000001,7.5725193,-3.6870230000000004,2019-09-03 13:56:49,5.0
497.0,0.010192871,0.03955078,0.12536621,-7.465648700000001,5.664122,-3.053435,2019-09-03 13:56:49,5.0
498.0,0.013000488000000001,0.030578612999999998,0.12347412,-10.854961,7.7251906,-3.870229,2019-09-03 13:56:49,5.0
499.0,0.01940918,0.039367676000000004,0.12689209,-7.6488547,4.9160304,-3.3206108,2019-09-03 13:56:49,5.0
500.0,0.024291992000000002,0.040222167999999996,0.12438965,-4.374046,4.6946564,-3.9847328999999996,2019-09-03 13:56:49,5.0
501.0,0.012268066000000001,0.036254882999999995,0.12060547,-9.290076,5.2519083,-3.3053436,2019-09-03 13:56:49,5.0
502.0,0.01965332,0.03479004,0.12084961,-16.473282,5.557252,-3.6335877999999995,2019-09-03 13:56:49,5.0
503.0,0.01776123,0.029785156,0.12017822,-9.297709,4.603053599999999,-5.015267400000001,2019-09-03 13:56:50,5.0
504.0,0.016296387,0.040405273,0.12725830000000002,-13.839695,4.625954,-3.2900763,2019-09-03 13:56:50,5.0
505.0,0.017944336,0.037841797,0.12030029,-18.366413,5.664122,-4.4351144,2019-09-03 13:56:50,5.0
506.0,0.014038086000000002,0.036376953,0.1239624,-19.053434,5.7022900000000005,-2.6641220000000003,2019-09-03 13:56:50,5.0
507.0,0.026306152000000003,0.03552246,0.12329101599999999,-16.251910000000002,4.038168,-3.3206108,2019-09-03 13:56:50,5.0
508.0,0.011474608999999998,0.03717041,0.12530518,-17.816793,3.6412212999999998,-1.5496184,2019-09-03 13:56:50,5.0
509.0,0.018188476999999998,0.03302002,0.12561035,-19.358778,4.6870227,-3.2137403,2019-09-03 13:56:50,5.0
510.0,0.013244628999999999,0.03302002,0.121276855,-16.984734,5.526717700000001,-0.5038168,2019-09-03 13:56:50,5.0
511.0,0.019897461,0.021606445,0.12420654,-20.358778,5.0458016,-1.389313,2019-09-03 13:56:50,5.0
512.0,0.018432617,0.030883789,0.12487793,-16.534351,5.076336,-0.18320611,2019-09-03 13:56:50,5.0
513.0,0.01727295,0.028686523,0.12042236,-13.091603,5.2442746,-1.8320610000000002,2019-09-03 13:56:50,5.0
514.0,0.012939453,0.029968262000000002,0.12445068,-11.114504,3.9160306000000005,-1.648855,2019-09-03 13:56:50,5.0
515.0,0.019714355,0.026428222999999997,0.12835693,-5.961832,2.8015267999999995,-1.1450381,2019-09-03 13:56:50,5.0
516.0,0.017700195,0.02947998,0.12200928,-5.0610685,4.4885497,-0.6183206,2019-09-03 13:56:50,5.0
517.0,0.025939941,0.02960205,0.12359619,-3.908397,6.5038165999999995,-0.8015267,2019-09-03 13:56:50,5.0
518.0,0.02142334,0.029418945,0.12475586,3.832061,5.946564700000001,-0.8015267,2019-09-03 13:56:50,5.0
519.0,0.022644043,0.032409667999999996,0.12188721,-1.8931297999999999,8.519084,-2.4503817999999997,2019-09-03 13:56:50,5.0
520.0,0.013977051,0.028442382999999998,0.11932373,-1.6793894,10.030535,-2.0305343000000002,2019-09-03 13:56:50,5.0
521.0,0.026672362999999998,0.034973145,0.12390137,-4.7099237,9.603053,-3.778626,2019-09-03 13:56:50,5.0
522.0,0.016906738,0.03729248,0.12054443,1.7099236,8.534351,-1.8854961,2019-09-03 13:56:50,5.0
523.0,0.014404297,0.031433105,0.12072754,1.8396946,6.1679387000000006,-3.9160306000000005,2019-09-03 13:56:50,5.0
524.0,0.017028809,0.03253174,0.12487793,-7.068702,6.931298,-3.9160306000000005,2019-09-03 13:56:50,5.0
525.0,0.02142334,0.030212402000000003,0.12011719,-9.175572,4.9923663000000005,-2.9389312000000003,2019-09-03 13:56:50,5.0
526.0,0.0138549805,0.029724121000000003,0.12420654,-7.900763499999999,3.4351146,-2.7633588,2019-09-03 13:56:50,5.0
527.0,0.022338867000000002,0.025146484,0.12670898,-7.480916000000001,5.038168,-2.427481,2019-09-03 13:56:50,5.0
528.0,0.021484375,0.029724121000000003,0.12109375,-4.625954,5.2824425999999995,-3.1145039,2019-09-03 13:56:50,5.0
529.0,0.0095825195,0.027648926,0.119628906,-5.519083999999999,7.335878,-1.8473282,2019-09-03 13:56:50,5.0
530.0,0.024841309,0.02947998,0.12652588,0.2519084,7.2671757,-1.2137405,2019-09-03 13:56:50,5.0
531.0,0.016479492,0.026428222999999997,0.12011719,-2.8396947,9.2595415,-1.3358778999999998,2019-09-03 13:56:50,5.0
532.0,0.015686035,0.031921387,0.12670898,-0.39694658,8.2213745,-0.9389313,2019-09-03 13:56:50,5.0
533.0,0.015136719,0.036071777,0.124816895,0.55725193,9.068703,-1.4732825,2019-09-03 13:56:50,5.0
534.0,0.020324707,0.038024902,0.1227417,-1.7862595000000001,8.419847500000001,-0.07633588,2019-09-03 13:56:50,5.0
535.0,0.021240234,0.041503906,0.12188721,-1.5038168,8.198473,0.27480915,2019-09-03 13:56:50,5.0
536.0,0.014343261999999999,0.030761719,0.1227417,3.0,2.8931298,-1.4885496,2019-09-03 13:56:50,5.0
537.0,0.01739502,0.03289795,0.12536621,-7.4503818,6.259542,-2.2900763,2019-09-03 13:56:50,5.0
538.0,0.012329102,0.04046631,0.12170410000000002,2.0610688,3.3206108,-2.687023,2019-09-03 13:56:50,5.0
539.0,0.012268066000000001,0.041931152,0.11761474599999999,-7.9847326,5.8702292,-2.9694657,2019-09-03 13:56:51,5.0
540.0,0.021606445,0.03857422,0.12182617,-9.748092,5.40458,-3.465649,2019-09-03 13:56:51,5.0
541.0,0.018493652,0.033813477,0.12133789,-9.053435,5.6183205,-2.8091602000000004,2019-09-03 13:56:51,5.0
542.0,0.025512695,0.02722168,0.12310791,-9.816792999999999,7.328244000000001,-3.5496182000000003,2019-09-03 13:56:51,5.0
543.0,0.016296387,0.037353516,0.12487793,-7.6106872999999995,6.3511453,-2.1221373,2019-09-03 13:56:51,5.0
544.0,0.02166748,0.033447266,0.12585449,-8.755725,6.7862597000000004,-3.1603053,2019-09-03 13:56:51,5.0
545.0,0.024230957,0.03656006,0.12133789,-7.091603299999999,7.0076336999999995,-2.687023,2019-09-03 13:56:51,5.0
546.0,0.018554688,0.033447266,0.1262207,-12.2595415,6.59542,-1.9541985,2019-09-03 13:56:51,5.0
547.0,0.014404297,0.03765869,0.12359619,-5.1297708,7.480916000000001,-2.0992367,2019-09-03 13:56:51,5.0
548.0,0.025634766,0.030456543,0.11871338,-9.412213000000001,6.671755999999999,-3.3740457999999998,2019-09-03 13:56:51,5.0
549.0,0.014953613000000001,0.038391113,0.12554932,-10.793892999999999,7.5267177,-2.5496182000000003,2019-09-03 13:56:51,5.0
550.0,0.017700195,0.035888672,0.12561035,-3.7709922999999996,6.1603055,-2.2137403,2019-09-03 13:56:51,5.0
551.0,0.02142334,0.03552246,0.12329101599999999,-8.725191,6.9160304,-1.8091604,2019-09-03 13:56:51,5.0
552.0,0.014831543,0.035217285,0.12365723,-11.114504,7.793893300000001,-1.8091604,2019-09-03 13:56:51,5.0
553.0,0.024169922000000003,0.039245605,0.11285400400000001,-5.1374044,5.3816795,-2.9160306,2019-09-03 13:56:51,5.0
554.0,0.019958496000000003,0.032104492000000005,0.12591553,-5.2671757,5.2442746,-2.0610688,2019-09-03 13:56:51,5.0
555.0,0.022644043,0.036254882999999995,0.12322998,-2.8091602000000004,4.4274807,-3.076336,2019-09-03 13:56:51,5.0
556.0,0.017028809,0.030334472999999997,0.12249756,-12.473283,6.7175574000000005,-4.236641400000001,2019-09-03 13:56:51,5.0
557.0,0.018920898000000002,0.034301757999999995,0.11975098,-10.748092,5.557252,-3.870229,2019-09-03 13:56:51,5.0
558.0,0.016052246000000003,0.034240723,0.12567139,-8.053435,4.2061067,-3.6335877999999995,2019-09-03 13:56:51,5.0
559.0,0.019836426,0.034606934,0.123535156,-3.8625953,4.442748,-3.2442749,2019-09-03 13:56:51,5.0
560.0,0.015319824,0.03479004,0.11968994,-10.389313000000001,5.076336,-3.5267177000000003,2019-09-03 13:56:51,5.0
561.0,0.023071289,0.028686523,0.12066650400000001,-7.847328,6.969465700000001,-3.59542,2019-09-03 13:56:51,5.0
562.0,0.024169922000000003,0.03149414,0.12408447,-7.1679387000000006,8.145039,-3.0610687999999997,2019-09-03 13:56:51,5.0
563.0,0.022888184,0.032226562,0.11798096,-5.8778625,8.083969,-2.1374047000000003,2019-09-03 13:56:51,5.0
564.0,0.014892578,0.036376953,0.11907959,-5.8244276,6.4961834000000005,-2.5114503,2019-09-03 13:56:51,5.0
565.0,0.016235351999999998,0.041015625,0.12097168,-8.442748,7.4274807,-2.9007633,2019-09-03 13:56:51,5.0
566.0,0.023010253999999997,0.02758789,0.12158203,-6.2748094000000005,6.557252,-1.6259542,2019-09-03 13:56:51,5.0
567.0,0.0071411133,0.03540039,0.11907959,-8.053435,7.0610685,-2.5648854,2019-09-03 13:56:51,5.0
568.0,0.020507812,0.033569336,0.12200928,0.2977099,5.015267400000001,-1.519084,2019-09-03 13:56:51,5.0
569.0,0.010559082,0.03100586,0.12457275400000001,-4.091603299999999,6.7480917,-0.73282444,2019-09-03 13:56:51,5.0
570.0,0.016845703,0.04425049,0.12860107,-7.961832000000001,7.1297708,-1.1832061000000003,2019-09-03 13:56:51,5.0
571.0,0.013000488000000001,0.03466797,0.12554932,-2.6335877999999995,4.2900763,-1.1679389999999998,2019-09-03 13:56:51,5.0
572.0,0.021850586,0.042907715,0.12445068,-8.664123,4.6106873,-1.4885496,2019-09-03 13:56:51,5.0
573.0,0.00982666,0.038635254,0.12231445,-11.625955000000001,1.9923664,-1.6030535,2019-09-03 13:56:51,5.0
574.0,0.018615723,0.032470703,0.12164307,-11.7786255,2.0839694,-2.29771,2019-09-03 13:56:52,5.0
575.0,0.020568848,0.030761719,0.11773682,-7.847328,0.24427481,0.122137405,2019-09-03 13:56:52,5.0
576.0,0.018554688,0.030456543,0.12670898,-4.7709923,2.2442749,-0.6793893,2019-09-03 13:56:52,5.0
577.0,0.018737793,0.034118652,0.12036133,-8.435115,3.9541983999999997,-0.58778626,2019-09-03 13:56:52,5.0
578.0,0.020141601999999998,0.035827637,0.12371826,-7.961832000000001,4.328244000000001,0.33587787,2019-09-03 13:56:52,5.0
579.0,0.026000977,0.03527832,0.12188721,-4.473282299999999,1.4732825,5.3129773,2019-09-03 13:56:52,5.0
580.0,0.016662598,0.034179688,0.13092041,-16.152672,3.29771,7.236641400000001,2019-09-03 13:56:52,5.0
581.0,0.017700195,0.027526855,0.124816895,-18.671754999999997,2.534351,4.5648856,2019-09-03 13:56:52,5.0
582.0,0.02142334,0.02532959,0.12628174,-20.969465,3.091603,4.0839696000000005,2019-09-03 13:56:52,5.0
583.0,0.019348145,0.03161621,0.11987305,-21.641222,-1.7786259999999998,5.6946564,2019-09-03 13:56:52,5.0
584.0,0.018981934,0.026367188,0.12310791,-30.755726,-1.8015267,4.5801525000000005,2019-09-03 13:56:52,5.0
585.0,0.022338867000000002,0.023071289,0.121032715,-26.931296999999997,-6.5648856,3.40458,2019-09-03 13:56:52,5.0
586.0,0.016479492,0.029174805,0.12902832,-26.587785999999998,-7.6106872999999995,2.2595419999999997,2019-09-03 13:56:52,5.0
587.0,0.028808594,0.030334472999999997,0.12542725,-21.977098,-12.641221,1.2137405,2019-09-03 13:56:52,5.0
588.0,0.022827148,0.026367188,0.12084961,-30.221375,-14.923664000000002,0.36641222,2019-09-03 13:56:52,5.0
589.0,0.02734375,0.020385742,0.12530518,-33.366413,-13.9007635,-1.9694656000000004,2019-09-03 13:56:52,5.0
590.0,0.020690918,0.013916016000000002,0.12609863,-45.603054,-11.816792999999999,-3.9160306000000005,2019-09-03 13:56:52,5.0
591.0,0.027893066,0.013244628999999999,0.12921143,-38.725190000000005,-12.717557000000001,-4.1221375,2019-09-03 13:56:52,5.0
592.0,0.037353516,0.014343261999999999,0.12579346,-33.305344,-13.687023000000002,-7.59542,2019-09-03 13:56:52,5.0
593.0,0.038330078,0.009887695,0.11938476599999999,-33.473279999999995,-13.40458,-9.083969,2019-09-03 13:56:52,5.0
594.0,0.036865234,0.006042480500000001,0.11950683599999999,-32.412212,-14.435115,-8.816792999999999,2019-09-03 13:56:52,5.0
595.0,0.028564452999999997,0.0063476562,0.12768555,-21.167938,-13.21374,-12.0,2019-09-03 13:56:52,5.0
596.0,0.030883789,0.008178711,0.125,-11.473283,0.6793893,-12.687023,2019-09-03 13:56:52,5.0
597.0,0.03161621,0.016662598,0.12365723,-3.3893129999999996,1.8091604,-6.2900763,2019-09-03 13:56:52,5.0
598.0,0.03161621,0.008850098,0.1293335,-0.2977099,8.015267,-6.656488400000001,2019-09-03 13:56:52,5.0
599.0,0.023986816,0.0045776367,0.13018799,-10.129771,12.587786999999999,-5.5648856,2019-09-03 13:56:52,5.0
600.0,0.026550293,0.0007324219,0.12860107,-15.442748000000002,19.473282,-13.290076000000001,2019-09-03 13:56:52,5.0
601.0,0.024780273,-0.0006103515599999999,0.13104248,-5.8244276,22.725191,-17.641222,2019-09-03 13:56:52,5.0
602.0,0.016967773000000002,0.00579834,0.1282959,12.534351,29.42748,-24.587785999999998,2019-09-03 13:56:52,5.0
603.0,-0.0064697266000000005,0.026000977,0.13916016,-2.4885497,28.877863,-37.87786,2019-09-03 13:56:52,5.0
604.0,0.0061035156000000005,0.010986328,0.12725830000000002,-22.229008,27.946565999999997,-53.938930000000006,2019-09-03 13:56:52,5.0
605.0,0.010009766,0.0036621094,0.1375122,6.671755999999999,-4.7557254,-65.0687,2019-09-03 13:56:52,5.0
606.0,0.0014648438,0.031982422,0.13452148,21.839695000000003,-13.961832000000001,-75.43511,2019-09-03 13:56:52,5.0
607.0,0.005432129,0.04321289,0.13635254,-34.870228000000004,-32.137405,-76.862595,2019-09-03 13:56:52,5.0
608.0,0.008728027,0.017333984,0.12475586,-82.12214,-45.44275,-81.71755999999999,2019-09-03 13:56:52,5.0
609.0,0.024169922000000003,-0.0026855469,0.11328125,-95.64121999999999,-49.312977000000004,-86.41984599999999,2019-09-03 13:56:53,5.0
610.0,0.03942871,-0.013305663999999998,0.10668945,-75.98473,-50.862595,-91.24428,2019-09-03 13:56:53,5.0
611.0,0.055419922,-0.019714355,0.10925293,-44.664124,-50.770992,-97.68701999999999,2019-09-03 13:56:53,5.0
612.0,0.057006836,-0.016601562,0.10467529,3.3053436,-48.83206,-105.137405,2019-09-03 13:56:53,5.0
613.0,0.06469726599999999,0.001953125,0.0993042,26.923664000000002,-48.770992,-103.98473,2019-09-03 13:56:53,5.0
614.0,0.06896973,0.014709473,0.09924316400000001,48.06107,-48.206109999999995,-102.0458,2019-09-03 13:56:53,5.0
615.0,0.060913086,0.035888672,0.10321045,34.48855,-42.946564,-99.64886,2019-09-03 13:56:53,5.0
616.0,0.06799316400000001,0.041015625,0.10211182,5.068702,-39.541985,-94.816795,2019-09-03 13:56:53,5.0
617.0,0.06567383,0.04852295,0.10314941400000001,-23.091601999999998,-30.984734000000003,-89.496185,2019-09-03 13:56:53,5.0
618.0,0.056396484000000004,0.05407715,0.10461426,-24.038168,-25.435114000000002,-82.37405,2019-09-03 13:56:53,5.0
619.0,0.064453125,0.06011963,0.10766601599999999,-15.801526999999998,-14.328244,-70.53435,2019-09-03 13:56:53,5.0
620.0,0.051330565999999994,0.06713867,0.11907959,-24.114504,-13.839695,-54.206109999999995,2019-09-03 13:56:53,5.0
621.0,0.05419922,0.047790527,0.11303711,-35.923664,-6.9389315,-39.946564,2019-09-03 13:56:53,5.0
622.0,0.0435791,0.062683105,0.13964844,16.961832,-5.9770994,-13.229007999999999,2019-09-03 13:56:53,5.0
623.0,0.060180664,0.07281494,0.10839844,-4.931298,-14.755725,2.442748,2019-09-03 13:56:53,5.0
624.0,0.050964355,0.04949951,0.10333252,-61.297709999999995,-5.3511453,6.1374044,2019-09-03 13:56:53,5.0
625.0,0.036010742000000005,0.04638672,0.122558594,-99.25954399999999,-3.9770992,6.6106872999999995,2019-09-03 13:56:53,5.0
626.0,0.030944824,0.027832031,0.11840819999999999,-109.96947,3.0076337000000004,10.381680000000001,2019-09-03 13:56:53,5.0
627.0,0.03845215,0.0013427734,0.11920166,-104.0687,3.778626,7.9770994,2019-09-03 13:56:53,5.0
628.0,0.09008789,-0.006164551,0.12457275400000001,-74.56489,-4.0076336999999995,16.160304999999997,2019-09-03 13:56:53,5.0
629.0,0.04144287,-0.0005493164,0.12048339999999998,-70.175575,20.10687,-14.229007999999999,2019-09-03 13:56:53,5.0
630.0,0.04168701,0.002319336,0.11755371,-55.190838,-0.9312976999999999,-2.9923662999999996,2019-09-03 13:56:53,5.0
631.0,0.059020996,0.005126953,0.11480713,-24.251910000000002,7.603053599999999,-8.717557000000001,2019-09-03 13:56:53,5.0
632.0,0.044006348,-0.007690429699999999,0.09844971,-26.51145,12.671756,-5.908396700000001,2019-09-03 13:56:53,5.0
633.0,0.05242919999999999,-0.00024414062000000002,0.10052489999999999,-7.587786,19.206106,-3.3587787000000002,2019-09-03 13:56:53,5.0
634.0,0.06512451,0.011657715,0.11431885,20.122137,22.809160000000002,3.1984732000000005,2019-09-03 13:56:53,5.0
635.0,0.06915283,0.013122558999999999,0.13256836,26.694656,12.862596,5.396946400000001,2019-09-03 13:56:53,5.0
636.0,0.053344727,0.028808594,0.10998535,-19.282442,20.08397,2.312977,2019-09-03 13:56:53,5.0
637.0,0.054870605,0.006958008000000001,0.10638428,-42.320609999999995,13.21374,3.7480917000000002,2019-09-03 13:56:53,5.0
638.0,0.0546875,-0.01171875,0.11895752,-21.305344,20.610687,-6.740458,2019-09-03 13:56:53,5.0
639.0,0.06439209,-0.013977051,0.12530518,-17.442749,10.106871,-3.5419848,2019-09-03 13:56:53,5.0
640.0,0.06011963,-0.0126953125,0.1161499,-13.442748000000002,16.954199,-7.3664119999999995,2019-09-03 13:56:53,5.0
641.0,0.05206299,-0.008850098,0.12298584,-7.9847326,12.534351,-8.053435,2019-09-03 13:56:53,5.0
642.0,0.05505371,-0.010192871,0.11987305,2.8625952999999997,8.0992365,-8.870229,2019-09-03 13:56:53,5.0
643.0,0.055664062,-0.00030517577999999995,0.11773682,2.4351146,10.106871,-12.80916,2019-09-03 13:56:53,5.0
644.0,0.05114746,0.005126953,0.12158203,-7.816794,7.9770994,-12.610686999999999,2019-09-03 13:56:53,5.0
645.0,0.042114257999999995,0.00091552734,0.12023926,5.1297708,6.793893300000001,-12.656488000000001,2019-09-03 13:56:54,5.0
646.0,0.05029297,-0.004272461,0.11828613,7.5801525,8.572519,-10.21374,2019-09-03 13:56:54,5.0
647.0,0.05267334,-0.017089844,0.12219238,32.221375,11.114504,-3.5190839999999994,2019-09-03 13:56:54,5.0
648.0,0.04473877,0.0028686523,0.12145996,31.091602,9.7404585,5.5419846,2019-09-03 13:56:54,5.0
649.0,0.050109863,0.00793457,0.1194458,6.5648856,-5.0305343,0.6793893,2019-09-03 13:56:54,5.0
650.0,0.05126953,0.00793457,0.11090088,-11.0992365,2.7251909,-2.2671757,2019-09-03 13:56:54,5.0
651.0,0.05706787,0.0072631836,0.1038208,-6.7557254,5.3129773,-2.778626,2019-09-03 13:56:54,5.0
652.0,0.04736328,0.01763916,0.117004395,-5.038168,5.259542,-6.053435299999999,2019-09-03 13:56:54,5.0
653.0,0.04864502,0.0107421875,0.119262695,-6.7328243,2.7480917000000002,-8.908397,2019-09-03 13:56:54,5.0
654.0,0.045959473,0.009338379,0.11279297,-3.038168,7.1221375,-9.511451,2019-09-03 13:56:54,5.0
655.0,0.053710938,0.01586914,0.11456299,0.18320611,10.847328,-7.8015265,2019-09-03 13:56:54,5.0
656.0,0.05255127,0.014587402,0.11566162,-14.412213000000001,7.068702,-5.038168,2019-09-03 13:56:54,5.0
657.0,0.045837402,0.012084961000000002,0.11938476599999999,-19.641222,9.435115,-4.1603055,2019-09-03 13:56:54,5.0
658.0,0.057739257999999995,0.0024414061999999998,0.117004395,-20.641222,11.877863,-1.1603054,2019-09-03 13:56:54,5.0
659.0,0.05480957,0.005981445300000001,0.12322998,-7.900763499999999,12.648855000000001,0.60305345,2019-09-03 13:56:54,5.0
660.0,0.046936035,-0.00024414062000000002,0.12310791,-13.496182999999998,10.374044999999999,-0.519084,2019-09-03 13:56:54,5.0
661.0,0.05206299,0.004638672,0.11853027,-7.458015400000001,11.450381,0.06870229,2019-09-03 13:56:54,5.0
662.0,0.052612305,0.009338379,0.11444092,2.0687022,11.320611,-1.480916,2019-09-03 13:56:54,5.0
663.0,0.052124023,0.014709473,0.12121582,-5.8320612999999994,8.832061,1.2824427,2019-09-03 13:56:54,5.0
664.0,0.0423584,0.010070800999999999,0.11242676,-14.648855,7.6488547,-1.9236640999999999,2019-09-03 13:56:54,5.0
665.0,0.04876709,0.010314941,0.11779785,-9.442748,11.145039,-1.6259542,2019-09-03 13:56:54,5.0
666.0,0.05126953,-0.0008544922000000001,0.12243652,-11.122137,7.931298,-2.076336,2019-09-03 13:56:54,5.0
667.0,0.045043945,0.006286621,0.11517334,-19.259542,7.7328243,-3.0839694,2019-09-03 13:56:54,5.0
668.0,0.05670166,0.0020751953,0.11816406,-19.328245000000003,5.816794,-1.2900764,2019-09-03 13:56:54,5.0
669.0,0.05303955,0.001159668,0.11883545,-7.2824425999999995,8.122137,-1.091603,2019-09-03 13:56:54,5.0
670.0,0.04626465,-0.0006713867,0.12097168,-3.5648854,9.931297,-4.259542,2019-09-03 13:56:54,5.0
671.0,0.059265137,-0.005737304699999999,0.11968994,-9.045800999999999,4.89313,-3.5648854,2019-09-03 13:56:54,5.0
672.0,0.054016113,0.010681152,0.11437988,-7.839694500000001,6.7251906,-1.7480916000000002,2019-09-03 13:56:54,5.0
673.0,0.049072265999999996,0.006164551,0.11230469,-4.114504,7.160305499999999,-2.3969467,2019-09-03 13:56:54,5.0
674.0,0.050354004,-0.0034790040000000004,0.11798096,-3.2519082999999998,7.5114503,-4.0152674,2019-09-03 13:56:54,5.0
675.0,0.04925537,0.0036621094,0.12158203,2.816794,6.259542,-4.664122,2019-09-03 13:56:54,5.0
676.0,0.053833007999999995,0.014831543,0.12237549,-2.0687022,9.267176,1.2748091000000001,2019-09-03 13:56:54,5.0
677.0,0.05206299,0.010498047,0.12786865,-13.305344,5.4503818,-0.8702290000000001,2019-09-03 13:56:54,5.0
678.0,0.04443359400000001,0.005126953,0.11578369,-10.541985,7.7862597000000004,-2.3816792999999996,2019-09-03 13:56:54,5.0
679.0,0.045043945,0.0040893555,0.1161499,-0.64122134,7.847328,-1.6717557,2019-09-03 13:56:54,5.0
680.0,0.041809082000000004,0.00579834,0.11853027,-0.8549618,7.6946563999999995,-3.206107,2019-09-03 13:56:54,5.0
681.0,0.051391599999999996,0.01586914,0.12158203,-6.1755724,8.7786255,-3.534351,2019-09-03 13:56:55,5.0
682.0,0.04510498,0.008178711,0.12542725,-8.465649,9.458015,-1.9312977,2019-09-03 13:56:55,5.0
683.0,0.051513672,0.0026855469,0.11688232400000001,-11.106871,5.0076336999999995,0.17557251,2019-09-03 13:56:55,5.0
684.0,0.051818848,0.0008544922000000001,0.113220215,-7.0229006,8.679389,0.57251906,2019-09-03 13:56:55,5.0
685.0,0.04559326,0.005493164,0.11755371,-4.664122,8.2595415,0.7557252,2019-09-03 13:56:55,5.0
686.0,0.04699707,0.011413574,0.117248535,-12.679389,2.7404580000000003,1.3969465,2019-09-03 13:56:55,5.0
687.0,0.04541015599999999,0.0126953125,0.11370849599999999,-9.687023,5.603053599999999,-2.610687,2019-09-03 13:56:55,5.0
688.0,0.043701172,0.0095825195,0.11517334,-0.6259541999999999,7.030534299999999,-3.3587787000000002,2019-09-03 13:56:55,5.0
689.0,0.048095703,0.012878418,0.11761474599999999,-6.3129773,6.7557254,-3.2824428,2019-09-03 13:56:55,5.0
690.0,0.049804688,0.0033569335999999996,0.11999512,-5.5038165999999995,5.038168,-2.9694657,2019-09-03 13:56:55,5.0
691.0,0.051208496,0.011047363000000001,0.12530518,-4.480916000000001,6.9847326,-2.6259542000000002,2019-09-03 13:56:55,5.0
692.0,0.05267334,0.008605957,0.12225342,-0.9312976999999999,4.5801525000000005,-2.1908397999999996,2019-09-03 13:56:55,5.0
693.0,0.04827881,0.009887695,0.11853027,-11.702291,7.847328,-3.5648854,2019-09-03 13:56:55,5.0
694.0,0.051208496,0.00390625,0.11767578,-6.6870227,5.3893127,-3.5648854,2019-09-03 13:56:55,5.0
695.0,0.053771973,0.006713866999999999,0.11975098,-11.297709,5.2290077,-4.587786,2019-09-03 13:56:55,5.0
696.0,0.049804688,0.008117675999999999,0.11340332,-12.893129,6.5496182,-1.9007633999999998,2019-09-03 13:56:55,5.0
697.0,0.043945312,0.002319336,0.11596680000000001,-10.083969,4.0152674,-1.9236640999999999,2019-09-03 13:56:55,5.0
698.0,0.04443359400000001,0.0068359375,0.11779785,-1.519084,7.6793895,-1.9847328999999998,2019-09-03 13:56:55,5.0
699.0,0.043823242000000005,0.014526367,0.11877441400000001,-2.8778627,4.335878,0.23664123,2019-09-03 13:56:55,5.0
700.0,0.04724121,0.0031738281,0.11785889,-6.145038,6.4885497,-1.3435115,2019-09-03 13:56:55,5.0
701.0,0.047668457000000004,0.002380371,0.1182251,-3.9007633000000004,5.2748094000000005,-1.9770991999999998,2019-09-03 13:56:55,5.0
702.0,0.035461426000000004,0.004333496,0.12457275400000001,-11.404580000000001,7.89313,-1.8625953999999998,2019-09-03 13:56:55,5.0
703.0,0.046203613,0.008850098,0.11834717,-12.595419999999999,5.9923663000000005,-3.2900763,2019-09-03 13:56:55,5.0
704.0,0.041625977,0.0037841796999999997,0.119628906,-7.7709923,6.839694500000001,-3.038168,2019-09-03 13:56:55,5.0
705.0,0.05090332,0.0053710938,0.12036133,-7.6488547,6.8549619999999996,-3.5725190000000002,2019-09-03 13:56:55,5.0
706.0,0.045166015999999996,0.0146484375,0.11364746,-4.6870227,7.328244000000001,-3.206107,2019-09-03 13:56:55,5.0
707.0,0.051208496,0.00091552734,0.1171875,-10.7404585,7.10687,-4.1297708,2019-09-03 13:56:55,5.0
708.0,0.047302246,0.0126953125,0.12011719,-8.236641,9.2595415,-4.9770994,2019-09-03 13:56:55,5.0
709.0,0.04901123,0.007873535,0.12341308599999999,-8.374044999999999,6.816794,-4.885496,2019-09-03 13:56:55,5.0
710.0,0.049438477,0.015625,0.12591553,-10.0,7.1450380000000004,-4.1374044,2019-09-03 13:56:55,5.0
711.0,0.045715332000000004,0.0154418945,0.1149292,-10.717557000000001,5.2442746,-2.3740457999999998,2019-09-03 13:56:55,5.0
712.0,0.05102539,0.01184082,0.11956787,-8.832061,7.1984735,-1.5648855,2019-09-03 13:56:55,5.0
713.0,0.047180176,-0.003112793,0.11633301,-14.198473000000002,7.8702292,-1.0,2019-09-03 13:56:55,5.0
714.0,0.046875,0.0068359375,0.13061523,-7.396946400000001,5.2977099999999995,0.6259541999999999,2019-09-03 13:56:55,5.0
715.0,0.043701172,0.012939453,0.1262207,-9.7786255,6.778625999999999,-0.5496183000000001,2019-09-03 13:56:55,5.0
716.0,0.047668457000000004,0.004699707,0.11499023400000001,-12.954199000000001,6.7709923,-2.9541984,2019-09-03 13:56:55,5.0
717.0,0.04840088,0.006225586,0.11853027,-5.1374044,5.519083999999999,-4.3587785000000006,2019-09-03 13:56:56,5.0
718.0,0.048461914,0.007629394499999999,0.12249756,-7.59542,5.8015265,-2.389313,2019-09-03 13:56:56,5.0
719.0,0.050964355,-0.00036621094,0.11779785,-12.603053,5.809159999999999,-3.091603,2019-09-03 13:56:56,5.0
720.0,0.039916992000000005,0.004333496,0.12164307,-7.2442746,6.6793895,-4.1679387000000006,2019-09-03 13:56:56,5.0
721.0,0.04675293,0.00390625,0.11755371,-10.007633,7.3816795,-4.923664,2019-09-03 13:56:56,5.0
722.0,0.046447754,-0.0021972656,0.11981201,-9.755725,6.038168,-3.1526718,2019-09-03 13:56:56,5.0
723.0,0.053588867000000005,0.010070800999999999,0.11639404,-8.328244,6.343511599999999,-2.3206108,2019-09-03 13:56:56,5.0
724.0,0.049987792999999996,0.0045166016,0.11975098,-3.9770992,6.603053599999999,-2.534351,2019-09-03 13:56:56,5.0
725.0,0.04248047,0.005065918,0.11315918,-10.641221,8.541985,-3.167939,2019-09-03 13:56:56,5.0
726.0,0.05444336,0.0041503906,0.11950683599999999,-2.7557251,5.740458,-3.351145,2019-09-03 13:56:56,5.0
727.0,0.0501709,0.012512207,0.11578369,-6.1679387000000006,6.923664,-3.3435113,2019-09-03 13:56:56,5.0
728.0,0.0423584,0.012817383,0.115112305,-3.1984732000000005,5.396946400000001,-3.6641220000000003,2019-09-03 13:56:56,5.0
729.0,0.046875,0.0051879883,0.11846924,-7.0,6.89313,-2.519084,2019-09-03 13:56:56,5.0
730.0,0.048461914,0.0056152343999999995,0.11285400400000001,-7.076336,4.8396945,-3.0152671000000004,2019-09-03 13:56:56,5.0
731.0,0.04864502,0.003967285,0.11883545,-7.885496000000001,5.7251905999999995,-2.9541984,2019-09-03 13:56:56,5.0
732.0,0.042175292999999996,0.0048217773,0.11999512,-4.4198474999999995,5.9770994,-3.2671757,2019-09-03 13:56:56,5.0
733.0,0.045654297,0.0068359375,0.12567139,-8.801527,5.3816795,-4.0610685,2019-09-03 13:56:56,5.0
734.0,0.040649414,0.005554199,0.11669922,-6.2442746,5.5725193,-2.3587787000000002,2019-09-03 13:56:56,5.0
735.0,0.047851562,0.011108398,0.118652344,-7.6106872999999995,6.1679387000000006,-2.8091602000000004,2019-09-03 13:56:56,5.0
736.0,0.054138184000000006,0.01763916,0.12078857400000001,-8.687023,6.8320612999999994,-1.9770991999999998,2019-09-03 13:56:56,5.0
737.0,0.045898438,0.009399414,0.119018555,0.6335878,4.3206105,-3.4503817999999997,2019-09-03 13:56:56,5.0
738.0,0.05633545,0.013244628999999999,0.113098145,-10.297709,7.091603299999999,-1.8549619,2019-09-03 13:56:56,5.0
739.0,0.051391599999999996,0.005737304699999999,0.11395264,-0.67175573,5.5801525000000005,-3.3358779999999997,2019-09-03 13:56:56,5.0
740.0,0.044677734000000004,0.0041503906,0.12011719,-6.9541984,6.908396700000001,-2.3816792999999996,2019-09-03 13:56:56,5.0
741.0,0.04534912,0.012512207,0.115234375,-6.5419846,7.442748,-3.870229,2019-09-03 13:56:56,5.0
742.0,0.04449463,0.0068359375,0.12072754,-5.9007635,5.2748094000000005,-3.4503817999999997,2019-09-03 13:56:56,5.0
743.0,0.046325684000000006,0.0015258789000000001,0.12060547,-6.6335880000000005,7.0076336999999995,-4.664122,2019-09-03 13:56:56,5.0
744.0,0.05291748,0.002380371,0.11975098,-8.305344,7.1984735,-2.5648854,2019-09-03 13:56:56,5.0
745.0,0.048950195,0.008178711,0.11932373,-10.290076,6.664122,-2.7709923,2019-09-03 13:56:56,5.0
746.0,0.048950195,0.008728027,0.11389160000000002,-11.503817,6.5725193,-1.7709924,2019-09-03 13:56:56,5.0
747.0,0.05224609400000001,0.0030517578000000003,0.12554932,-12.732824,6.5725193,-2.7709923,2019-09-03 13:56:56,5.0
748.0,0.053466797,0.010925293,0.1194458,-10.328244,7.030534299999999,-4.328244000000001,2019-09-03 13:56:56,5.0
749.0,0.05267334,0.010375977,0.12139892599999999,-7.5648856,6.183206,-4.3587785000000006,2019-09-03 13:56:56,5.0
750.0,0.04522705,0.011230469,0.11993408,-8.824428,5.9923663000000005,-4.152672,2019-09-03 13:56:56,5.0
751.0,0.044128417999999996,0.00793457,0.12426758,-6.7328243,5.0839696,-3.946565,2019-09-03 13:56:57,5.0
752.0,0.046447754,0.006958008000000001,0.11761474599999999,-10.137404,7.2824425999999995,-5.2977099999999995,2019-09-03 13:56:57,5.0
753.0,0.06048584,0.008300781,0.11358642599999999,-7.10687,6.152672,-4.183206,2019-09-03 13:56:57,5.0
754.0,0.046875,0.0072021483999999995,0.11431885,-4.396946400000001,6.0610685,-3.6870230000000004,2019-09-03 13:56:57,5.0
755.0,0.05456543,0.0056152343999999995,0.11938476599999999,-6.9465647,5.473282299999999,-3.3969467000000004,2019-09-03 13:56:57,5.0
756.0,0.05419922,-0.0014038085999999999,0.11352539,-5.931298,6.4656487,-2.2442749,2019-09-03 13:56:57,5.0
757.0,0.046081542999999996,0.002746582,0.123168945,-7.847328,6.259542,0.114503816,2019-09-03 13:56:57,5.0
758.0,0.040405273,0.004638672,0.117004395,-2.7099237,5.6488547,0.259542,2019-09-03 13:56:57,5.0
759.0,0.047912598,0.01184082,0.12048339999999998,-11.312977,8.015267,-2.0610688,2019-09-03 13:56:57,5.0
760.0,0.051086426,0.0040893555,0.119628906,-5.9160304,6.2671757,-0.39694658,2019-09-03 13:56:57,5.0
761.0,0.046325684000000006,0.006286621,0.1239624,-4.366412,5.4656487,-1.3816794,2019-09-03 13:56:57,5.0
762.0,0.052856445,0.0068969727,0.115234375,-9.610686999999999,5.3129773,-1.3435115,2019-09-03 13:56:57,5.0
763.0,0.043884277,0.003112793,0.119018555,-4.6106873,6.9465647,-1.2671756,2019-09-03 13:56:57,5.0
764.0,0.046203613,0.013671875,0.12207031,-9.244275,7.5801525,-3.351145,2019-09-03 13:56:57,5.0
765.0,0.04888916,0.0053710938,0.11706543,-6.5114503,5.6793895,-2.6259542000000002,2019-09-03 13:56:57,5.0
766.0,0.049682617000000005,0.0031738281,0.12579346,-7.442748,6.6335880000000005,-3.0152671000000004,2019-09-03 13:56:57,5.0
767.0,0.04827881,0.010498047,0.11859131,-8.664123,7.900763499999999,-2.832061,2019-09-03 13:56:57,5.0
768.0,0.058898926,0.002319336,0.12512207,-3.4885497,3.6106870000000004,-3.2290077,2019-09-03 13:56:57,5.0
769.0,0.049621582000000004,0.0037841796999999997,0.118652344,-8.893129,6.862595599999999,-2.8778627,2019-09-03 13:56:57,5.0
770.0,0.053894042999999996,0.00970459,0.1262207,-6.9847326,6.839694500000001,-4.3129773,2019-09-03 13:56:57,5.0
771.0,0.050048828,0.0025024414000000004,0.11730957,-3.0458016,5.1755724,-3.206107,2019-09-03 13:56:57,5.0
772.0,0.051696777,0.0026855469,0.1194458,-7.900763499999999,6.2748094000000005,-3.946565,2019-09-03 13:56:57,5.0
773.0,0.05712890599999999,0.006652831999999999,0.12243652,-5.2977099999999995,7.1679387000000006,-2.5877862,2019-09-03 13:56:57,5.0
774.0,0.045043945,0.010803223,0.1171875,1.7709924,4.9923663000000005,-2.687023,2019-09-03 13:56:57,5.0
775.0,0.049560547,0.0036010741999999997,0.12286377,-10.2213745,5.9923663000000005,-1.5267175,2019-09-03 13:56:57,5.0
776.0,0.04748535,0.013366699,0.12243652,-4.8702292,5.7175574000000005,-1.4885496,2019-09-03 13:56:57,5.0
777.0,0.04449463,0.00982666,0.11755371,-5.10687,6.656488400000001,-1.9465648999999998,2019-09-03 13:56:57,5.0
778.0,0.047973632999999995,0.0041503906,0.113464355,-6.190840000000001,6.10687,-2.8473282,2019-09-03 13:56:57,5.0
779.0,0.049743652,0.006164551,0.119262695,-3.1068702,5.40458,-0.8778626,2019-09-03 13:56:57,5.0
780.0,0.057373047,0.008483886999999999,0.119140625,-10.572519,6.0229006,-1.8320610000000002,2019-09-03 13:56:57,5.0
781.0,0.04937744,0.0068969727,0.120910645,-8.007633,6.2137402999999996,-1.8473282,2019-09-03 13:56:57,5.0
782.0,0.05517578,0.012023926,0.11596680000000001,-5.809159999999999,6.1984735,-0.6488550000000001,2019-09-03 13:56:57,5.0
783.0,0.050354004,0.0079956055,0.12329101599999999,-10.671756,6.80916,-1.2290076,2019-09-03 13:56:57,5.0
784.0,0.046691895,0.008544922,0.11767578,-8.312977,6.5038165999999995,-2.427481,2019-09-03 13:56:57,5.0
785.0,0.043029785,0.012512207,0.12078857400000001,-8.938931,6.839694500000001,-1.8854961,2019-09-03 13:56:57,5.0
786.0,0.049072265999999996,0.01361084,0.12017822,-8.679389,5.473282299999999,0.015267176,2019-09-03 13:56:57,5.0
787.0,0.042114257999999995,0.008666992,0.12335205,-14.893129,7.458015400000001,-1.2442749,2019-09-03 13:56:57,5.0
788.0,0.047729492000000005,0.004028320300000001,0.123168945,-17.290077,4.8244276,-0.8778626,2019-09-03 13:56:58,5.0
789.0,0.041320800000000005,0.0024414061999999998,0.11846924,-5.7709923,1.3282443000000002,-2.6412212999999998,2019-09-03 13:56:58,5.0
790.0,0.051818848,0.0072021483999999995,0.12762451,-15.045801,-1.0992366000000002,-4.763358599999999,2019-09-03 13:56:58,5.0
791.0,0.038879395,-0.0072631836,0.12426758,-31.67939,-4.2519083,-9.389313000000001,2019-09-03 13:56:58,5.0
792.0,0.050231934000000006,-0.011657715,0.123046875,-22.816793,-8.618319999999999,-14.068703,2019-09-03 13:56:58,5.0
793.0,0.04699707,0.0037841796999999997,0.11804199,-12.847328,-8.335877,-13.931297,2019-09-03 13:56:58,5.0
794.0,0.056884765999999996,0.0052490233999999995,0.1182251,-6.2519083,-4.7557254,-9.755725,2019-09-03 13:56:58,5.0
795.0,0.050964355,0.0021362305,0.10839844,-1.3358778999999998,-6.9770994,-5.3206105,2019-09-03 13:56:58,5.0
796.0,0.04840088,0.005737304699999999,0.1383667,-44.297709999999995,6.6183205,-22.93893,2019-09-03 13:56:58,5.0
797.0,0.057922363,-0.014099121000000001,0.12408447,-19.587785999999998,-2.1450381000000003,-9.381680000000001,2019-09-03 13:56:58,5.0
798.0,0.059387207000000004,-0.0053100586,0.11730957,-6.2442746,-4.3816795,-13.0992365,2019-09-03 13:56:58,5.0
799.0,0.05480957,-0.0026855469,0.10626221,8.923664,-9.152672,-15.366412,2019-09-03 13:56:58,5.0
800.0,0.05621338,0.0014648438,0.10052489999999999,5.183206,-5.4503818,-19.030535,2019-09-03 13:56:58,5.0
801.0,0.05633545,0.004272461,0.11297607400000001,1.7099236,-0.099236645,-16.541985,2019-09-03 13:56:58,5.0
802.0,0.059692382999999995,0.011108398,0.11444092,2.9847328999999996,2.0839694,-12.564885,2019-09-03 13:56:58,5.0
803.0,0.05712890599999999,0.015014648,0.10296631,4.2977099999999995,3.5496182000000003,-7.236641400000001,2019-09-03 13:56:58,5.0
804.0,0.06280517599999999,0.012939453,0.10516357400000001,2.4580152,8.80916,-5.6183205,2019-09-03 13:56:58,5.0
805.0,0.06225586,0.023620605,0.10284424,-0.519084,13.717557000000001,-0.90839696,2019-09-03 13:56:58,5.0
806.0,0.06915283,0.012817383,0.10369873,-12.549619,18.862595000000002,2.0076337,2019-09-03 13:56:58,5.0
807.0,0.04272461,0.022705077999999997,0.11126709,-15.625955,26.290077,7.152672,2019-09-03 13:56:58,5.0
808.0,0.05615234400000001,0.0071411133,0.12561035,-35.351147,21.969465,5.854962,2019-09-03 13:56:58,5.0
809.0,0.05279541,-0.009521484,0.13256836,-33.717556,16.564885999999998,1.6870228999999999,2019-09-03 13:56:58,5.0
810.0,0.051696777,-0.01574707,0.117370605,-14.763359,10.977099,-0.32824427,2019-09-03 13:56:58,5.0
811.0,0.05065918,-0.006286621,0.10906982400000001,-10.045800999999999,14.045801,-2.3358779999999997,2019-09-03 13:56:58,5.0
812.0,0.044128417999999996,0.004333496,0.12432861,-12.770992,13.679389000000002,-0.73282444,2019-09-03 13:56:58,5.0
813.0,0.053833007999999995,-0.010559082,0.11810303,-23.290077,8.961832000000001,-7.625953999999999,2019-09-03 13:56:58,5.0
814.0,0.06188965,-0.014160156,0.11669922,2.4045799999999997,9.908397,-9.503817,2019-09-03 13:56:58,5.0
815.0,0.06518555,0.002746582,0.11895752,17.778625,13.244275,-8.435115,2019-09-03 13:56:58,5.0
816.0,0.059692382999999995,0.0015869141,0.12335205,5.145038,6.6106872999999995,-6.6106872999999995,2019-09-03 13:56:58,5.0
817.0,0.054626465,0.012390136999999999,0.11749267599999999,-7.0610685,4.526717700000001,-6.0229006,2019-09-03 13:56:58,5.0
818.0,0.060546875,0.007019043000000001,0.11279297,-10.412213000000001,6.0229006,-2.5114503,2019-09-03 13:56:58,5.0
819.0,0.05255127,0.01184082,0.11285400400000001,-9.160305000000001,12.625955000000001,-2.2748091,2019-09-03 13:56:58,5.0
820.0,0.04864502,0.009643555,0.11566162,-3.923664,11.083969,0.31297709999999995,2019-09-03 13:56:58,5.0
821.0,0.051452637,0.0063476562,0.12036133,-14.251907999999998,8.664123,-0.77862597,2019-09-03 13:56:59,5.0
822.0,0.04937744,6.1035155999999994e-05,0.12243652,-9.068703,4.473282299999999,-3.8625953,2019-09-03 13:56:59,5.0
823.0,0.060180664,0.010620117,0.12097168,7.412214,4.587786,1.7938931,2019-09-03 13:56:59,5.0
824.0,0.051513672,-0.0029907227,0.12438965,-17.06107,1.519084,-0.29007635,2019-09-03 13:56:59,5.0
825.0,0.04034424,-0.0007324219,0.11730957,-2.6641220000000003,-4.1221375,0.28244275,2019-09-03 13:56:59,5.0
826.0,0.054382324,0.007446289,0.1038208,13.854961,-0.5038168,1.6030535,2019-09-03 13:56:59,5.0
827.0,0.055847167999999996,0.01159668,0.105529785,-1.8549619,8.007633,0.43511450000000007,2019-09-03 13:56:59,5.0
828.0,0.04931640599999999,0.0045166016,0.12280273400000001,-11.580152499999999,5.9694657,-3.2290077,2019-09-03 13:56:59,5.0
829.0,0.060546875,0.0078125,0.13354492,-24.08397,3.5725190000000002,-3.6564887,2019-09-03 13:56:59,5.0
830.0,0.056274414,-0.0014648438,0.12298584,-23.229008,-2.6259542000000002,-3.0992367,2019-09-03 13:56:59,5.0
831.0,0.059204099999999996,0.0017089844000000001,0.12121582,-3.793893,-4.5648856,-1.9083970000000001,2019-09-03 13:56:59,5.0
832.0,0.054016113,0.012756348,0.1194458,-1.2290076,-6.1603055,0.5038168,2019-09-03 13:56:59,5.0
833.0,0.05444336,0.0075683593999999995,0.11877441400000001,8.984733,-8.954199000000001,8.641221,2019-09-03 13:56:59,5.0
834.0,0.07080078,0.011291503999999999,0.11010742,24.786259,-9.732824,7.5114503,2019-09-03 13:56:59,5.0
835.0,0.06768799,0.011474608999999998,0.11248779,14.312976999999998,-8.206107000000001,11.374044999999999,2019-09-03 13:56:59,5.0
836.0,0.0690918,0.012084961000000002,0.10961914,10.328244,-6.091603299999999,13.251907999999998,2019-09-03 13:56:59,5.0
837.0,0.061767578,0.0034790040000000004,0.1104126,15.732823999999999,-6.7480917,17.290077,2019-09-03 13:56:59,5.0
838.0,0.06866455,-0.00018310547,0.10595703,11.015267,-1.1526718,19.343512,2019-09-03 13:56:59,5.0
839.0,0.06542969,-0.0012207030999999999,0.10131836,14.206107000000001,1.9083970000000001,16.320610000000002,2019-09-03 13:56:59,5.0
840.0,0.06628418,0.00592041,0.10748291,14.908397,5.40458,15.671756,2019-09-03 13:56:59,5.0
841.0,0.05670166,0.0115356445,0.10388183599999999,-3.4732822999999997,8.2595415,7.6870227,2019-09-03 13:56:59,5.0
842.0,0.046569824,0.0025634766,0.09918213,-26.404581,16.610687,2.908397,2019-09-03 13:56:59,5.0
843.0,0.051818848,-0.002380371,0.10192871,-26.526718,18.984734,-4.0,2019-09-03 13:56:59,5.0
844.0,0.05633545,0.0040893555,0.1026001,-31.274809,26.969465000000003,-1.4503816,2019-09-03 13:56:59,5.0
845.0,0.042297363,0.0051879883,0.105285645,-32.297709999999995,38.038166,-4.7328243,2019-09-03 13:56:59,5.0
846.0,0.03741455,0.015136719,0.21960449,20.732824,32.839695,1.2977100000000001,2019-09-03 13:56:59,5.0
847.0,0.060424805,0.0045166016,0.09802246,-6.374046,-1.351145,5.8320612999999994,2019-09-03 13:56:59,5.0
848.0,0.03277588,0.012512207,0.12573242,4.076336,8.290076,5.625954,2019-09-03 13:56:59,5.0
849.0,0.060546875,0.013427733999999998,0.11706543,-5.1984735,-5.809159999999999,7.4198475,2019-09-03 13:56:59,5.0
850.0,0.04840088,0.0079956055,0.12219238,-13.725191,10.328244,0.5648854999999999,2019-09-03 13:56:59,5.0
851.0,0.059753417999999996,0.0006103515599999999,0.12170410000000002,-27.038168,9.198473,-1.5725191,2019-09-03 13:56:59,5.0
852.0,0.06311035,-0.006286621,0.11505127,-25.854961,8.572519,-4.4198474999999995,2019-09-03 13:56:59,5.0
853.0,0.07202148400000001,-0.001953125,0.11590576,-1.7862595000000001,6.8702292,-11.167939,2019-09-03 13:56:59,5.0
854.0,0.05694580000000001,0.006652831999999999,0.11657715,3.0839694,9.839694999999999,-12.7404585,2019-09-03 13:56:59,5.0
855.0,0.05407715,-0.0018920898,0.11834717,-4.603053599999999,8.053435,-12.526717,2019-09-03 13:56:59,5.0
856.0,0.057922363,0.0,0.11840819999999999,-3.1374047000000003,8.526717,-14.557251999999998,2019-09-03 13:56:59,5.0
857.0,0.04937744,0.0015869141,0.11425781,2.0076337,6.2900763,-13.534351000000001,2019-09-03 13:56:59,5.0
858.0,0.052490234000000004,0.0051879883,0.11242676,-8.374044999999999,6.9770994,-14.343511999999999,2019-09-03 13:57:00,5.0
859.0,0.059631348,-0.0008544922000000001,0.11730957,-1.7175573,5.519083999999999,-16.587785999999998,2019-09-03 13:57:00,5.0
860.0,0.04711914,0.008117675999999999,0.12365723,7.80916,4.7938933,-15.709923999999999,2019-09-03 13:57:00,5.0
861.0,0.052856445,0.013793945,0.117126465,3.6641220000000003,2.9694657,-14.335876999999998,2019-09-03 13:57:00,5.0
862.0,0.055236815999999994,0.018127441,0.11315918,-9.748092,4.519083999999999,-13.465648999999999,2019-09-03 13:57:00,5.0
863.0,0.059570312,0.010681152,0.11175537,-4.763358599999999,4.519083999999999,-13.374045,2019-09-03 13:57:00,5.0
864.0,0.053710938,0.006286621,0.11468506,-4.9007635,5.8625956,-9.526717,2019-09-03 13:57:00,5.0
865.0,0.053527832000000004,0.013122558999999999,0.12036133,-8.267176,5.091603299999999,-6.656488400000001,2019-09-03 13:57:00,5.0
866.0,0.049987792999999996,0.017211914,0.12231445,-13.687023000000002,7.1984735,-5.671755999999999,2019-09-03 13:57:00,5.0
867.0,0.054260254,0.013244628999999999,0.11932373,-18.442749,6.9160304,-3.70229,2019-09-03 13:57:00,5.0
868.0,0.051330565999999994,0.007507324,0.12341308599999999,-16.664122,6.2900763,-3.8244274,2019-09-03 13:57:00,5.0
869.0,0.049133300000000005,0.01171875,0.11895752,-24.664122,7.0458016,-0.57251906,2019-09-03 13:57:00,5.0
870.0,0.049865723,0.018737793,0.12176514,-32.931297,6.3587785000000006,0.45801526,2019-09-03 13:57:00,5.0
871.0,0.052368164,0.010192871,0.121154785,-38.44275,8.045800999999999,2.9923662999999996,2019-09-03 13:57:00,5.0
872.0,0.052612305,0.023254395,0.11273193,-32.419846,7.259542,7.793893300000001,2019-09-03 13:57:00,5.0
873.0,0.048461914,0.019165039,0.11462402,-26.61832,7.0152674,14.908397,2019-09-03 13:57:00,5.0
874.0,0.04547119,0.026794434,0.115356445,66.32061,-5.145038,41.297709999999995,2019-09-03 13:57:00,5.0
875.0,0.070373535,0.043884277,0.109558105,91.42748,2.5954200000000003,51.816795,2019-09-03 13:57:00,5.0
876.0,0.06829834,0.057495117000000005,0.10913086,74.64121999999999,0.48854962,60.664124,2019-09-03 13:57:00,5.0
877.0,0.07171631,0.057250977,0.12426758,53.221375,-5.7022900000000005,71.63359,2019-09-03 13:57:00,5.0
878.0,0.07727051,0.04711914,0.1149292,44.290077000000004,-7.9465647,79.74809,2019-09-03 13:57:00,5.0
879.0,0.07916260000000001,0.03503418,0.11059569999999999,54.885498,-11.931297,87.145035,2019-09-03 13:57:00,5.0
880.0,0.086120605,0.023986816,0.11193848,58.984733999999996,-5.9007635,92.908394,2019-09-03 13:57:00,5.0
881.0,0.08172607400000001,0.032836914,0.11706543,59.206109999999995,-0.48854962,96.80153,2019-09-03 13:57:00,5.0
882.0,0.07208252,0.03656006,0.11450195,27.32061,4.6946564,99.08397,2019-09-03 13:57:00,5.0
883.0,0.06640625,0.017456055,0.10687256,-4.1603055,13.19084,99.96947,2019-09-03 13:57:00,5.0
884.0,0.057556152,0.002746582,0.10589599599999999,-8.870229,21.12977,97.824425,2019-09-03 13:57:00,5.0
885.0,0.05328369,-0.016723633,0.099609375,-9.893129,24.236639999999998,88.56489,2019-09-03 13:57:00,5.0
886.0,0.04547119,-0.0079956055,0.093933105,11.106871,35.045803,79.54961999999999,2019-09-03 13:57:00,5.0
887.0,0.031555176000000004,-0.022094727,0.0925293,29.122137,49.633587,70.34351,2019-09-03 13:57:00,5.0
888.0,0.03918457,-0.015808105,0.10192871,24.549618,59.77099200000001,61.49618,2019-09-03 13:57:00,5.0
889.0,0.028991700000000002,-0.014587402,0.09722900400000001,11.763359,70.824425,46.74046,2019-09-03 13:57:00,5.0
890.0,0.0030517578000000003,-0.007080078,0.10449219,3.351145,78.35114,31.786259,2019-09-03 13:57:00,5.0
891.0,0.0028686523,-0.012512207,0.1104126,-17.030535,71.12214,21.259542,2019-09-03 13:57:00,5.0
892.0,0.0010986328,-0.014770508,0.12200928,-40.74046,65.96947,3.8473281999999998,2019-09-03 13:57:00,5.0
893.0,0.009460449000000001,-0.016235351999999998,0.15393066,-54.015266000000004,47.954197,-7.3129773,2019-09-03 13:57:00,5.0
894.0,0.027832031,-0.020812988,0.16351318,-27.053434000000003,47.25954,-9.511451,2019-09-03 13:57:01,5.0
895.0,0.028259277000000003,-0.0115356445,0.15209961,22.229008,46.862595,17.679389999999998,2019-09-03 13:57:01,5.0
896.0,0.03491211,0.00012207031000000001,0.11761474599999999,-12.755725,41.839695,22.007633,2019-09-03 13:57:01,5.0
897.0,0.049987792999999996,-0.01739502,0.12652588,-59.679390000000005,15.167939000000002,18.389313,2019-09-03 13:57:01,5.0
898.0,0.017089844,-0.013916016000000002,0.1307373,-44.870228000000004,39.045803,19.587785999999998,2019-09-03 13:57:01,5.0
899.0,0.025695799999999998,-0.027893066,0.119262695,-41.435116,24.366413,10.923664,2019-09-03 13:57:01,5.0
900.0,0.02178955,-0.03479004,0.12609863,-0.9541985000000001,27.267176,-9.229008,2019-09-03 13:57:01,5.0
901.0,0.03967285,-0.018920898000000002,0.12225342,15.664123000000002,8.236641,-21.42748,2019-09-03 13:57:01,5.0
902.0,0.032409667999999996,-0.005432129,0.13452148,8.282442999999999,9.824428,-31.877863,2019-09-03 13:57:01,5.0
903.0,0.039733887,-0.017211914,0.12475586,-1.1679389999999998,5.664122,-36.610687,2019-09-03 13:57:01,5.0
904.0,0.034606934,-0.015258788999999998,0.1362915,14.503817000000002,-0.35877863,-36.671757,2019-09-03 13:57:01,5.0
905.0,0.024597168,0.011352538999999998,0.13043213,8.603053,-6.473282299999999,-38.53435,2019-09-03 13:57:01,5.0
906.0,0.04272461,0.0029296875,0.12731934,-19.923664000000002,-4.7938933,-33.74046,2019-09-03 13:57:01,5.0
907.0,0.029296875,-0.018066406,0.12225342,-17.57252,-1.9160305,-33.0229,2019-09-03 13:57:01,5.0
908.0,0.03137207,0.0014648438,0.12615967,-16.160304999999997,-1.6870228999999999,-28.389313,2019-09-03 13:57:01,5.0
909.0,0.030212402000000003,-0.011291503999999999,0.12286377,-22.366413,-1.4961832,-23.282442,2019-09-03 13:57:01,5.0
910.0,0.030822753999999997,-0.016235351999999998,0.12078857400000001,-17.244274,0.129771,-21.664122,2019-09-03 13:57:01,5.0
911.0,0.038757323999999996,0.003112793,0.12286377,-5.2748094000000005,2.4732822999999997,-17.458015,2019-09-03 13:57:01,5.0
912.0,0.04083252,0.012084961000000002,0.12982178,-20.335878,7.10687,-5.7175574000000005,2019-09-03 13:57:01,5.0
913.0,0.04034424,-0.015014648,0.12188721,-27.839695000000003,11.702291,-12.664123,2019-09-03 13:57:01,5.0
914.0,0.025817871000000003,-0.008422852,0.12573242,-10.381680000000001,12.7404585,-9.282442999999999,2019-09-03 13:57:01,5.0
915.0,0.01977539,-0.0044555664,0.12261963,-11.801527,9.137404,-8.267176,2019-09-03 13:57:01,5.0
916.0,0.03564453,-0.014038086000000002,0.12591553,-11.366412,6.6183205,-7.6946563999999995,2019-09-03 13:57:01,5.0
917.0,0.020141601999999998,-0.007385254,0.12164307,-16.534351,10.908397,-4.0,2019-09-03 13:57:01,5.0
918.0,0.039245605,-0.011779785,0.1296997,-7.8244276,5.5801525000000005,-3.221374,2019-09-03 13:57:01,5.0
919.0,0.041320800000000005,-0.012817383,0.122558594,-9.198473,4.3129773,-1.3358778999999998,2019-09-03 13:57:01,5.0
920.0,0.027404785,-0.013977051,0.12475586,-14.312976999999998,5.931298,-1.7938931,2019-09-03 13:57:01,5.0
921.0,0.030212402000000003,-0.00042724610000000003,0.12683105,-10.21374,4.473282299999999,-0.07633588,2019-09-03 13:57:01,5.0
922.0,0.035461426000000004,-0.015319824,0.1262207,-11.694656,3.6641220000000003,-1.7404580000000003,2019-09-03 13:57:01,5.0
923.0,0.040649414,-0.014587402,0.12133789,-0.46564886,2.167939,-2.7328243,2019-09-03 13:57:01,5.0
924.0,0.033691406,-0.0045776367,0.12005615,-5.0458016,4.923664,-3.6641220000000003,2019-09-03 13:57:01,5.0
925.0,0.03741455,-0.005432129,0.1293335,-10.679389,9.038167999999999,-3.648855,2019-09-03 13:57:01,5.0
926.0,0.028808594,-0.026794434,0.12371826,-15.541985,2.1374047000000003,-1.9923664,2019-09-03 13:57:01,5.0
927.0,0.025390625,-0.027160645,0.12646484,1.4580153,7.8778625,-6.396946400000001,2019-09-03 13:57:01,5.0
928.0,0.037353516,-0.0007934570299999999,0.12414551,20.923664000000002,6.671755999999999,-7.969465700000001,2019-09-03 13:57:01,5.0
929.0,0.037841797,-0.011474608999999998,0.12347412,19.419847,9.557252,-4.3587785000000006,2019-09-03 13:57:01,5.0
930.0,0.032470703,0.0025634766,0.12695312,9.396947,5.9007635,-2.2595419999999997,2019-09-03 13:57:02,5.0
931.0,0.040893555,0.0036621094,0.12359619,1.1526718,2.7404580000000003,-4.259542,2019-09-03 13:57:02,5.0
932.0,0.028381347999999997,-0.006164551,0.12573242,-8.534351,-0.08396947,-4.473282299999999,2019-09-03 13:57:02,5.0
933.0,0.032409667999999996,-0.004028320300000001,0.13293457,-26.343512,-0.122137405,-11.816792999999999,2019-09-03 13:57:02,5.0
934.0,0.041015625,0.002380371,0.13140869,0.6870229,0.99236643,-4.145038,2019-09-03 13:57:02,5.0
935.0,0.031921387,0.005859375,0.12225342,-7.0,-0.610687,-8.916031,2019-09-03 13:57:02,5.0
936.0,0.03857422,-0.008178711,0.13232422,-1.5038168,-0.40458015,-2.6183207000000004,2019-09-03 13:57:02,5.0
937.0,0.02935791,-0.009399414,0.12164307,0.7633588000000001,2.6183207000000004,-3.8396947,2019-09-03 13:57:02,5.0
938.0,0.03942871,-0.018554688,0.13153076,14.938931,5.4351144,-5.068702,2019-09-03 13:57:02,5.0
939.0,0.04626465,-0.032958984,0.13977051,36.068703,12.916031,-2.0687022,2019-09-03 13:57:02,5.0
940.0,0.06323242,-0.02960205,0.14367676,54.38168,25.908398000000002,8.732824,2019-09-03 13:57:02,5.0
941.0,0.07525635,-0.01739502,0.16888428,36.160305,31.038168,27.450382,2019-09-03 13:57:02,5.0
942.0,0.10675049,-0.03668213,0.15600586,25.862595000000002,20.877863,-4.603053599999999,2019-09-03 13:57:02,5.0
943.0,0.09027099599999999,0.07562256,0.16864014,-81.40458000000001,-17.839695000000003,27.419846999999997,2019-09-03 13:57:02,5.0
944.0,0.07165527,-0.020751953,0.14483643,-213.55725,-10.648855000000001,-1.9847328999999998,2019-09-03 13:57:02,5.0
945.0,0.07788086,-0.041320800000000005,0.11486816400000001,-153.29007,1.0534351,-28.74809,2019-09-03 13:57:02,5.0
946.0,0.059448242000000005,-0.03125,0.113098145,-103.900764,18.045801,-30.068703000000003,2019-09-03 13:57:02,5.0
947.0,0.04827881,-0.017700195,0.11517334,-122.83968999999999,36.351147,-37.85496,2019-09-03 13:57:02,5.0
948.0,0.02709961,-0.025268555,0.10058594,-125.58778000000001,45.923664,-44.137405,2019-09-03 13:57:02,5.0
949.0,0.02557373,-0.031311035,0.076293945,-131.9771,61.038166000000004,-50.89313,2019-09-03 13:57:02,5.0
950.0,0.0067749023,-0.040527344,0.08862305,-122.32825,71.80915999999999,-60.206109999999995,2019-09-03 13:57:02,5.0
951.0,0.0005493164,-0.058288574,0.09155273400000001,-96.0687,78.42748,-68.38931,2019-09-03 13:57:02,5.0
952.0,-0.0115356445,-0.057678223,0.10205078,-36.374046,74.45038000000001,-69.496185,2019-09-03 13:57:02,5.0
953.0,-0.010925293,-0.022521972999999997,0.08343506,-12.251908,66.69466,-54.21374,2019-09-03 13:57:02,5.0
954.0,-0.009033203,-0.044189453,0.0925293,10.648855000000001,61.984733999999996,-29.06107,2019-09-03 13:57:02,5.0
955.0,-0.0025634766,-0.038757323999999996,0.12475586,12.587786999999999,35.282444,-17.954199,2019-09-03 13:57:02,5.0
956.0,0.0025024414000000004,-0.06915283,0.10827637,2.1755726,14.083969,-29.396946000000003,2019-09-03 13:57:02,5.0
957.0,0.028869628999999997,-0.074279785,0.11370849599999999,13.076336,6.9847326,-32.908398,2019-09-03 13:57:02,5.0
958.0,0.016357422,-0.030395507999999998,0.13665771,10.923664,20.93893,-28.419846999999997,2019-09-03 13:57:02,5.0
959.0,0.014282227,-0.07110596,0.10394287,-24.641222,21.603054,-34.305344,2019-09-03 13:57:02,5.0
960.0,0.0065307617,-0.057739257999999995,0.12463379,-4.5496182,23.206106,-46.290077000000004,2019-09-03 13:57:02,5.0
961.0,0.011291503999999999,-0.06060791,0.12225342,-30.541984999999997,16.419847,-48.923664,2019-09-03 13:57:02,5.0
962.0,0.020507812,-0.043884277,0.10107422,-19.167938,25.534351,-45.687022999999996,2019-09-03 13:57:02,5.0
963.0,0.017333984,-0.06298828,0.10772705,-12.564885,28.076335999999998,-54.62595400000001,2019-09-03 13:57:02,5.0
964.0,0.011779785,-0.06298828,0.120910645,-0.35114503,43.12214,-57.251906999999996,2019-09-03 13:57:02,5.0
965.0,0.0014038085999999999,-0.07092285,0.14556885,-19.57252,31.992366999999998,-52.610687,2019-09-03 13:57:02,5.0
966.0,-0.0026855469,-0.09326172,0.1274414,14.450381,29.076335999999998,-53.17556999999999,2019-09-03 13:57:03,5.0
967.0,0.0018920898,-0.058044434000000006,0.13903809,40.160305,24.122137,-53.015266000000004,2019-09-03 13:57:03,5.0
968.0,-0.0015869141,-0.032226562,0.10882568,8.801527,20.709923,-47.770992,2019-09-03 13:57:03,5.0
969.0,0.0006713867,-0.0006713867,0.11968994,-23.236639999999998,27.183207,-26.458015000000003,2019-09-03 13:57:03,5.0
970.0,-0.0016479492000000002,0.011352538999999998,0.12133789,-14.244275,5.183206,-4.4503818,2019-09-03 13:57:03,5.0
971.0,0.0052490233999999995,0.013061523,0.13421631,-37.297709999999995,-1.351145,12.717557000000001,2019-09-03 13:57:03,5.0
972.0,0.002319336,-0.001953125,0.13763428,-55.221375,-10.946565,31.10687,2019-09-03 13:57:03,5.0
973.0,0.0026855469,-0.02508545,0.13812256,-76.70229,-31.76336,48.732826,2019-09-03 13:57:03,5.0
974.0,-0.0018920898,-0.036010742000000005,0.12335205,-127.0458,-56.343509999999995,66.58015400000001,2019-09-03 13:57:03,5.0
975.0,-0.0052490233999999995,-0.07495117,0.105407715,-145.19847,-79.618324,77.68701999999999,2019-09-03 13:57:03,5.0
976.0,-0.034973145,-0.095214844,0.08862305,-141.77100000000002,-94.94655999999999,74.33588,2019-09-03 13:57:03,5.0
977.0,-0.015563965,-0.10607910000000002,0.06683349599999999,-104.66412,-116.51908,73.381676,2019-09-03 13:57:03,5.0
978.0,0.0045166016,-0.08862305,0.062438965,-84.84733,-115.26717,73.73283,2019-09-03 13:57:03,5.0
979.0,0.008850098,-0.10369873,0.06005859400000001,-87.38931,-95.03817,63.71755600000001,2019-09-03 13:57:03,5.0
980.0,0.0012207030999999999,-0.13049316,0.0703125,-55.67175699999999,-85.39695,54.007633,2019-09-03 13:57:03,5.0
981.0,0.019897461,-0.11791992,0.0847168,17.175573,-78.45038000000001,53.15266999999999,2019-09-03 13:57:03,5.0
982.0,0.026062012000000002,-0.087402344,0.06958008,40.83206,-56.206109999999995,53.190838,2019-09-03 13:57:03,5.0
983.0,0.018981934,-0.08709717,0.08496094,9.603053,-54.946564,48.53435,2019-09-03 13:57:03,5.0
984.0,0.026977539,-0.10455322,0.079956055,21.076335999999998,-58.32824300000001,41.702290000000005,2019-09-03 13:57:03,5.0
985.0,0.020446777,-0.09332275400000001,0.08514404,40.374046,-48.21374,28.229008,2019-09-03 13:57:03,5.0
986.0,0.030273438,-0.0871582,0.080078125,17.38168,-47.587788,16.10687,2019-09-03 13:57:03,5.0
987.0,0.012329102,-0.09722900400000001,0.08361816400000001,31.351145000000002,-32.458015,-3.6183207000000004,2019-09-03 13:57:03,5.0
988.0,0.023071289,-0.08856201,0.080566406,55.81679499999999,-42.305344,-14.152672,2019-09-03 13:57:03,5.0
989.0,0.021362305,-0.072753906,0.08422851599999999,97.061066,-27.755726,-21.587785999999998,2019-09-03 13:57:03,5.0
990.0,0.0049438477,-0.061706542999999996,0.10803223,135.57253,-11.015267,-23.946566,2019-09-03 13:57:03,5.0
991.0,-0.018310547,-0.037231445,0.12139892599999999,144.18321,-38.244274,-7.0,2019-09-03 13:57:03,5.0
992.0,0.004333496,-0.018554688,0.10546875,116.47328,-61.633587,5.3893127,2019-09-03 13:57:03,5.0
993.0,0.036865234,-0.01739502,0.09112549,107.26717,-63.83969499999999,13.839695,2019-09-03 13:57:03,5.0
994.0,0.04437256,-0.020935059,0.078063965,95.229004,-51.450382,15.526717000000001,2019-09-03 13:57:03,5.0
995.0,0.05908203,-0.030029297000000003,0.07464599599999999,76.71755999999999,-48.549618,6.0076336999999995,2019-09-03 13:57:03,5.0
996.0,0.086120605,-0.033996582000000004,0.06689453,69.73283,-36.419846,-4.6106873,2019-09-03 13:57:03,5.0
997.0,0.09448242,-0.04663086,0.045532227,128.82443,-16.38168,-13.473282999999999,2019-09-03 13:57:03,5.0
998.0,0.09838867,-0.030761719,0.07879639,142.60306,3.6641220000000003,-20.732824,2019-09-03 13:57:03,5.0
999.0,0.11297607400000001,-0.029663086,0.08355713,93.39695,6.519083999999999,-25.282442,2019-09-03 13:57:03,5.0
1000.0,0.09454346,-0.051757812,0.09240723,85.45038000000001,21.320610000000002,-37.160305,2019-09-03 13:57:03,5.0
1001.0,0.09906006,-0.039245605,0.09417724599999999,111.900764,37.778625,-38.114502,2019-09-03 13:57:04,5.0
1002.0,0.09613037,-0.021362305,0.120910645,85.57252,56.458015,-29.87023,2019-09-03 13:57:04,5.0
1003.0,0.07122803,-0.029785156,0.1484375,16.213741,48.809162,-30.23664,2019-09-03 13:57:04,5.0
1004.0,0.06707764,-0.041503906,0.15344238,18.404581,42.099236,-25.824427,2019-09-03 13:57:04,5.0
1005.0,0.07336426,-0.02331543,0.15252686,21.977098,39.351147,-6.015267400000001,2019-09-03 13:57:04,5.0
1006.0,0.059936523,-0.009216309,0.16339111,-28.160304999999997,50.755726,-0.73282444,2019-09-03 13:57:04,5.0
1007.0,0.030212402000000003,-0.017333984,0.15270996,-56.007633,37.251907,8.564885,2019-09-03 13:57:04,5.0
1008.0,0.036987305,-0.020751953,0.14398193,-41.221375,27.954199,30.091602,2019-09-03 13:57:04,5.0
1009.0,0.03967285,-0.021118164,0.14001465,-36.900764,26.152672,30.816793,2019-09-03 13:57:04,5.0
1010.0,0.027404785,-0.01977539,0.13568115,-14.206107000000001,26.099237,21.671754999999997,2019-09-03 13:57:04,5.0
1011.0,0.036743164,-0.0075683593999999995,0.13146973,-4.2519083,20.923664000000002,9.7786255,2019-09-03 13:57:04,5.0
1012.0,0.03277588,-0.0032348633000000003,0.11730957,-11.923664,19.725191,-10.236641,2019-09-03 13:57:04,5.0
1013.0,0.037475586,-0.008361816,0.11499023400000001,-2.076336,29.854961,-29.328245000000003,2019-09-03 13:57:04,5.0
1014.0,0.027832031,0.0040893555,0.12731934,-6.89313,44.137405,-48.12214,2019-09-03 13:57:04,5.0
1015.0,0.03149414,0.023132324,0.1607666,-20.732824,18.61832,-47.343509999999995,2019-09-03 13:57:04,5.0
1016.0,0.03186035,0.007629394499999999,0.13623047,-39.435116,40.221375,-32.038166,2019-09-03 13:57:04,5.0
1017.0,0.013122558999999999,0.0073242188,0.12792969,-44.908398,37.358779999999996,-13.343511999999999,2019-09-03 13:57:04,5.0
1018.0,0.022521972999999997,-0.013366699,0.12976074,-82.68701999999999,25.687023,-11.0992365,2019-09-03 13:57:04,5.0
1019.0,0.02722168,-0.015014648,0.13342285,-70.80915999999999,29.648854999999998,-1.4427481000000002,2019-09-03 13:57:04,5.0
1020.0,0.020385742,-0.023071289,0.13256836,-60.061069999999994,26.06107,0.091603056,2019-09-03 13:57:04,5.0
1021.0,0.024353027000000003,-0.05505371,0.119018555,-76.38931,13.854961,-13.2213745,2019-09-03 13:57:04,5.0
1022.0,0.032958984,-0.040527344,0.11920166,-23.366413,10.641221,-20.847328,2019-09-03 13:57:04,5.0
1023.0,0.035583496,-0.039367676000000004,0.1295166,0.8854962,15.740458499999999,-11.229008,2019-09-03 13:57:04,5.0
1024.0,0.040161132999999995,-0.024902344,0.13549805,11.465649,28.603053999999997,-1.4580153,2019-09-03 13:57:04,5.0
1025.0,0.03338623,-0.031311035,0.12457275400000001,-5.7251905999999995,14.465648999999999,3.8854961,2019-09-03 13:57:04,5.0
1026.0,0.038024902,-0.04083252,0.13293457,-19.557251,21.12977,3.6564887,2019-09-03 13:57:04,5.0
1027.0,0.041320800000000005,-0.049438477,0.14019775,3.7328242999999994,27.0,0.5038168,2019-09-03 13:57:04,5.0
1028.0,0.024108887000000002,-0.032043457000000004,0.15948486,55.389313,6.793893300000001,-16.603054,2019-09-03 13:57:04,5.0
1029.0,0.035583496,0.012817383,0.14074707,-6.656488400000001,-51.595420000000004,19.496183,2019-09-03 13:57:04,5.0
1030.0,0.024108887000000002,-0.036071777,0.12420654,-35.633587,-19.328245000000003,7.5267177,2019-09-03 13:57:04,5.0
1031.0,0.018859863,-0.017150878999999997,0.11096191400000001,22.732824,-14.320610999999998,3.7175572,2019-09-03 13:57:04,5.0
1032.0,0.013427733999999998,-0.010375977,0.10070801,36.809162,-9.801527,1.5648855,2019-09-03 13:57:04,5.0
1033.0,0.0048217773,-0.010009766,0.08380127,29.450382,-4.366412,-4.480916000000001,2019-09-03 13:57:04,5.0
1034.0,-0.002746582,0.002746582,0.08178711,45.51145,8.236641,-6.221374,2019-09-03 13:57:04,5.0
1035.0,-0.00592041,0.010009766,0.07104492,43.312977000000004,16.435114000000002,-6.5114503,2019-09-03 13:57:04,5.0
1036.0,0.008666992,0.0056152343999999995,0.07092285,37.007633,33.206109999999995,-2.8854961,2019-09-03 13:57:04,5.0
1037.0,0.018188476999999998,0.0026855469,0.14343262,-5.931298,39.85496,-6.931298,2019-09-03 13:57:05,5.0
1038.0,0.042785645,0.0024414061999999998,0.27075195,-13.78626,21.030535,-22.847328,2019-09-03 13:57:05,5.0
1039.0,-0.0026245116999999997,0.00579834,0.14422607,25.030535,63.748093000000004,38.618320000000004,2019-09-03 13:57:05,5.0
1040.0,0.03314209,-0.01751709,0.10266113,-45.83206,9.763359,23.51145,2019-09-03 13:57:05,5.0
1041.0,0.026306152000000003,-0.028442382999999998,0.12677002,-36.85496,37.770992,10.076336,2019-09-03 13:57:05,5.0
1042.0,0.02508545,-0.0095825195,0.13891602,-58.648853,13.366412,-0.13740458,2019-09-03 13:57:05,5.0
1043.0,0.012451172,-0.03918457,0.13189697,-35.85496,25.145039,-3.8625953,2019-09-03 13:57:05,5.0
1044.0,0.011047363000000001,-0.025268555,0.1430664,-4.7022900000000005,22.335878,-8.595419999999999,2019-09-03 13:57:05,5.0
1045.0,0.005126953,-0.014404297,0.13568115,-14.396947,17.725191,-7.534351299999999,2019-09-03 13:57:05,5.0
1046.0,0.01586914,-0.012268066000000001,0.12347412,-10.893129,13.061069,-6.3587785000000006,2019-09-03 13:57:05,5.0
1047.0,0.0017089844000000001,-0.006958008000000001,0.12982178,-28.045801,11.877863,-3.59542,2019-09-03 13:57:05,5.0
1048.0,0.025878906,-0.013427733999999998,0.13446045,-23.312977,6.8778625,0.58778626,2019-09-03 13:57:05,5.0
1049.0,0.0028076171999999997,-0.024291992000000002,0.12664795,-25.786259,8.603053,-0.6793893,2019-09-03 13:57:05,5.0
1050.0,0.0034179688000000002,-0.018005371000000003,0.12670898,-12.847328,3.534351,0.60305345,2019-09-03 13:57:05,5.0
1051.0,0.009277344,-0.014953613000000001,0.12579346,-7.0076336999999995,7.068702,1.3816794,2019-09-03 13:57:05,5.0
1052.0,0.021911621000000003,-0.02368164,0.12677002,-13.022901,2.0152671000000004,-0.70229006,2019-09-03 13:57:05,5.0
1053.0,0.005859375,-0.026550293,0.12854004,-6.4274807,5.412214,-5.4961834000000005,2019-09-03 13:57:05,5.0
1054.0,0.015075683999999999,-0.016296387,0.12854004,-19.412214000000002,5.3129773,-5.4274807,2019-09-03 13:57:05,5.0
1055.0,0.014892578,-0.019165039,0.12762451,-19.351145000000002,1.1755725000000001,-4.1984735,2019-09-03 13:57:05,5.0
1056.0,0.012329102,-0.03314209,0.11791992,-12.068703,1.6335878000000001,-9.175572,2019-09-03 13:57:05,5.0
1057.0,0.015319824,-0.01373291,0.12463379,7.038167999999999,2.3511450000000003,-7.89313,2019-09-03 13:57:05,5.0
1058.0,-0.00024414062000000002,-0.014099121000000001,0.13195801,3.2748091,4.7557254,-4.8702292,2019-09-03 13:57:05,5.0
1059.0,0.011962891000000002,-0.018066406,0.12139892599999999,5.809159999999999,-1.3587786,-4.366412,2019-09-03 13:57:05,5.0
1060.0,0.014221191000000001,-0.013977051,0.12402344,-5.221374,1.5954198999999998,-6.2977099999999995,2019-09-03 13:57:05,5.0
1061.0,0.015625,-0.01159668,0.12677002,-7.0534353,-1.7709924,-5.2519083,2019-09-03 13:57:05,5.0
1062.0,0.014160156,-0.014404297,0.12451172,-17.793894,-0.71755725,-6.4351144,2019-09-03 13:57:05,5.0
1063.0,0.015563965,-0.029968262000000002,0.12536621,-1.7709924,-0.9389313,-7.59542,2019-09-03 13:57:05,5.0
1064.0,0.01727295,-0.030700684,0.12908936,13.916031,0.8396947,-8.938931,2019-09-03 13:57:05,5.0
1065.0,0.010803223,-0.022766112999999998,0.13000488,20.885496,1.8320610000000002,-11.557252,2019-09-03 13:57:05,5.0
1066.0,0.016174316,-0.0138549805,0.12988281,38.839695,-4.5496182,-14.893129,2019-09-03 13:57:05,5.0
1067.0,0.015075683999999999,-0.010192871,0.12463379,14.7786255,-5.816794,-12.938931,2019-09-03 13:57:05,5.0
1068.0,0.01977539,-0.0075683593999999995,0.121154785,12.458015,-3.648855,-7.4274807,2019-09-03 13:57:05,5.0
1069.0,0.028259277000000003,-0.014770508,0.12060547,28.305344,3.9160306000000005,-4.412214,2019-09-03 13:57:05,5.0
1070.0,0.009033203,-0.007385254,0.13360596,21.435114000000002,6.671755999999999,-6.778625999999999,2019-09-03 13:57:05,5.0
1071.0,0.026367188,0.0014038085999999999,0.13269043,8.351144999999999,-2.183206,3.0076337000000004,2019-09-03 13:57:05,5.0
1072.0,0.0138549805,0.00048828125,0.13336182,-4.9541984,-3.908397,-1.5114504,2019-09-03 13:57:05,5.0
1073.0,0.016235351999999998,-0.0014648438,0.12121582,1.1068702,-6.114504,-1.5267175,2019-09-03 13:57:06,5.0
1074.0,0.029541016,0.0036010741999999997,0.125,-4.7862597000000004,-3.0229008,0.35877863,2019-09-03 13:57:06,5.0
1075.0,0.027648926,-0.0014038085999999999,0.12835693,-23.419847,-1.5954198999999998,-0.3740458,2019-09-03 13:57:06,5.0
1076.0,0.02734375,-0.01776123,0.11669922,-19.900763,4.8015265,-0.77099234,2019-09-03 13:57:06,5.0
1077.0,0.02142334,0.00048828125,0.12945557,-2.6793892,9.7786255,-0.24427481,2019-09-03 13:57:06,5.0
1078.0,0.024536132999999998,-0.0037231445,0.12365723,-19.267176,11.572519,0.740458,2019-09-03 13:57:06,5.0
1079.0,0.020751953,-0.01776123,0.12854004,-28.442749,15.045801,-1.4580153,2019-09-03 13:57:06,5.0
1080.0,0.02947998,-0.010864258,0.13208008,-15.832060999999998,13.625955,-3.1145039,2019-09-03 13:57:06,5.0
1081.0,0.016296387,-0.0026245116999999997,0.12799072,-20.335878,11.007633,-4.2824425999999995,2019-09-03 13:57:06,5.0
1082.0,0.011474608999999998,-0.010009766,0.13171387,-27.709923,9.129771,-6.1679387000000006,2019-09-03 13:57:06,5.0
1083.0,0.010803223,-0.013549805,0.1375122,-18.015266,3.648855,-1.038168,2019-09-03 13:57:06,5.0
1084.0,0.020751953,-0.0095825195,0.12341308599999999,-14.816792999999999,-0.40458015,-5.0610685,2019-09-03 13:57:06,5.0
1085.0,0.018676758,-0.011962891000000002,0.122924805,-8.732824,-5.603053599999999,-3.1221373,2019-09-03 13:57:06,5.0
1086.0,0.022583007999999998,-0.013000488000000001,0.12011719,3.3053436,5.4351144,-4.8396945,2019-09-03 13:57:06,5.0
1087.0,0.023864746000000003,-0.015930176,0.12945557,-13.38168,9.229008,-4.2900763,2019-09-03 13:57:06,5.0
1088.0,0.018554688,-0.014526367,0.12872314,-22.389313,4.2442746,2.2442749,2019-09-03 13:57:06,5.0
1089.0,0.02178955,-0.010070800999999999,0.12438965,-12.145039,7.0534353,3.076336,2019-09-03 13:57:06,5.0
1090.0,0.021484375,-0.016479492,0.1262207,-10.633588,10.21374,4.0305343,2019-09-03 13:57:06,5.0
1091.0,0.016052246000000003,-0.006958008000000001,0.13153076,-9.045800999999999,6.396946400000001,1.4732825,2019-09-03 13:57:06,5.0
1092.0,0.016479492,-0.019592285,0.13397217,-3.3053436,4.7251905999999995,5.5419846,2019-09-03 13:57:06,5.0
1093.0,0.023498535,-0.007446289,0.11779785,-5.1603055,5.809159999999999,0.015267176,2019-09-03 13:57:06,5.0
1094.0,0.023803711,-0.016418457,0.14849854,-3.0839694,8.992367,-1.4885496,2019-09-03 13:57:06,5.0
1095.0,0.02557373,-0.020629883,0.13330078,18.312977,6.3893127,0.07633588,2019-09-03 13:57:06,5.0
1096.0,0.010864258,-0.0044555664,0.12786865,0.519084,3.5877862,-2.0,2019-09-03 13:57:06,5.0
1097.0,0.020446777,-0.020874023000000002,0.12286377,-14.816792999999999,0.48854962,-5.5343513,2019-09-03 13:57:06,5.0
1098.0,0.023986816,-0.010253906,0.13439941,24.908398000000002,0.8778626,-2.7404580000000003,2019-09-03 13:57:06,5.0
1099.0,0.031311035,-0.0053100586,0.12213135,-8.305344,1.7175573,-7.40458,2019-09-03 13:57:06,5.0
1100.0,0.024658202999999997,-0.010986328,0.11987305,-13.519084,3.0687022,-8.793892999999999,2019-09-03 13:57:06,5.0
1101.0,0.022216797000000003,-0.0071411133,0.13098145,-6.3587785000000006,5.6183205,-8.412213000000001,2019-09-03 13:57:06,5.0
1102.0,0.02355957,-0.002319336,0.12561035,-4.3129773,5.6870227,-4.5725193,2019-09-03 13:57:06,5.0
1103.0,0.019958496000000003,-0.027160645,0.13262939999999998,6.625953999999999,17.190839999999998,-10.404580000000001,2019-09-03 13:57:06,5.0
1104.0,0.023010253999999997,-0.014343261999999999,0.13018799,33.412212,6.9160304,-6.236641400000001,2019-09-03 13:57:06,5.0
1105.0,0.013305663999999998,0.02368164,0.13653564,-12.648855000000001,7.6335880000000005,-3.6335877999999995,2019-09-03 13:57:06,5.0
1106.0,0.009521484,-0.012878418,0.13079834,-46.458015,3.870229,-0.7251908,2019-09-03 13:57:06,5.0
1107.0,0.021484375,-0.028259277000000003,0.12023926,-7.4503818,2.076336,-1.7862595000000001,2019-09-03 13:57:06,5.0
1108.0,0.0138549805,-0.0020141601999999997,0.13000488,7.068702,7.137404400000001,-3.1068702,2019-09-03 13:57:07,5.0
1109.0,0.028869628999999997,-0.017150878999999997,0.11090088,1.091603,6.9160304,-3.1908397999999996,2019-09-03 13:57:07,5.0
1110.0,0.023132324,-0.010681152,0.12188721,4.10687,15.358779,-3.2595419999999997,2019-09-03 13:57:07,5.0
1111.0,0.019836426,0.0007934570299999999,0.13238525,0.06870229,11.80916,0.18320611,2019-09-03 13:57:07,5.0
1112.0,0.015930176,-0.010559082,0.13415527,-6.4656487,11.664123,0.8854962,2019-09-03 13:57:07,5.0
1113.0,0.016052246000000003,-0.005737304699999999,0.12805176,-4.0992365,5.847328,0.19083970000000003,2019-09-03 13:57:07,5.0
1114.0,0.014282227,-0.0052490233999999995,0.12963867,-2.5801528,3.534351,-0.5114504,2019-09-03 13:57:07,5.0
1115.0,0.016601562,-0.022033691,0.12731934,-4.6946564,3.6641220000000003,-2.4198472,2019-09-03 13:57:07,5.0
1116.0,0.021972656,-0.0043945312,0.13201904,0.57251906,3.7633588,-2.8625952999999997,2019-09-03 13:57:07,5.0
1117.0,0.022949219,-0.01550293,0.12890625,-7.3053436000000005,3.648855,-2.7404580000000003,2019-09-03 13:57:07,5.0
1118.0,0.017822266,-0.008361816,0.12615967,-7.557252,4.3053436,-3.1984732000000005,2019-09-03 13:57:07,5.0
1119.0,0.023132324,-0.007751465,0.12896729,-7.1755724,3.9389312000000007,-4.3587785000000006,2019-09-03 13:57:07,5.0
1120.0,0.018371582,-0.010986328,0.12561035,-2.9847328999999996,5.3893127,-4.885496,2019-09-03 13:57:07,5.0
1121.0,0.017211914,-0.012451172,0.12982178,-7.8549619999999996,8.320611,-5.396946400000001,2019-09-03 13:57:07,5.0
1122.0,0.014099121000000001,-0.004699707,0.14361572,0.34351146,3.2671757,-0.45801526,2019-09-03 13:57:07,5.0
1123.0,0.016601562,-0.008117675999999999,0.115112305,8.961832000000001,-3.7862597,-3.4580152,2019-09-03 13:57:07,5.0
1124.0,0.029724121000000003,-0.005737304699999999,0.11480713,-20.389313,4.5801525000000005,-0.89312977,2019-09-03 13:57:07,5.0
1125.0,0.018981934,-0.004699707,0.109313965,-4.5801525000000005,7.671755999999999,-4.2748094000000005,2019-09-03 13:57:07,5.0
1126.0,0.023010253999999997,0.008728027,0.1362915,-11.625955000000001,10.610686999999999,-3.1374047000000003,2019-09-03 13:57:07,5.0
1127.0,0.01965332,-0.01776123,0.1293335,-17.076335999999998,6.183206,-1.1755725000000001,2019-09-03 13:57:07,5.0
1128.0,0.02545166,-0.006652831999999999,0.12414551,-13.946565,1.9312977,-1.6335878000000001,2019-09-03 13:57:07,5.0
1129.0,0.021118164,0.002746582,0.13067627,-13.236641,1.5877863,-1.9236640999999999,2019-09-03 13:57:07,5.0
1130.0,0.032958984,-0.016235351999999998,0.13012695,-12.847328,1.8549619,-1.5038168,2019-09-03 13:57:07,5.0
1131.0,0.033508300000000005,-0.012084961000000002,0.1260376,-5.015267400000001,8.961832000000001,-1.8320610000000002,2019-09-03 13:57:07,5.0
1132.0,0.030151367000000002,-0.022277832,0.14385986,2.4732822999999997,17.908398000000002,-3.9160306000000005,2019-09-03 13:57:07,5.0
1133.0,0.012145996000000001,-0.0012207030999999999,0.13604736,-2.8625952999999997,12.748092,-0.77862597,2019-09-03 13:57:07,5.0
1134.0,0.022766112999999998,-0.009155273,0.12841797,-12.396947,8.053435,-2.4503817999999997,2019-09-03 13:57:07,5.0
1135.0,0.017089844,-0.0154418945,0.12567139,4.5038165999999995,6.6793895,-3.465649,2019-09-03 13:57:07,5.0
1136.0,0.034240723,-0.0053100586,0.12731934,0.122137405,9.335877,-2.9847328999999996,2019-09-03 13:57:07,5.0
1137.0,0.020141601999999998,-0.0021362305,0.12677002,-11.458015,7.412214,-2.572519,2019-09-03 13:57:07,5.0
1138.0,0.018188476999999998,-0.007019043000000001,0.12554932,-10.595419999999999,10.541985,-3.832061,2019-09-03 13:57:07,5.0
1139.0,0.024414062,-0.011169433999999999,0.12786865,-8.946565,9.732824,-6.0229006,2019-09-03 13:57:07,5.0
1140.0,0.018554688,-0.01171875,0.12823486,-3.7557251000000003,6.412214,-5.7328243,2019-09-03 13:57:07,5.0
1141.0,0.02130127,-0.0015869141,0.13098145,2.9694657,2.4732822999999997,-4.854962,2019-09-03 13:57:07,5.0
1142.0,0.025146484,-0.0087890625,0.12860107,-5.4503818,2.2671757,-5.0610685,2019-09-03 13:57:07,5.0
1143.0,0.020446777,-0.009155273,0.1270752,-3.6183207000000004,2.5877862,-5.3587785000000006,2019-09-03 13:57:07,5.0
1144.0,0.019958496000000003,-0.0014038085999999999,0.12152099599999999,-2.465649,3.70229,-5.7099237,2019-09-03 13:57:08,5.0
1145.0,0.020141601999999998,-0.0043945312,0.12261963,-1.9083970000000001,6.8244276,-4.0229006,2019-09-03 13:57:08,5.0
1146.0,0.017211914,-0.004760742,0.1260376,-8.137404,6.969465700000001,-4.374046,2019-09-03 13:57:08,5.0
1147.0,0.022338867000000002,-0.006652831999999999,0.11621094,-8.282442999999999,8.358779,-4.1221375,2019-09-03 13:57:08,5.0
1148.0,0.020874023000000002,-0.0095825195,0.12982178,-3.8854961,10.320611,-4.6183205,2019-09-03 13:57:08,5.0
1149.0,0.029907227,-0.0045166016,0.1260376,-7.236641400000001,10.038167999999999,-3.3816792999999996,2019-09-03 13:57:08,5.0
1150.0,0.030151367000000002,-0.005065918,0.12609863,-4.9770994,10.671756,-2.2595419999999997,2019-09-03 13:57:08,5.0
1151.0,0.026000977,-0.0030517578000000003,0.12994385,2.442748,8.725191,-2.3206108,2019-09-03 13:57:08,5.0
1152.0,0.014953613000000001,-0.009277344,0.12799072,-6.9465647,6.1221375,-0.32824427,2019-09-03 13:57:08,5.0
1153.0,0.018676758,0.00390625,0.12908936,-9.580152499999999,9.992367,-0.091603056,2019-09-03 13:57:08,5.0
1154.0,0.013671875,-0.010498047,0.13665771,7.885496000000001,7.076336,4.145038,2019-09-03 13:57:08,5.0
1155.0,0.01776123,-0.0053710938,0.12023926,7.900763499999999,2.8015267999999995,3.3435113,2019-09-03 13:57:08,5.0
1156.0,0.025268555,0.0026855469,0.1149292,-10.137404,7.671755999999999,-2.2900763,2019-09-03 13:57:08,5.0
1157.0,0.013427733999999998,-0.0018310547,0.10272217,-24.900763,-4.0458016,3.7175572,2019-09-03 13:57:08,5.0
1158.0,0.019470215,-0.014709473,0.11218262,-20.740458,10.770992,1.8625953999999998,2019-09-03 13:57:08,5.0
1159.0,0.012207031,-0.016296387,0.13763428,-13.40458,8.694656,4.2671757,2019-09-03 13:57:08,5.0
1160.0,0.01727295,-0.008911133,0.12475586,-1.351145,5.1984735,1.6870228999999999,2019-09-03 13:57:08,5.0
1161.0,0.019714355,-0.006225586,0.13122559,-17.442749,2.8396947,-3.6717557999999997,2019-09-03 13:57:08,5.0
1162.0,0.026000977,-0.015197753999999999,0.12609863,-17.396946,0.9847328000000002,-5.343511599999999,2019-09-03 13:57:08,5.0
1163.0,0.028442382999999998,-0.013244628999999999,0.12725830000000002,2.2671757,9.320611,-6.7480917,2019-09-03 13:57:08,5.0
1164.0,0.023071289,-0.008178711,0.13134766,4.671755999999999,11.557252,-8.893129,2019-09-03 13:57:08,5.0
1165.0,0.027404785,-0.018371582,0.13067627,0.48854962,8.229008,-10.885496,2019-09-03 13:57:08,5.0
1166.0,0.02178955,-0.007019043000000001,0.1338501,3.3740457999999998,6.839694500000001,-14.61832,2019-09-03 13:57:08,5.0
1167.0,0.015563965,-0.016906738,0.1317749,2.29771,2.8778627,-16.923664000000002,2019-09-03 13:57:08,5.0
1168.0,0.017944336,-0.018615723,0.12548828,16.641222,-0.6793893,-21.57252,2019-09-03 13:57:08,5.0
1169.0,0.02520752,-0.015319824,0.13299560000000002,23.496183,-2.053435,-25.908398000000002,2019-09-03 13:57:08,5.0
1170.0,0.026184082,-0.008056641,0.13586426,22.557251,-7.0,-30.358778000000004,2019-09-03 13:57:08,5.0
1171.0,0.03375244,-0.009155273,0.13708496,27.70229,-12.816792999999999,-38.618320000000004,2019-09-03 13:57:08,5.0
1172.0,0.036376953,-0.013305663999999998,0.137146,17.42748,-15.374045,-47.83206,2019-09-03 13:57:08,5.0
1173.0,0.04168701,-0.017822266,0.14050293,9.030535,-20.51145,-58.16794,2019-09-03 13:57:08,5.0
1174.0,0.03375244,-0.008422852,0.13452148,10.473283,-12.251908,-78.32825,2019-09-03 13:57:08,5.0
1175.0,0.018676758,0.00970459,0.13305664,11.305344,-20.244274,-97.96947,2019-09-03 13:57:08,5.0
1176.0,0.015014648,-0.014770508,0.115112305,73.061066,-17.312977,-121.32061000000002,2019-09-03 13:57:08,5.0
1177.0,0.030883789,0.036499023,0.10760498,39.404579999999996,-46.15267,-94.0,2019-09-03 13:57:08,5.0
1178.0,-0.002319336,0.030395507999999998,0.10070801,13.083969,-21.984734,-85.229004,2019-09-03 13:57:08,5.0
1179.0,0.012634277,0.007873535,0.09417724599999999,40.870228000000004,-2.5114503,-88.58778000000001,2019-09-03 13:57:08,5.0
1180.0,-0.013427733999999998,0.048095703,0.07843017599999999,71.98473,9.19084,-60.549618,2019-09-03 13:57:09,5.0
1181.0,0.007019043000000001,0.07116699,0.10296631,94.07633,-3.70229,-47.809162,2019-09-03 13:57:09,5.0
1182.0,0.011474608999999998,0.09118652,0.12573242,56.59542,-4.6870227,-27.419846999999997,2019-09-03 13:57:09,5.0
1183.0,0.02722168,0.08166504,0.11108398400000001,13.854961,-5.2061067,-10.587786999999999,2019-09-03 13:57:09,5.0
1184.0,0.018371582,0.06573486,0.10418701,-0.28244275,-3.0458016,-5.236641400000001,2019-09-03 13:57:09,5.0
1185.0,0.029785156,0.058410645,0.103515625,-15.145039,0.67175573,-3.6412212999999998,2019-09-03 13:57:09,5.0
1186.0,0.028259277000000003,0.06323242,0.10443115,-44.251907,8.9007635,-9.137404,2019-09-03 13:57:09,5.0
1187.0,0.03527832,0.05224609400000001,0.10644531,-58.67175699999999,17.167938,-12.793892999999999,2019-09-03 13:57:09,5.0
1188.0,0.03704834,0.033325195,0.12060547,-39.0,26.0,-16.946566,2019-09-03 13:57:09,5.0
1189.0,0.026550293,0.046813965,0.11895752,-6.328244000000001,25.08397,-14.21374,2019-09-03 13:57:09,5.0
1190.0,0.025390625,0.047180176,0.12048339999999998,17.809160000000002,23.145039,-10.21374,2019-09-03 13:57:09,5.0
1191.0,0.012573242,0.07159424,0.13531494,-11.847328,14.419847500000001,-12.297709,2019-09-03 13:57:09,5.0
1192.0,0.021972656,0.047546387,0.13372803,-54.931297,9.580152499999999,-15.450381,2019-09-03 13:57:09,5.0
1193.0,0.025756836,0.027526855,0.117126465,8.167939,-2.1603053,-4.9923663000000005,2019-09-03 13:57:09,5.0
1194.0,0.016601562,0.05670166,0.13232422,31.80916,-2.5954200000000003,-5.7251905999999995,2019-09-03 13:57:09,5.0
1195.0,0.025817871000000003,0.049438477,0.11730957,-1.1526718,-6.396946400000001,-0.4274809,2019-09-03 13:57:09,5.0
1196.0,0.021728516,0.05432129,0.1071167,-17.57252,4.4274807,7.3053436000000005,2019-09-03 13:57:09,5.0
1197.0,0.025268555,0.038391113,0.10705566400000001,8.694656,11.458015,14.21374,2019-09-03 13:57:09,5.0
1198.0,0.023498535,0.039611816,0.10473633,17.923664000000002,16.809160000000002,14.641221,2019-09-03 13:57:09,5.0
1199.0,0.028564452999999997,0.035461426000000004,0.11633301,34.358779999999996,12.519084,12.129771,2019-09-03 13:57:09,5.0
1200.0,0.029418945,0.054382324,0.11358642599999999,40.244274,5.183206,8.267176,2019-09-03 13:57:09,5.0
1201.0,0.02508545,0.06341553,0.10992432,16.809160000000002,-0.78625953,3.5114503,2019-09-03 13:57:09,5.0
1202.0,0.041259766,0.07470703,0.11804199,-16.984734,12.083969,6.709923700000001,2019-09-03 13:57:09,5.0
1203.0,0.031188965,0.052612305,0.11767578,-28.641221999999996,20.244274,4.2900763,2019-09-03 13:57:09,5.0
1204.0,0.03375244,0.04248047,0.10510254,-12.610686999999999,18.793894,1.6030535,2019-09-03 13:57:09,5.0
1205.0,0.028259277000000003,0.05908203,0.10375976599999999,-42.931297,23.816793,-2.6717557999999997,2019-09-03 13:57:09,5.0
1206.0,0.0234375,0.064453125,0.1262207,-77.03053,16.717558,-6.0,2019-09-03 13:57:09,5.0
1207.0,0.010620117,0.026428222999999997,0.12231445,-89.091606,33.816795,-13.358779,2019-09-03 13:57:09,5.0
1208.0,0.0073242188,0.014038086000000002,0.12536621,-64.061066,27.267176,-16.022902,2019-09-03 13:57:09,5.0
1209.0,0.0178833,0.021850586,0.12677002,-34.08397,18.38168,-9.80916,2019-09-03 13:57:09,5.0
1210.0,0.006591797,0.017211914,0.12780762,-7.6412214999999994,12.015267,-4.068702,2019-09-03 13:57:09,5.0
1211.0,0.016479492,0.033813477,0.12249756,-0.39694658,3.9847328999999996,1.6030535,2019-09-03 13:57:09,5.0
1212.0,0.020812988,0.028991700000000002,0.11560058599999999,3.5725190000000002,1.3358778999999998,4.4885497,2019-09-03 13:57:09,5.0
1213.0,0.022460938,0.034423828,0.12438965,6.0229006,-0.259542,6.0992365,2019-09-03 13:57:09,5.0
1214.0,0.021850586,0.03717041,0.115722656,17.137404999999998,5.0992365,0.41221374,2019-09-03 13:57:09,5.0
1215.0,0.03479004,0.05621338,0.11981201,12.458015,-10.053435,8.091603,2019-09-03 13:57:09,5.0
1216.0,0.017089844,0.044677734000000004,0.12298584,-10.335877,3.5267177000000003,1.610687,2019-09-03 13:57:10,5.0
1217.0,0.020568848,0.033203125,0.11688232400000001,-21.419847,7.2290077,-1.6335878000000001,2019-09-03 13:57:10,5.0
1218.0,0.023071289,0.03277588,0.12268066400000001,-14.969465,10.015267,-1.0305344,2019-09-03 13:57:10,5.0
1219.0,0.022705077999999997,0.023071289,0.11303711,-0.48854962,2.5114503,-0.67175573,2019-09-03 13:57:10,5.0
1220.0,0.019836426,0.029174805,0.11907959,-3.6564887,-1.7404580000000003,1.2137405,2019-09-03 13:57:10,5.0
1221.0,0.026672362999999998,0.037597656,0.12390137,4.2671757,1.9389313000000001,1.5038168,2019-09-03 13:57:10,5.0
1222.0,0.022827148,0.036193848,0.10601807,6.412214,15.603053,4.7480917,2019-09-03 13:57:10,5.0
1223.0,0.03161621,0.045166015999999996,0.10858154,4.8778625,7.458015400000001,3.0992367,2019-09-03 13:57:10,5.0
1224.0,0.029052734,0.04736328,0.12506104,-16.57252,-7.778625999999999,3.5801528,2019-09-03 13:57:10,5.0
1225.0,0.027893066,0.036743164,0.12341308599999999,-6.343511599999999,8.450381,-4.190840000000001,2019-09-03 13:57:10,5.0
1226.0,0.023132324,0.036499023,0.11596680000000001,-10.679389,7.1297708,-7.5496182,2019-09-03 13:57:10,5.0
1227.0,0.023620605,0.034851073999999996,0.120910645,-11.595419999999999,8.7786255,-12.801527,2019-09-03 13:57:10,5.0
1228.0,0.028198242000000002,0.03955078,0.12036133,2.9389312000000003,7.4885497,-7.5114503,2019-09-03 13:57:10,5.0
1229.0,0.016418457,0.036743164,0.12432861,0.7557252,9.290076,-7.1221375,2019-09-03 13:57:10,5.0
1230.0,0.008056641,0.03930664,0.11499023400000001,-3.3129769999999996,4.625954,-4.8625956,2019-09-03 13:57:10,5.0
1231.0,0.014038086000000002,0.042907715,0.121032715,-5.931298,-0.36641222,-1.389313,2019-09-03 13:57:10,5.0
1232.0,0.025146484,0.039245605,0.12365723,-8.496183,4.3893127,-8.244275,2019-09-03 13:57:10,5.0
1233.0,0.022949219,0.036376953,0.11560058599999999,-5.7175574000000005,1.3206106000000002,-5.4580154,2019-09-03 13:57:10,5.0
1234.0,0.026428222999999997,0.046936035,0.117126465,-1.9389313000000001,3.1068702,-4.7328243,2019-09-03 13:57:10,5.0
1235.0,0.021606445,0.03692627,0.12475586,-9.916031,3.9389312000000007,-2.076336,2019-09-03 13:57:10,5.0
1236.0,0.026367188,0.043518065999999994,0.12426758,-13.068703,14.641221,-4.931298,2019-09-03 13:57:10,5.0
1237.0,0.023010253999999997,0.043884277,0.12298584,-4.1221375,9.068703,-3.5648854,2019-09-03 13:57:10,5.0
1238.0,0.018493652,0.043273926,0.11767578,-1.0763359,6.900763499999999,1.6946564999999998,2019-09-03 13:57:10,5.0
1239.0,0.016967773000000002,0.040039062,0.123168945,-6.2137402999999996,1.6793894,-2.1603053,2019-09-03 13:57:10,5.0
1240.0,0.025878906,0.03302002,0.11999512,-7.70229,7.5038165999999995,-6.931298,2019-09-03 13:57:10,5.0
1241.0,0.027954102,0.047851562,0.12463379,2.534351,1.8778626,-2.4503817999999997,2019-09-03 13:57:10,5.0
1242.0,0.019348145,0.04046631,0.121032715,-1.3969465,4.2671757,0.66412216,2019-09-03 13:57:10,5.0
1243.0,0.026306152000000003,0.03491211,0.11407471,7.1679387000000006,0.9465648999999999,-0.10687023,2019-09-03 13:57:10,5.0
1244.0,0.016052246000000003,0.043884277,0.1194458,-5.3053436,0.21374045,1.9847328999999998,2019-09-03 13:57:10,5.0
