measurement,Acc_X,Acc_Y,Acc_Z,Gyr_X,Gyr_Y,Gyr_Z,Time(hh:mm:ss),Label
0.0,0.013305663999999998,-0.13092041,0.016296387,11.412213000000001,10.145039,8.396947,2019-08-05 14:01:53,
1.0,0.0051879883,-0.13909912,0.004638672,-24.221375,7.40458,10.648855000000001,2019-08-05 14:01:54,
2.0,0.0087890625,-0.1161499,-0.006652831999999999,-29.541984999999997,5.8396945,5.3893127,2019-08-05 14:01:54,
3.0,0.0014038085999999999,-0.11639404,-0.0045166016,-27.290077,-0.6793893,6.8778625,2019-08-05 14:01:54,
4.0,0.0068969727,-0.12322998,-0.008666992,-16.282442,5.625954,2.7633588,2019-08-05 14:01:54,
5.0,0.007019043000000001,-0.11621094,-0.009460449000000001,-30.32061,5.3893127,3.3740457999999998,2019-08-05 14:01:54,
6.0,0.012390136999999999,-0.12689209,0.0022583008,-24.824427,0.52671754,7.3129773,2019-08-05 14:01:54,
7.0,0.015014648,-0.12750244,-0.0009765625,-45.679390000000005,3.0458016,0.38931298,2019-08-05 14:01:54,
8.0,0.007690429699999999,-0.11126709,-0.008544922,-44.85496,2.1603053,6.2748094000000005,2019-08-05 14:01:54,
9.0,0.00970459,-0.11871338,-0.010009766,-37.603054,1.1450381,8.503817,2019-08-05 14:01:54,
10.0,0.002746582,-0.11315918,-0.015075683999999999,-43.44275,2.9389312000000003,7.8778625,2019-08-05 14:01:54,
11.0,0.005859375,-0.12133789,-0.014953613000000001,-67.54961999999999,0.8778626,6.778625999999999,2019-08-05 14:01:54,
12.0,0.0045166016,-0.11383057,-0.030212402000000003,-36.954197,1.1450381,4.946564700000001,2019-08-05 14:01:54,
13.0,-0.0034790040000000004,-0.1171875,-0.037475586,-39.030533,2.8015267999999995,7.0839696,2019-08-05 14:01:54,
14.0,-0.0107421875,-0.10662842,-0.043029785,-42.694656,7.7557254,8.129771,2019-08-05 14:01:54,
15.0,-0.007873535,-0.11022949,-0.05242919999999999,-45.755726,8.21374,7.1221375,2019-08-05 14:01:54,
16.0,-0.0061035156000000005,-0.10894775400000001,-0.051513672,-51.114502,7.2824425999999995,8.7786255,2019-08-05 14:01:54,
17.0,-0.0053100586,-0.10949707,-0.05291748,-33.992367,8.236641,12.854961,2019-08-05 14:01:54,
18.0,-0.0034179688000000002,-0.10687256,-0.053894042999999996,-32.687022999999996,4.5419846,11.297709,2019-08-05 14:01:54,
19.0,-0.00793457,-0.10797119,-0.059020996,-24.175573,-0.45038167,2.7862597,2019-08-05 14:01:54,
20.0,0.002319336,-0.110839844,-0.039916992000000005,2.816794,-0.519084,-0.7633588000000001,2019-08-05 14:01:54,
21.0,0.0007934570299999999,-0.10675049,-0.039245605,-4.923664,0.015267176,1.1603054,2019-08-05 14:01:54,
22.0,0.00024414062000000002,-0.11187744,-0.02331543,-0.6259541999999999,3.70229,-4.587786,2019-08-05 14:01:54,
23.0,0.0015869141,-0.1171875,-0.044616699999999995,4.5648856,4.4351144,-3.2671757,2019-08-05 14:01:54,
24.0,-0.0006713867,-0.121154785,-0.035827637,4.4274807,12.21374,-7.183206,2019-08-05 14:01:54,
25.0,0.012512207,-0.12432861,-0.036315917999999996,5.809159999999999,15.152672,-4.1297708,2019-08-05 14:01:54,
26.0,0.0017700195,-0.12567139,-0.04425049,-9.076336,10.229008,3.0458016,2019-08-05 14:01:54,
27.0,0.0032958984000000004,-0.12420654,-0.047546387,-22.992367,10.167939,9.2213745,2019-08-05 14:01:54,
28.0,-0.007446289,-0.12341308599999999,-0.04888916,-42.21374,5.778626,13.610686999999999,2019-08-05 14:01:54,
29.0,-0.011413574,-0.11883545,-0.05340576,-15.0,3.167939,19.748089999999998,2019-08-05 14:01:54,
30.0,-0.017456055,-0.11022949,-0.06311035,-23.702289999999998,-0.3740458,15.854961,2019-08-05 14:01:54,
31.0,-0.01751709,-0.11920166,-0.07562256,-12.343511999999999,0.89312977,10.251908,2019-08-05 14:01:54,
32.0,-0.016601562,-0.12011719,-0.05480957,-18.343512,1.4885496,8.236641,2019-08-05 14:01:54,
33.0,-0.018127441,-0.117004395,-0.07006836,-10.511451,3.6335877999999995,2.961832,2019-08-05 14:01:54,
34.0,-0.010864258,-0.11816406,-0.06060791,3.0,1.5114504,-3.6335877999999995,2019-08-05 14:01:54,
35.0,-0.00579834,-0.12225342,-0.043151855,7.534351299999999,-0.015267176,-3.0,2019-08-05 14:01:54,
36.0,-0.0052490233999999995,-0.121032715,-0.054504395,-13.374045,5.343511599999999,-7.396946400000001,2019-08-05 14:01:54,
37.0,0.004028320300000001,-0.11608887,-0.05090332,-16.992367,4.557252,-6.6335880000000005,2019-08-05 14:01:54,
38.0,0.004272461,-0.11389160000000002,-0.035339355,-12.770992,8.335877,-6.3129773,2019-08-05 14:01:55,
39.0,-0.0022583008,-0.11505127,-0.05529785,-16.022902,7.8778625,-2.1755726,2019-08-05 14:01:55,
40.0,-0.008117675999999999,-0.10980224599999999,-0.06414795,-25.648854999999998,4.3129773,4.6183205,2019-08-05 14:01:55,
41.0,-0.010253906,-0.107299805,-0.05090332,-32.427483,-0.70229006,4.5801525000000005,2019-08-05 14:01:55,
42.0,-0.006042480500000001,-0.11022949,-0.058166504,-26.885496000000003,1.1755725000000001,2.7328243,2019-08-05 14:01:55,
43.0,-0.010314941,-0.10888672,-0.053466797,-34.229008,-2.908397,8.877863,2019-08-05 14:01:55,
44.0,-0.0146484375,-0.10888672,-0.06695557,-28.786259,-0.740458,6.0305343,2019-08-05 14:01:55,
45.0,-0.009338379,-0.11077881,-0.076049805,-8.526717,5.6488547,0.091603056,2019-08-05 14:01:55,
46.0,-0.013122558999999999,-0.10614014,-0.070129395,-10.206107000000001,5.526717700000001,0.5648854999999999,2019-08-05 14:01:55,
47.0,-0.012878418,-0.10076904,-0.05712890599999999,7.259542,4.885496,0.57251906,2019-08-05 14:01:55,
48.0,-0.005432129,-0.10485839999999998,-0.05224609400000001,13.374045,7.6183205,-6.9160304,2019-08-05 14:01:55,
49.0,-0.005493164,-0.10906982400000001,-0.050842285,-10.610686999999999,3.3358779999999997,-4.3816795,2019-08-05 14:01:55,
50.0,-0.002319336,-0.10229492,-0.05505371,-8.076336,5.0076336999999995,-2.9160306,2019-08-05 14:01:55,
51.0,-0.004211426,-0.10949707,-0.05999756,-3.8778627,3.0687022,-2.0305343000000002,2019-08-05 14:01:55,
52.0,-0.0036621094,-0.09417724599999999,-0.07019043,-4.9694657,14.473282999999999,-3.6641220000000003,2019-08-05 14:01:55,
53.0,-0.0075683593999999995,-0.09588623,-0.07019043,15.21374,16.007633,-4.5114503,2019-08-05 14:01:55,
54.0,-0.007019043000000001,-0.10913086,-0.06420898400000001,35.450382,17.450382,-5.7022900000000005,2019-08-05 14:01:55,
55.0,0.0020751953,-0.110839844,-0.057800292999999996,38.458015,18.198473,-2.1145039,2019-08-05 14:01:55,
56.0,0.002319336,-0.10632324,-0.064453125,33.51145,17.335878,-6.8778625,2019-08-05 14:01:55,
57.0,-0.005004883,-0.11889648400000001,-0.061584473,34.496179999999995,15.946565,-5.6412214999999994,2019-08-05 14:01:55,
58.0,-0.00091552734,-0.11224365,-0.05316162,29.10687,15.908397,-3.3969467000000004,2019-08-05 14:01:55,
59.0,-0.004699707,-0.11352539,-0.052612305,23.320610000000002,14.145039,-2.8778627,2019-08-05 14:01:55,
60.0,0.00024414062000000002,-0.13006592,-0.045715332000000004,8.206107000000001,10.496183,1.4656489,2019-08-05 14:01:55,
61.0,-0.01159668,-0.115112305,-0.05645752,-4.7328243,4.2671757,5.335878,2019-08-05 14:01:55,
62.0,0.0,-0.11212158,-0.06640625,8.610686999999999,7.1297708,0.8396947,2019-08-05 14:01:55,
63.0,-0.0010986328,-0.11950683599999999,-0.05291748,22.839695000000003,10.748092,-0.90076333,2019-08-05 14:01:55,
64.0,0.0017089844000000001,-0.12335205,-0.0435791,30.687022999999996,11.129771,-2.5038167999999996,2019-08-05 14:01:55,
65.0,0.0005493164,-0.11968994,-0.039367676000000004,17.389313,6.59542,3.9923663,2019-08-05 14:01:55,
66.0,0.0009765625,-0.13195801,-0.044555664,4.3511453,6.969465700000001,2.6717557999999997,2019-08-05 14:01:55,
67.0,0.009094238000000001,-0.12689209,-0.04815674,-7.7251906,11.664123,-1.6564884999999998,2019-08-05 14:01:55,
68.0,-0.0020141601999999997,-0.13049316,-0.05078125,-11.832061,10.007633,3.0152671000000004,2019-08-05 14:01:55,
69.0,-0.0028076171999999997,-0.12207031,-0.060180664,-15.938931,11.068703,7.5648856,2019-08-05 14:01:55,
70.0,-0.001159668,-0.11560058599999999,-0.058532715,-11.251908,10.122137,1.9160305,2019-08-05 14:01:55,
71.0,-0.006958008000000001,-0.10778808599999999,-0.053955078,10.770992,9.557252,2.2748091,2019-08-05 14:01:55,
72.0,-0.006713866999999999,-0.11755371,-0.046142578,0.64122134,2.3053436,10.977099,2019-08-05 14:01:56,
73.0,-0.0043945312,-0.11682129,-0.046569824,6.0229006,4.9007635,5.114504,2019-08-05 14:01:56,
74.0,-0.0061035156000000005,-0.12109375,-0.0423584,10.954199000000001,5.2900763,5.9770994,2019-08-05 14:01:56,
75.0,-0.008056641,-0.13159179999999998,-0.046142578,4.2442746,7.343511599999999,1.3664121999999999,2019-08-05 14:01:56,
76.0,-0.0014038085999999999,-0.11657715,-0.05126953,-3.0458016,8.877863,-1.4351145,2019-08-05 14:01:56,
77.0,-0.0030517578000000003,-0.107543945,-0.039855957000000004,11.893129,6.0,2.1450381000000003,2019-08-05 14:01:56,
78.0,-0.0032958984000000004,-0.117248535,-0.024780273,10.198473,12.847328,-2.129771,2019-08-05 14:01:56,
79.0,-0.0067749023,-0.111450195,-0.03314209,5.7328243,9.496183,0.70229006,2019-08-05 14:01:56,
80.0,-0.0036010741999999997,-0.10858154,-0.031066895,-5.0305343,4.190840000000001,5.396946400000001,2019-08-05 14:01:56,
81.0,-0.0029296875,-0.11071777,-0.03729248,3.8167940000000002,4.6488547,4.526717700000001,2019-08-05 14:01:56,
82.0,-0.0040893555,-0.115356445,-0.036804199999999995,9.450381,13.557251999999998,-2.5648854,2019-08-05 14:01:56,
83.0,-0.0067749023,-0.11462402,-0.036499023,-3.221374,9.488549,-3.9160306000000005,2019-08-05 14:01:56,
84.0,-0.0005493164,-0.10980224599999999,-0.03564453,-9.519084,9.541985,-4.6488547,2019-08-05 14:01:56,
85.0,0.00970459,-0.10961914,-0.047729492000000005,-1.5267175,9.908397,-4.0152674,2019-08-05 14:01:56,
86.0,0.00036621094,-0.120910645,-0.018249512,6.4198474999999995,8.923664,-3.1603053,2019-08-05 14:01:56,
87.0,0.0048217773,-0.11279297,-0.0357666,0.49618322,10.702291,0.0,2019-08-05 14:01:56,
88.0,0.0063476562,-0.10760498,-0.028747559,3.7480917000000002,9.335877,-0.5038168,2019-08-05 14:01:56,
89.0,0.005432129,-0.11621094,-0.027832031,5.8320612999999994,9.137404,0.14503817,2019-08-05 14:01:56,
90.0,0.004699707,-0.11401367,-0.032226562,-10.877863,13.015267,0.18320611,2019-08-05 14:01:56,
91.0,-0.0016479492000000002,-0.12005615,-0.03387451,-15.770992000000001,6.923664,5.9770994,2019-08-05 14:01:56,
92.0,-0.0021362305,-0.11816406,-0.036804199999999995,0.18320611,5.8778625,3.091603,2019-08-05 14:01:56,
93.0,0.0025634766,-0.12530518,-0.043945312,-9.687023,8.7786255,-1.480916,2019-08-05 14:01:56,
94.0,-0.0020751953,-0.11584473,-0.045288086,-15.877863,10.045800999999999,0.78625953,2019-08-05 14:01:56,
95.0,0.001953125,-0.11352539,-0.03765869,-5.9694657,5.89313,3.3816792999999996,2019-08-05 14:01:56,
96.0,0.0049438477,-0.123046875,-0.038635254,3.4427480000000004,7.7862597000000004,-2.076336,2019-08-05 14:01:56,
97.0,0.007080078,-0.11694336,-0.034179688,1.7480916000000002,12.656488000000001,-2.7862597,2019-08-05 14:01:56,
98.0,0.005065918,-0.12719727,-0.03656006,-12.312977,5.633588,6.526717700000001,2019-08-05 14:01:56,
99.0,0.010009766,-0.121276855,-0.035461426000000004,-17.213741,11.244275,4.2290077,2019-08-05 14:01:56,
100.0,0.008972168,-0.12683105,-0.037902832000000004,-6.3129773,7.2519083,5.7328243,2019-08-05 14:01:56,
101.0,0.0034790040000000004,-0.12695312,-0.042053223,-21.763360000000002,13.083969,2.832061,2019-08-05 14:01:56,
102.0,0.0064086914,-0.122558594,-0.047607422,-23.213741,16.778625,8.816792999999999,2019-08-05 14:01:56,
103.0,0.00970459,-0.12524414,-0.046020507999999995,-21.259542,7.816794,11.030535,2019-08-05 14:01:56,
104.0,0.0031738281,-0.11462402,-0.04840088,1.4885496,13.854961,7.2290077,2019-08-05 14:01:56,
105.0,-0.007446289,-0.12402344,-0.050231934000000006,-4.076336,7.10687,7.8778625,2019-08-05 14:01:56,
106.0,0.0016479492000000002,-0.12243652,-0.049560547,-15.526717000000001,5.0610685,-1.9465648999999998,2019-08-05 14:01:56,
107.0,0.0010375977,-0.12762451,-0.044006348,11.045800999999999,-0.3053435,0.114503816,2019-08-05 14:01:56,
108.0,-0.0026245116999999997,-0.1171875,-0.05505371,-19.625954,6.9923663000000005,3.5419848,2019-08-05 14:01:56,
109.0,0.003540039,-0.10321045,-0.04840088,-10.931297,5.923664,-1.6259542,2019-08-05 14:01:56,
110.0,0.001159668,-0.11956787,-0.042419434000000006,18.12977,1.0,-3.0076337000000004,2019-08-05 14:01:56,
111.0,6.1035155999999994e-05,-0.11907959,-0.038879395,6.1679387000000006,4.3893127,0.52671754,2019-08-05 14:01:57,
112.0,0.012939453,-0.10992432,-0.054260254,-9.938931,10.78626,-2.961832,2019-08-05 14:01:57,
113.0,0.0061035156000000005,-0.11169433599999999,-0.036987305,3.167939,6.015267400000001,-2.1603053,2019-08-05 14:01:57,
114.0,0.0038452148,-0.12213135,-0.033447266,11.679389,1.9923664,0.061068702,2019-08-05 14:01:57,
115.0,-0.00012207031000000001,-0.11035156,-0.04168701,-13.732823999999999,9.870229,3.0076337000000004,2019-08-05 14:01:57,
116.0,0.0037231445,-0.10485839999999998,-0.04156494,-22.290077,9.862596,4.2442746,2019-08-05 14:01:57,
117.0,-0.001953125,-0.11419678,-0.04852295,-7.2824425999999995,2.480916,8.282442999999999,2019-08-05 14:01:57,
118.0,-0.007629394499999999,-0.12231445,-0.049987792999999996,-21.656488,0.0,8.816792999999999,2019-08-05 14:01:57,
119.0,-0.011779785,-0.10772705,-0.068481445,-41.793890000000005,0.70229006,9.641221,2019-08-05 14:01:57,
120.0,-0.005004883,-0.10784912,-0.062683105,-36.85496,3.6106870000000004,3.0229008,2019-08-05 14:01:57,
121.0,-0.002380371,-0.11553955,-0.06933594,-35.992367,-0.45038167,2.312977,2019-08-05 14:01:57,
122.0,-0.00970459,-0.10650635,-0.06976318,-31.74809,-2.793893,2.427481,2019-08-05 14:01:57,
123.0,0.0064697266000000005,-0.10119629,-0.07061767599999999,-11.664123,1.9389313000000001,-1.2061069,2019-08-05 14:01:57,
124.0,-0.007446289,-0.11608887,-0.057495117000000005,5.015267400000001,1.0458015,4.0076336999999995,2019-08-05 14:01:57,
125.0,-0.009643555,-0.11285400400000001,-0.0637207,-6.656488400000001,5.0076336999999995,8.19084,2019-08-05 14:01:57,
126.0,-0.005126953,-0.10864258,-0.06536865,-1.1679389999999998,4.885496,2.3587787000000002,2019-08-05 14:01:57,
127.0,-0.006652831999999999,-0.1083374,-0.061279297,-0.36641222,5.923664,-1.8931297999999999,2019-08-05 14:01:57,
128.0,-0.00024414062000000002,-0.11444092,-0.058532715,7.2290077,6.3587785000000006,-6.4656487,2019-08-05 14:01:57,
129.0,0.007507324,-0.12341308599999999,-0.05303955,18.526718,3.7633588,-7.221374000000001,2019-08-05 14:01:57,
130.0,0.0049438477,-0.12170410000000002,-0.055908203,17.595419,8.954199000000001,-4.7557254,2019-08-05 14:01:57,
131.0,0.020019531,-0.11407471,-0.043395996,16.57252,8.931297,-1.5343511,2019-08-05 14:01:57,
132.0,0.010925293,-0.13085938,-0.038757323999999996,22.763360000000002,7.80916,-2.7633588,2019-08-05 14:01:57,
133.0,0.0045166016,-0.12957764,-0.03942871,-1.7404580000000003,11.335877,-1.0763359,2019-08-05 14:01:57,
134.0,0.010925293,-0.11114502,-0.05065918,-5.374046,11.198473,-2.2824428,2019-08-05 14:01:57,
135.0,0.01184082,-0.1270752,-0.04449463,0.20610687,6.2977099999999995,-3.4809160000000006,2019-08-05 14:01:57,
136.0,0.008605957,-0.12390137,-0.049194336,-0.79389316,5.1221375,-1.7786259999999998,2019-08-05 14:01:57,
137.0,0.013244628999999999,-0.11358642599999999,-0.041320800000000005,-6.259542,6.9389315,-1.7328244,2019-08-05 14:01:57,
138.0,0.010375977,-0.113098145,-0.043273926,0.97709924,2.7328243,1.0152671,2019-08-05 14:01:57,
139.0,0.009155273,-0.11743164,-0.0435791,-3.4427480000000004,4.5801525000000005,4.2290077,2019-08-05 14:01:57,
140.0,0.002746582,-0.11248779,-0.049133300000000005,-16.480917,5.190840000000001,4.8320612999999994,2019-08-05 14:01:57,
141.0,0.0044555664,-0.111206055,-0.050354004,-21.122137,2.832061,5.0,2019-08-05 14:01:57,
142.0,0.002319336,-0.113464355,-0.057739257999999995,-17.099237,2.0229008,4.89313,2019-08-05 14:01:57,
143.0,-6.1035155999999994e-05,-0.11706543,-0.0546875,-17.366413,-0.35877863,1.648855,2019-08-05 14:01:57,
144.0,0.0012817383,-0.10467529,-0.051330565999999994,-11.503817,3.038168,0.6870229,2019-08-05 14:01:57,
145.0,0.0029296875,-0.105285645,-0.045898438,-2.8473282,-0.8244275,2.183206,2019-08-05 14:01:58,
146.0,0.0033569335999999996,-0.10589599599999999,-0.049438477,4.4274807,5.8244276,-1.2290076,2019-08-05 14:01:58,
147.0,0.006164551,-0.11767578,-0.03753662,8.748092,1.9083970000000001,-1.8702290000000001,2019-08-05 14:01:58,
148.0,0.003540039,-0.11169433599999999,-0.044616699999999995,-2.4351146,7.3664119999999995,-1.5572518999999998,2019-08-05 14:01:58,
149.0,0.012939453,-0.11425781,-0.05078125,-0.10687023,2.7862597,-1.3740458,2019-08-05 14:01:58,
150.0,0.007690429699999999,-0.113342285,-0.047973632999999995,-5.038168,8.694656,-1.6335878000000001,2019-08-05 14:01:58,
151.0,0.007019043000000001,-0.11108398400000001,-0.061462402,-0.46564886,5.4961834000000005,-1.0763359,2019-08-05 14:01:58,
152.0,0.013793945,-0.10369873,-0.04852295,7.1984735,7.8778625,-2.9847328999999996,2019-08-05 14:01:58,
153.0,0.013244628999999999,-0.11059569999999999,-0.04309082,17.099237,4.5496182,-1.6641221000000002,2019-08-05 14:01:58,
154.0,0.008300781,-0.11462402,-0.042785645,15.870229,4.763358599999999,-2.9770992,2019-08-05 14:01:58,
155.0,0.022705077999999997,-0.11651611,-0.038146973,11.480916,5.091603299999999,-2.465649,2019-08-05 14:01:58,
156.0,0.016723633,-0.117126465,-0.033508300000000005,5.6946564,3.5114503,-2.4045799999999997,2019-08-05 14:01:58,
157.0,0.019958496000000003,-0.114746094,-0.032836914,-6.6183205,5.6488547,0.7557252,2019-08-05 14:01:58,
158.0,0.021606445,-0.11755371,-0.045776367000000005,-8.870229,4.5419846,1.1908396,2019-08-05 14:01:58,
159.0,0.022216797000000003,-0.11413574,-0.04736328,-15.335876999999998,7.480916000000001,0.07633588,2019-08-05 14:01:58,
160.0,0.014465332,-0.11804199,-0.047790527,-12.755725,6.603053599999999,3.3435113,2019-08-05 14:01:58,
161.0,0.007629394499999999,-0.113464355,-0.050476074,-17.770992,5.587786,3.8625953,2019-08-05 14:01:58,
162.0,0.004028320300000001,-0.11602783,-0.06640625,-24.290077,4.152672,4.885496,2019-08-05 14:01:58,
163.0,0.0026245116999999997,-0.11529541,-0.05712890599999999,-16.793894,1.8167938999999997,2.923664,2019-08-05 14:01:58,
164.0,-0.0006713867,-0.11669922,-0.058410645,-4.7175574000000005,-2.5801528,5.259542,2019-08-05 14:01:58,
165.0,0.0012817383,-0.11004639,-0.051940917999999996,1.1068702,-2.7862597,3.3129769999999996,2019-08-05 14:01:58,
166.0,0.006652831999999999,-0.11303711,-0.051940917999999996,16.984734,-1.2977100000000001,-0.9160305000000001,2019-08-05 14:01:58,
167.0,0.014343261999999999,-0.12170410000000002,-0.044311523,7.458015400000001,1.2671756,-6.603053599999999,2019-08-05 14:01:58,
168.0,0.015991211,-0.1194458,-0.048461914,5.923664,1.5038168,-6.2061067,2019-08-05 14:01:58,
169.0,0.016845703,-0.11669922,-0.045166015999999996,12.793892999999999,4.664122,-2.3358779999999997,2019-08-05 14:01:58,
170.0,0.02142334,-0.11761474599999999,-0.043151855,10.137404,5.259542,-1.7099236,2019-08-05 14:01:58,
171.0,0.017578125,-0.11846924,-0.053649902,2.8931298,7.4885497,-3.3358779999999997,2019-08-05 14:01:58,
172.0,0.015197753999999999,-0.11938476599999999,-0.047729492000000005,0.21374045,8.564885,-1.8167938999999997,2019-08-05 14:01:58,
173.0,0.014770508,-0.12097168,-0.044006348,-5.0305343,7.29771,1.9541985,2019-08-05 14:01:58,
174.0,0.007446289,-0.11706543,-0.053833007999999995,-8.618319999999999,7.9770994,0.57251906,2019-08-05 14:01:58,
175.0,0.011352538999999998,-0.12268066400000001,-0.0647583,-6.038168,3.4198472,0.47328246,2019-08-05 14:01:58,
176.0,0.005126953,-0.11932373,-0.06542969,-12.732824,4.816794,3.1221373,2019-08-05 14:01:58,
177.0,0.008728027,-0.11212158,-0.047607422,-9.068703,4.3511453,1.5496184,2019-08-05 14:01:58,
178.0,0.0107421875,-0.11706543,-0.058166504,6.0839696,0.14503817,0.73282444,2019-08-05 14:01:58,
179.0,0.016662598,-0.12036133,-0.052368164,14.580152499999999,0.8778626,-3.8931297999999996,2019-08-05 14:01:58,
180.0,0.014343261999999999,-0.115722656,-0.05242919999999999,15.129771,1.9160305,-2.4351146,2019-08-05 14:01:58,
181.0,0.013366699,-0.11895752,-0.047973632999999995,18.89313,4.0,-4.2442746,2019-08-05 14:01:59,
182.0,0.015197753999999999,-0.11938476599999999,-0.033203125,19.480917,3.4503817999999997,-2.9541984,2019-08-05 14:01:59,
183.0,0.017822266,-0.11669922,-0.03564453,15.007632999999998,2.1221373,-1.7786259999999998,2019-08-05 14:01:59,
184.0,0.017578125,-0.12084961,-0.043518065999999994,1.1221374,4.809159999999999,0.35877863,2019-08-05 14:01:59,
185.0,0.017150878999999997,-0.11480713,-0.04107666,2.7480917000000002,4.740458,0.03816794,2019-08-05 14:01:59,
186.0,0.015075683999999999,-0.11260986,-0.041381836,-2.778626,4.526717700000001,0.73282444,2019-08-05 14:01:59,
187.0,0.010986328,-0.11035156,-0.04156494,-4.5114503,2.2748091,1.7404580000000003,2019-08-05 14:01:59,
188.0,0.0071411133,-0.11071777,-0.04437256,1.5267175,1.1908396,3.0152671000000004,2019-08-05 14:01:59,
189.0,0.014221191000000001,-0.11285400400000001,-0.03967285,4.3893127,0.33587787,-0.86259544,2019-08-05 14:01:59,
190.0,0.015258788999999998,-0.11810303,-0.03375244,-1.7328244,0.6183206,-1.0,2019-08-05 14:01:59,
191.0,0.0146484375,-0.11126709,-0.03930664,-2.427481,-0.67175573,-0.6335878,2019-08-05 14:01:59,
192.0,0.020141601999999998,-0.11956787,-0.036010742000000005,6.015267400000001,-0.3740458,-2.221374,2019-08-05 14:01:59,
193.0,0.018432617,-0.12341308599999999,-0.040649414,3.1526718,1.5267175,-0.9312976999999999,2019-08-05 14:01:59,
194.0,0.021240234,-0.11706543,-0.037231445,-2.6183207000000004,4.4274807,0.13740458,2019-08-05 14:01:59,
195.0,0.02520752,-0.11389160000000002,-0.030395507999999998,-1.1374046,1.8320610000000002,-0.23664123,2019-08-05 14:01:59,
196.0,0.018676758,-0.1262207,-0.031066895,6.5725193,0.70229006,-0.33587787,2019-08-05 14:01:59,
197.0,0.014221191000000001,-0.123168945,-0.03967285,-5.519083999999999,2.7099237,2.4885497,2019-08-05 14:01:59,
198.0,0.016113281,-0.11755371,-0.03778076,-3.4580152,2.519084,0.96183205,2019-08-05 14:01:59,
199.0,0.014282227,-0.12512207,-0.03857422,6.89313,0.610687,-1.1908396,2019-08-05 14:01:59,
200.0,0.018432617,-0.12164307,-0.043945312,-0.9236641,3.076336,0.610687,2019-08-05 14:01:59,
201.0,0.012207031,-0.11706543,-0.037109375,-8.9007635,4.0,-2.4732822999999997,2019-08-05 14:01:59,
202.0,0.01550293,-0.125,-0.038757323999999996,4.4961834000000005,1.2824427,-2.1755726,2019-08-05 14:01:59,
203.0,0.022583007999999998,-0.123535156,-0.037353516,2.091603,1.8854961,2.1068702,2019-08-05 14:01:59,
204.0,0.018005371000000003,-0.11639404,-0.033508300000000005,-4.0076336999999995,1.4198473999999999,1.6641221000000002,2019-08-05 14:01:59,
205.0,0.01727295,-0.11816406,-0.03869629,-3.0305343,2.1221373,-2.3511450000000003,2019-08-05 14:01:59,
206.0,0.023254395,-0.120910645,-0.028137207,4.3129773,0.9541985000000001,-2.0839694,2019-08-05 14:01:59,
207.0,0.020446777,-0.123046875,-0.032714844,-3.1526718,3.0992367,1.4427481000000002,2019-08-05 14:01:59,
208.0,0.013549805,-0.11895752,-0.038879395,-8.427481,4.4198474999999995,-0.7633588000000001,2019-08-05 14:01:59,
209.0,0.018798828,-0.11437988,-0.03564453,-2.5877862,2.8854961,2.389313,2019-08-05 14:01:59,
210.0,0.014038086000000002,-0.11682129,-0.040771484,-8.152672,3.7709922999999996,0.89312977,2019-08-05 14:01:59,
211.0,0.0154418945,-0.10498047,-0.044799805,-11.206107000000001,4.8396945,0.5496183000000001,2019-08-05 14:01:59,
212.0,0.016174316,-0.11242676,-0.043518065999999994,-3.3206108,3.1526718,-0.19847329,2019-08-05 14:01:59,
213.0,0.013122558999999999,-0.12377930000000001,-0.045715332000000004,1.2900764,4.3053436,-2.2748091,2019-08-05 14:01:59,
214.0,0.01171875,-0.11450195,-0.037109375,-12.122137,0.35877863,3.2137403,2019-08-05 14:01:59,
215.0,0.020385742,-0.11376953,-0.04058838,-13.473282999999999,0.053435113,-0.34351146,2019-08-05 14:01:59,
216.0,0.018066406,-0.12109375,-0.043701172,1.6793894,1.1908396,0.5496183000000001,2019-08-05 14:01:59,
217.0,0.014587402,-0.11328125,-0.044616699999999995,-1.3358778999999998,0.99236643,5.1679387000000006,2019-08-05 14:01:59,
218.0,0.00579834,-0.11505127,-0.04638672,-9.801527,2.1984732000000005,2.0610688,2019-08-05 14:02:00,
219.0,0.01550293,-0.11651611,-0.040100098,6.335878,-2.5496182000000003,-4.1603055,2019-08-05 14:02:00,
220.0,0.014038086000000002,-0.12384033,-0.036193848,-1.8167938999999997,0.77099234,2.0152671000000004,2019-08-05 14:02:00,
221.0,0.009216309,-0.11938476599999999,-0.049926757999999995,-10.458015,1.8702290000000001,2.7251909,2019-08-05 14:02:00,
222.0,0.015197753999999999,-0.11541748,-0.04321289,-6.9541984,4.2900763,-3.3740457999999998,2019-08-05 14:02:00,
223.0,0.0028686523,-0.122558594,-0.04675293,-0.5496183000000001,2.4885497,1.2671756,2019-08-05 14:02:00,
224.0,0.0061035156000000005,-0.10949707,-0.043884277,-5.5343513,2.8473282,2.7709923,2019-08-05 14:02:00,
225.0,0.015258788999999998,-0.113464355,-0.037902832000000004,1.5038168,1.3358778999999998,-0.6183206,2019-08-05 14:02:00,
226.0,0.008422852,-0.12109375,-0.047424315999999994,-0.259542,1.6259542,-1.3358778999999998,2019-08-05 14:02:00,
227.0,0.015686035,-0.11804199,-0.027404785,-7.290076299999999,1.389313,1.7633588,2019-08-05 14:02:00,
228.0,0.012878418,-0.11126709,-0.042114257999999995,-1.3129771000000001,0.90839696,-3.2519082999999998,2019-08-05 14:02:00,
229.0,0.012207031,-0.11840819999999999,-0.049865723,2.1450381000000003,1.5114504,-3.0305343,2019-08-05 14:02:00,
230.0,0.018798828,-0.10900879,-0.040283203,0.27480915,2.8015267999999995,-1.519084,2019-08-05 14:02:00,
231.0,0.015930176,-0.11578369,-0.04650879,9.297709,1.0152671,-5.3587785000000006,2019-08-05 14:02:00,
232.0,0.018737793,-0.12200928,-0.03363037,10.625955000000001,-1.8625953999999998,-2.3969467,2019-08-05 14:02:00,
233.0,0.02154541,-0.11364746,-0.033203125,3.0992367,2.5954200000000003,-1.9236640999999999,2019-08-05 14:02:00,
234.0,0.018920898000000002,-0.12225342,-0.042114257999999995,1.4351145,1.4198473999999999,-2.8396947,2019-08-05 14:02:00,
235.0,0.016723633,-0.12280273400000001,-0.027648926,1.7633588,-0.6793893,1.0534351,2019-08-05 14:02:00,
236.0,0.02178955,-0.12078857400000001,-0.03942871,-3.0076337000000004,2.3511450000000003,0.77862597,2019-08-05 14:02:00,
237.0,0.020751953,-0.12268066400000001,-0.038024902,0.99236643,3.6412212999999998,-2.9923662999999996,2019-08-05 14:02:00,
238.0,0.018981934,-0.12628174,-0.03930664,5.7862597000000004,2.961832,-1.7557251,2019-08-05 14:02:00,
239.0,0.012634277,-0.11932373,-0.035827637,-4.9389315,3.7404580000000003,0.52671754,2019-08-05 14:02:00,
240.0,0.019836426,-0.11877441400000001,-0.037719727,-3.9389312000000007,1.8549619,3.8931297999999996,2019-08-05 14:02:00,
241.0,0.015991211,-0.12628174,-0.031677246,12.206107000000001,-1.0610687,1.8778626,2019-08-05 14:02:00,
242.0,0.010131836,-0.12414551,-0.029663086,-5.3816795,2.465649,5.0839696,2019-08-05 14:02:00,
243.0,0.013000488000000001,-0.11431885,-0.038208007999999995,-15.374045,0.32061067,3.7709922999999996,2019-08-05 14:02:00,
244.0,0.013916016000000002,-0.11602783,-0.03289795,1.5114504,1.0152671,-1.0,2019-08-05 14:02:00,
245.0,0.014587402,-0.12426758,-0.03881836,5.374046,2.480916,-0.10687023,2019-08-05 14:02:00,
246.0,0.013305663999999998,-0.11517334,-0.03942871,-7.480916000000001,2.7404580000000003,-2.0305343000000002,2019-08-05 14:02:00,
247.0,0.023376465,-0.11376953,-0.038085938,-2.9312978,3.870229,-4.7175574000000005,2019-08-05 14:02:00,
248.0,0.021484375,-0.12280273400000001,-0.03503418,9.251908,2.2595419999999997,-7.335878,2019-08-05 14:02:00,
249.0,0.018981934,-0.12231445,-0.03375244,-3.183206,1.6641221000000002,-2.5038167999999996,2019-08-05 14:02:00,
250.0,0.026123047000000003,-0.11224365,-0.039733887,-6.40458,5.4198474999999995,-2.0,2019-08-05 14:02:00,
251.0,0.026245117000000002,-0.11596680000000001,-0.028259277000000003,-1.3664121999999999,4.816794,-3.2900763,2019-08-05 14:02:00,
252.0,0.023010253999999997,-0.12225342,-0.038269042999999996,2.480916,4.1755724,-2.2519082999999998,2019-08-05 14:02:00,
253.0,0.02368164,-0.11889648400000001,-0.042236328,-6.9847326,4.8625956,1.1068702,2019-08-05 14:02:00,
254.0,0.022094727,-0.11810303,-0.040222167999999996,-2.923664,3.4503817999999997,-2.7709923,2019-08-05 14:02:01,2.0
255.0,0.018188476999999998,-0.11938476599999999,-0.03491211,2.534351,1.8625953999999998,0.14503817,2019-08-05 14:02:01,2.0
256.0,0.019897461,-0.12268066400000001,-0.03491211,-5.190840000000001,2.076336,3.1908397999999996,2019-08-05 14:02:01,2.0
257.0,0.020996094,-0.11468506,-0.03668213,-3.1221373,4.603053599999999,-0.89312977,2019-08-05 14:02:01,2.0
258.0,0.016296387,-0.11987305,-0.03741455,1.8778626,0.32061067,-1.8931297999999999,2019-08-05 14:02:01,2.0
259.0,0.014160156,-0.119140625,-0.0048217773,-2.8549618999999997,3.5725190000000002,0.49618322,2019-08-05 14:02:01,2.0
260.0,0.015808105,-0.120910645,-0.035888672,-7.0839696,0.78625953,0.6870229,2019-08-05 14:02:01,2.0
261.0,0.016113281,-0.118652344,-0.03692627,1.0,2.778626,-1.3129771000000001,2019-08-05 14:02:01,2.0
262.0,0.01965332,-0.11749267599999999,-0.031982422,1.2519083999999998,3.8396947,-2.8625952999999997,2019-08-05 14:02:01,2.0
263.0,0.0178833,-0.12322998,-0.037719727,-6.9847326,4.3816795,-0.519084,2019-08-05 14:02:01,2.0
264.0,0.012390136999999999,-0.11364746,-0.040405273,-4.2442746,4.3053436,0.9694656999999999,2019-08-05 14:02:01,2.0
265.0,0.016845703,-0.12145996,-0.041259766,0.8167939000000001,2.9007633,-0.79389316,2019-08-05 14:02:01,2.0
266.0,0.017028809,-0.12066650400000001,-0.0423584,-3.1450381000000003,5.3511453,0.022900764,2019-08-05 14:02:01,2.0
267.0,0.014526367,-0.12347412,-0.04498291,-9.992367,6.3816795,0.18320611,2019-08-05 14:02:01,2.0
268.0,0.02154541,-0.12200928,-0.035095215,-1.5572518999999998,0.70229006,3.5725190000000002,2019-08-05 14:02:01,2.0
269.0,0.015075683999999999,-0.123168945,-0.039611816,-4.152672,5.328244000000001,4.4503818,2019-08-05 14:02:01,2.0
270.0,0.020507812,-0.12542725,-0.043640137,-8.21374,10.381680000000001,10.763359,2019-08-05 14:02:01,2.0
271.0,0.0211792,-0.11993408,-0.038269042999999996,6.664122,4.854962,9.923664,2019-08-05 14:02:01,2.0
272.0,0.024414062,-0.13415527,-0.036865234,0.41984734,4.0839696000000005,6.091603299999999,2019-08-05 14:02:01,2.0
273.0,0.020629883,-0.12652588,-0.041748047,-6.6870227,4.259542,11.488549,2019-08-05 14:02:01,2.0
274.0,0.007446289,-0.11621094,-0.041625977,1.3053435,2.946565,9.564885,2019-08-05 14:02:01,2.0
275.0,0.008300781,-0.10723877,-0.036804199999999995,-6.1755724,3.5496182000000003,6.40458,2019-08-05 14:02:01,2.0
276.0,0.010253906,-0.11846924,-0.036804199999999995,-19.045801,3.4274809999999998,6.053435299999999,2019-08-05 14:02:01,2.0
277.0,0.008300781,-0.11920166,-0.036254882999999995,-4.2442746,1.6030535,6.3587785000000006,2019-08-05 14:02:01,2.0
278.0,0.0095825195,-0.11578369,-0.044677734000000004,-15.984732999999999,4.625954,7.480916000000001,2019-08-05 14:02:01,2.0
279.0,0.0079956055,-0.119018555,-0.03552246,-3.1603053,6.0610685,8.297709,2019-08-05 14:02:01,2.0
280.0,0.00970459,-0.11566162,-0.044677734000000004,-5.2671757,10.0,12.328244,2019-08-05 14:02:01,2.0
281.0,0.0067749023,-0.10760498,-0.056274414,0.46564886,6.7175574000000005,12.9007635,2019-08-05 14:02:01,2.0
282.0,0.0016479492000000002,-0.11059569999999999,-0.041320800000000005,-16.740458,8.022901,2.4732822999999997,2019-08-05 14:02:01,2.0
283.0,-0.0036621094,-0.10992432,-0.04473877,-9.78626,1.389313,-4.664122,2019-08-05 14:02:01,2.0
284.0,-0.0005493164,-0.111206055,-0.04638672,-17.832062,-3.59542,-10.167939,2019-08-05 14:02:01,2.0
285.0,0.012390136999999999,-0.11029053,-0.04833984400000001,-8.534351,0.061068702,-11.282442999999999,2019-08-05 14:02:01,2.0
286.0,0.011474608999999998,-0.11047363,-0.05065918,1.4885496,1.8396946,-6.7709923,2019-08-05 14:02:01,2.0
287.0,0.0036621094,-0.11639404,-0.04949951,5.961832,2.1221373,-3.9923663,2019-08-05 14:02:01,2.0
288.0,0.0037231445,-0.11260986,-0.043945312,0.114503816,2.9770992,-4.4961834000000005,2019-08-05 14:02:01,2.0
289.0,0.00793457,-0.10925293,-0.044677734000000004,7.793893300000001,2.6488549999999997,-5.145038,2019-08-05 14:02:02,2.0
290.0,0.008728027,-0.11218262,-0.050964355,7.396946400000001,2.221374,-5.7099237,2019-08-05 14:02:02,2.0
291.0,0.006713866999999999,-0.11315918,-0.046325684000000006,7.1450380000000004,2.1526718,-4.412214,2019-08-05 14:02:02,2.0
292.0,0.004333496,-0.11303711,-0.047180176,19.664122,-0.33587787,-8.053435,2019-08-05 14:02:02,2.0
293.0,0.005737304699999999,-0.12365723,-0.04333496,29.29771,-0.07633588,-7.6870227,2019-08-05 14:02:02,2.0
294.0,0.010070800999999999,-0.12017822,-0.05529785,28.740458,8.160305000000001,-11.549619,2019-08-05 14:02:02,2.0
295.0,0.006652831999999999,-0.10229492,-0.03338623,17.167938,1.8854961,-7.80916,2019-08-05 14:02:02,2.0
296.0,0.016052246000000003,-0.124816895,-0.030822753999999997,29.29771,1.2137405,-4.2748094000000005,2019-08-05 14:02:02,2.0
297.0,0.016601562,-0.11743164,-0.035888672,2.5267177000000003,4.3511453,1.4274809,2019-08-05 14:02:02,2.0
298.0,0.013977051,-0.12042236,-0.039794922,-5.9923663000000005,-1.2824427,3.0,2019-08-05 14:02:02,2.0
299.0,0.0063476562,-0.12030029,-0.040283203,-18.007633,4.2519083,3.870229,2019-08-05 14:02:02,2.0
300.0,0.006225586,-0.11749267599999999,-0.047912598,-14.21374,-0.015267176,3.8396947,2019-08-05 14:02:02,2.0
301.0,0.00592041,-0.11987305,-0.05041504,-13.465648999999999,-1.2977100000000001,1.7862595000000001,2019-08-05 14:02:02,2.0
302.0,0.007507324,-0.12457275400000001,-0.03930664,-11.916031,0.27480915,0.740458,2019-08-05 14:02:02,2.0
303.0,0.009399414,-0.11059569999999999,-0.044128417999999996,-1.6259542,-2.8778627,2.4198472,2019-08-05 14:02:02,2.0
304.0,0.010986328,-0.12017822,-0.052734375,6.3206105,-2.183206,1.3129771000000001,2019-08-05 14:02:02,2.0
305.0,0.010375977,-0.12078857400000001,-0.03778076,-2.519084,1.3206106000000002,0.84732825,2019-08-05 14:02:02,2.0
306.0,0.00592041,-0.11810303,-0.034362792999999996,5.0229006,1.70229,3.0305343,2019-08-05 14:02:02,2.0
307.0,0.004760742,-0.117248535,-0.04736328,-2.8854961,0.96183205,0.35877863,2019-08-05 14:02:02,2.0
308.0,0.012023926,-0.11639404,-0.04345703,-6.442748,3.7099237,-3.0,2019-08-05 14:02:02,2.0
309.0,0.0072631836,-0.12341308599999999,-0.04675293,-0.28244275,1.5038168,-1.7404580000000003,2019-08-05 14:02:02,2.0
310.0,0.012451172,-0.11810303,-0.04522705,3.2748091,0.9465648999999999,2.5877862,2019-08-05 14:02:02,2.0
311.0,0.008422852,-0.1182251,-0.044555664,-2.1450381000000003,1.4961832,-1.1068702,2019-08-05 14:02:02,2.0
312.0,0.006713866999999999,-0.11468506,-0.044799805,5.671755999999999,0.10687023,1.8167938999999997,2019-08-05 14:02:02,2.0
313.0,0.005432129,-0.12384033,-0.042175292999999996,-0.6870229,1.9312977,1.4351145,2019-08-05 14:02:02,2.0
314.0,0.014587402,-0.11779785,-0.04345703,-5.2671757,5.1603055,-4.4198474999999995,2019-08-05 14:02:02,2.0
315.0,-0.0026245116999999997,-0.12347412,-0.035461426000000004,2.1526718,2.7175572,-0.26717559,2019-08-05 14:02:02,2.0
316.0,0.007507324,-0.1171875,-0.04425049,16.396946,1.3206106000000002,-1.0763359,2019-08-05 14:02:02,2.0
317.0,0.0053710938,-0.12371826,-0.03955078,9.938931,-2.6412212999999998,-0.48854962,2019-08-05 14:02:02,2.0
318.0,0.009216309,-0.12420654,-0.03668213,10.763359,2.3969467,-2.534351,2019-08-05 14:02:02,2.0
319.0,0.016601562,-0.11669922,-0.04498291,10.091603,5.0,-2.053435,2019-08-05 14:02:02,2.0
320.0,0.010437011999999999,-0.11688232400000001,-0.032287598,11.236641,-0.38167940000000006,-1.7786259999999998,2019-08-05 14:02:02,2.0
321.0,0.0115356445,-0.120910645,-0.024780273,-3.6641220000000003,3.9923663,-1.5343511,2019-08-05 14:02:02,2.0
322.0,0.011291503999999999,-0.11877441400000001,-0.039001465,-5.3816795,0.40458015,1.0992366000000002,2019-08-05 14:02:03,2.0
323.0,0.0078125,-0.11468506,-0.039367676000000004,-0.099236645,1.6412214,-4.076336,2019-08-05 14:02:03,2.0
324.0,0.0115356445,-0.11419678,-0.025817871000000003,-3.534351,-1.5801526000000001,-3.4503817999999997,2019-08-05 14:02:03,2.0
325.0,0.01361084,-0.11743164,-0.034240723,1.259542,-3.3053436,-2.8244274,2019-08-05 14:02:03,2.0
326.0,0.007507324,-0.12084961,-0.03729248,0.6335878,0.6488550000000001,-5.152672,2019-08-05 14:02:03,2.0
327.0,0.011779785,-0.12725830000000002,-0.03289795,-3.5877862,-1.610687,-6.1679387000000006,2019-08-05 14:02:03,2.0
328.0,0.016601562,-0.12194824,-0.028381347999999997,-4.40458,0.7633588000000001,-7.740458,2019-08-05 14:02:03,2.0
329.0,0.019042969,-0.12054443,-0.027954102,-1.4198473999999999,-0.7557252,-3.2595419999999997,2019-08-05 14:02:03,2.0
330.0,0.018371582,-0.12268066400000001,-0.03100586,0.07633588,-0.8244275,4.9770994,2019-08-05 14:02:03,2.0
331.0,0.017822266,-0.1171875,-0.038635254,-5.328244000000001,-1.5419847,5.190840000000001,2019-08-05 14:02:03,2.0
332.0,0.011474608999999998,-0.12084961,-0.031555176000000004,-10.068703,-4.2900763,7.70229,2019-08-05 14:02:03,2.0
333.0,0.012756348,-0.11175537,-0.038635254,-10.564885,-0.5648854999999999,7.0076336999999995,2019-08-05 14:02:03,2.0
334.0,0.00592041,-0.11773682,-0.041259766,-12.511451,-2.6717557999999997,6.343511599999999,2019-08-05 14:02:03,2.0
335.0,0.0036010741999999997,-0.11499023400000001,-0.04534912,-21.480917,-0.35114503,7.3816795,2019-08-05 14:02:03,2.0
336.0,0.0049438477,-0.10766601599999999,-0.045898438,-16.282442,0.28244275,6.2519083,2019-08-05 14:02:03,2.0
337.0,0.0021972656,-0.11407471,-0.053100586,-15.740458499999999,-2.2366412,2.3664122000000005,2019-08-05 14:02:03,2.0
338.0,-0.0061035156000000005,-0.12011719,-0.053527832000000004,-7.4351144,-1.6030535,1.9236640999999999,2019-08-05 14:02:03,2.0
339.0,-0.003112793,-0.11425781,-0.052978515999999996,-6.8778625,-2.4045799999999997,-0.66412216,2019-08-05 14:02:03,2.0
340.0,0.0036010741999999997,-0.12158203,-0.047973632999999995,1.1450381,1.0458015,3.2748091,2019-08-05 14:02:03,2.0
341.0,0.0017700195,-0.12139892599999999,-0.04437256,-1.3816794,2.8778627,0.96183205,2019-08-05 14:02:03,2.0
342.0,0.0024414061999999998,-0.10992432,-0.047180176,-3.908397,-1.3358778999999998,-1.0076336,2019-08-05 14:02:03,2.0
343.0,0.0048828125,-0.11773682,-0.03942871,0.6259541999999999,0.9160305000000001,-5.4198474999999995,2019-08-05 14:02:03,2.0
344.0,0.007873535,-0.12194824,-0.046325684000000006,4.0229006,5.076336,-7.40458,2019-08-05 14:02:03,2.0
345.0,0.0072631836,-0.11651611,-0.047973632999999995,-6.709923700000001,5.633588,-6.3511453,2019-08-05 14:02:03,2.0
346.0,0.0053710938,-0.12182617,-0.04522705,-1.8625953999999998,5.259542,-4.740458,2019-08-05 14:02:03,2.0
347.0,0.0012817383,-0.12414551,-0.049438477,12.091603,7.396946400000001,-1.2366412,2019-08-05 14:02:03,2.0
348.0,0.006652831999999999,-0.11328125,-0.040893555,1.259542,4.3511453,0.2977099,2019-08-05 14:02:03,2.0
349.0,0.0061035156000000005,-0.121154785,-0.044799805,5.8702292,6.89313,2.3358779999999997,2019-08-05 14:02:03,2.0
350.0,-0.0031738281,-0.12200928,-0.049987792999999996,4.5496182,7.7709923,2.442748,2019-08-05 14:02:03,2.0
351.0,0.0017089844000000001,-0.11999512,-0.051818848,-5.4885497,6.5343513,5.0,2019-08-05 14:02:03,2.0
352.0,0.00012207031000000001,-0.11828613,-0.041992188,-20.442749,3.2290077,3.9923663,2019-08-05 14:02:03,2.0
353.0,0.0072021483999999995,-0.13055419999999998,-0.0357666,-29.229008,6.0305343,4.7938933,2019-08-05 14:02:03,2.0
354.0,-0.0038452148,-0.10211182,-0.05645752,-37.908398,12.648855000000001,3.3893129999999996,2019-08-05 14:02:03,2.0
355.0,-0.0017089844000000001,-0.111816406,-0.05834961,-20.648854999999998,13.755725,0.20610687,2019-08-05 14:02:03,2.0
356.0,-0.0024414061999999998,-0.11480713,-0.05255127,-6.603053599999999,10.7404585,-0.31297709999999995,2019-08-05 14:02:03,2.0
357.0,0.007446289,-0.117004395,-0.056518555,-5.2824425999999995,4.1984735,1.4122137,2019-08-05 14:02:04,2.0
358.0,6.1035155999999994e-05,-0.11260986,-0.05279541,-13.580152499999999,1.221374,-0.78625953,2019-08-05 14:02:04,2.0
359.0,-0.0015869141,-0.11566162,-0.048583984000000004,-18.145039,-5.145038,0.67175573,2019-08-05 14:02:04,2.0
360.0,-0.0015869141,-0.1015625,-0.053894042999999996,-31.786259,1.2824427,4.885496,2019-08-05 14:02:04,2.0
361.0,-0.00036621094,-0.11077881,-0.059448242000000005,-7.4732823,-0.73282444,-0.030534351,2019-08-05 14:02:04,2.0
362.0,0.0071411133,-0.10626221,-0.05432129,-3.2442749,4.5725193,-2.8625952999999997,2019-08-05 14:02:04,2.0
363.0,0.0016479492000000002,-0.11840819999999999,-0.052368164,3.6412212999999998,2.793893,-1.5496184,2019-08-05 14:02:04,2.0
364.0,0.003112793,-0.11468506,-0.05102539,1.9541985,1.8854961,-1.8625953999999998,2019-08-05 14:02:04,2.0
365.0,0.006286621,-0.11236572,-0.054626465,-1.7633588,4.656488400000001,-3.946565,2019-08-05 14:02:04,2.0
366.0,0.0064086914,-0.11596680000000001,-0.051391599999999996,-4.3893127,2.1984732000000005,-1.9847328999999998,2019-08-05 14:02:04,2.0
367.0,0.0061035156000000005,-0.113220215,-0.04711914,-2.0305343000000002,0.022900764,0.41221374,2019-08-05 14:02:04,2.0
368.0,0.010253906,-0.110839844,-0.056030273,4.9694657,1.6030535,-2.1450381000000003,2019-08-05 14:02:04,2.0
369.0,0.006652831999999999,-0.11688232400000001,-0.046325684000000006,-1.091603,3.0,-5.7328243,2019-08-05 14:02:04,2.0
370.0,0.01373291,-0.11669922,-0.051391599999999996,1.3282443000000002,2.832061,1.3358778999999998,2019-08-05 14:02:04,2.0
371.0,0.005126953,-0.11108398400000001,-0.047851562,2.961832,1.7328244,-0.4427481,2019-08-05 14:02:04,2.0
372.0,0.009033203,-0.11352539,-0.047424315999999994,2.946565,3.3129769999999996,-2.091603,2019-08-05 14:02:04,2.0
373.0,0.0014038085999999999,-0.12200928,-0.055419922,-7.0152674,-7.816794,0.06870229,2019-08-05 14:02:04,2.0
374.0,0.00036621094,-0.12390137,-0.04272461,7.374046000000001,-6.0610685,-1.9389313000000001,2019-08-05 14:02:04,2.0
375.0,0.008911133,-0.10638428,-0.062683105,-21.717558,-8.045800999999999,1.2748091000000001,2019-08-05 14:02:04,2.0
376.0,-0.0079956055,-0.113342285,-0.07244873,1.0152671,-4.2061067,5.2748094000000005,2019-08-05 14:02:04,2.0
377.0,0.0053100586,-0.111206055,-0.042907715,15.671756,13.679389000000002,-3.2366412,2019-08-05 14:02:04,2.0
378.0,0.006164551,-0.11553955,-0.022949219,15.839695,7.2137402999999996,-2.4351146,2019-08-05 14:02:04,2.0
379.0,0.0134887695,-0.119628906,-0.021911621000000003,2.8931298,5.671755999999999,-2.2366412,2019-08-05 14:02:04,2.0
380.0,0.0028076171999999997,-0.12060547,-0.059020996,19.87023,7.3206105,1.0229008,2019-08-05 14:02:04,2.0
381.0,0.004028320300000001,-0.09954834,-0.07312012,23.732824,19.290077,2.2137403,2019-08-05 14:02:04,2.0
382.0,0.0052490233999999995,-0.12506104,-0.046447754,80.72519,16.526718,1.6335878000000001,2019-08-05 14:02:04,2.0
383.0,0.0016479492000000002,-0.12036133,-0.04724121,24.992367,11.687023,14.335876999999998,2019-08-05 14:02:04,2.0
384.0,0.0021362305,-0.12615967,-0.038635254,43.297709999999995,9.816792999999999,9.587786999999999,2019-08-05 14:02:04,2.0
385.0,0.0015258789000000001,-0.11743164,-0.032958984,43.648853,-3.4427480000000004,7.70229,2019-08-05 14:02:04,2.0
386.0,0.0073242188,-0.11633301,-0.03643799,40.450382,-0.18320611,10.351144999999999,2019-08-05 14:02:04,2.0
387.0,0.003112793,-0.113220215,-0.031921387,56.44275,-4.0992365,3.6259542000000002,2019-08-05 14:02:04,2.0
388.0,-0.007385254,-0.11230469,-0.021728516,69.70229,4.3206105,3.4351146,2019-08-05 14:02:04,2.0
389.0,0.00036621094,-0.119140625,-0.03503418,86.56489,17.183207,-14.549619,2019-08-05 14:02:04,2.0
390.0,0.0036010741999999997,-0.125,-0.02368164,82.33588,17.519083,-23.305344,2019-08-05 14:02:04,2.0
391.0,0.0115356445,-0.12451172,-0.0051879883,42.297709999999995,9.847328,-27.923664000000002,2019-08-05 14:02:04,2.0
392.0,-0.0013427734,-0.13519287,-0.0119018555,49.82443,4.2900763,-29.183207,2019-08-05 14:02:04,2.0
393.0,0.00390625,-0.13104248,-0.005981445300000001,40.702290000000005,3.7557251000000003,-16.450382,2019-08-05 14:02:04,2.0
394.0,0.016845703,-0.123535156,-0.0073242188,25.099237,5.4656487,-11.702291,2019-08-05 14:02:05,2.0
395.0,0.007690429699999999,-0.11749267599999999,-0.013549805,15.748092000000002,6.2977099999999995,7.068702,2019-08-05 14:02:05,2.0
396.0,0.013977051,-0.12854004,0.008972168,30.664121999999995,5.5496182,3.9541983999999997,2019-08-05 14:02:05,2.0
397.0,0.008300781,-0.12536621,0.013916016000000002,7.656488400000001,4.984732599999999,-3.6564887,2019-08-05 14:02:05,2.0
398.0,0.019897461,-0.12896729,0.0036010741999999997,-12.725191,1.6564884999999998,-7.114503999999999,2019-08-05 14:02:05,2.0
399.0,0.012817383,-0.117004395,-0.01171875,6.816794,5.2290077,-3.9847328999999996,2019-08-05 14:02:05,2.0
400.0,0.0030517578000000003,-0.11956787,-0.007385254,28.183207,6.519083999999999,-1.7251908999999999,2019-08-05 14:02:05,2.0
401.0,0.0126953125,-0.11981201,0.00018310547,36.183205,7.7862597000000004,-1.7786259999999998,2019-08-05 14:02:05,2.0
402.0,0.00793457,-0.13366699,0.011169433999999999,25.900763,10.564885,-0.47328246,2019-08-05 14:02:05,2.0
403.0,0.0071411133,-0.13262939999999998,0.020019531,3.7251909,10.374044999999999,5.40458,2019-08-05 14:02:05,2.0
404.0,0.0012207030999999999,-0.12017822,0.016113281,-9.534351,9.061069,4.5343513,2019-08-05 14:02:05,2.0
405.0,0.004028320300000001,-0.12866211,0.008605957,-15.366412,4.908396700000001,0.9465648999999999,2019-08-05 14:02:05,2.0
406.0,0.011779785,-0.12664795,0.010009766,-23.977098,11.152672,1.6183206,2019-08-05 14:02:05,2.0
407.0,0.009094238000000001,-0.12036133,0.008483886999999999,-38.282444,6.8244276,12.534351,2019-08-05 14:02:05,2.0
408.0,0.013366699,-0.12670898,0.008239746,-46.091602,2.8473282,12.465649,2019-08-05 14:02:05,2.0
409.0,0.012634277,-0.124816895,0.0037841796999999997,-53.49618,0.28244275,11.053435,2019-08-05 14:02:05,2.0
410.0,0.006042480500000001,-0.12420654,-0.0032958984000000004,-47.801525,-2.9541984,15.854961,2019-08-05 14:02:05,2.0
411.0,0.0010986328,-0.12060547,-0.012390136999999999,-61.82443000000001,-6.7709923,15.839695,2019-08-05 14:02:05,2.0
412.0,0.0014648438,-0.12164307,-0.015686035,-32.267174,-5.908396700000001,19.274809,2019-08-05 14:02:05,2.0
413.0,-0.00036621094,-0.11608887,-0.026672362999999998,-21.244274,-3.3282442000000003,8.885496,2019-08-05 14:02:05,2.0
414.0,-0.00024414062000000002,-0.11999512,-0.016906738,-5.259542,2.221374,4.2442746,2019-08-05 14:02:05,2.0
415.0,0.0018310547,-0.12634277,-0.01776123,1.0839695,4.9389315,-1.4503816,2019-08-05 14:02:05,2.0
416.0,-0.0028076171999999997,-0.12329101599999999,-0.017089844,-2.9312978,2.7251909,-0.65648854,2019-08-05 14:02:05,2.0
417.0,0.0006103515599999999,-0.12854004,-0.011352538999999998,0.33587787,1.8473282,-1.259542,2019-08-05 14:02:05,2.0
418.0,0.0021972656,-0.12591553,-0.012268066000000001,0.40458015,3.206107,-5.473282299999999,2019-08-05 14:02:05,2.0
419.0,0.0032348633000000003,-0.12072754,-0.008361816,0.6793893,1.9694656000000004,-3.0229008,2019-08-05 14:02:05,2.0
420.0,0.0038452148,-0.123168945,-0.006652831999999999,8.412213000000001,-3.0687022,0.129771,2019-08-05 14:02:05,2.0
421.0,0.0067749023,-0.13165283,-0.005065918,14.702291,-0.053435113,0.5648854999999999,2019-08-05 14:02:05,2.0
422.0,0.003967285,-0.12786865,-0.010192871,4.5648856,-0.8396947,1.9160305,2019-08-05 14:02:05,2.0
423.0,-0.0007324219,-0.1270752,-0.010131836,4.6488547,1.2137405,-1.1297709999999999,2019-08-05 14:02:06,2.0
424.0,0.004760742,-0.125,-0.0075683593999999995,8.992367,2.053435,-5.259542,2019-08-05 14:02:06,2.0
425.0,0.004211426,-0.11798096,-0.0028076171999999997,17.496183,4.5496182,-6.3587785000000006,2019-08-05 14:02:06,2.0
426.0,0.0052490233999999995,-0.121276855,-0.005065918,17.160304999999997,1.0763359,-5.4885497,2019-08-05 14:02:06,2.0
427.0,0.0065307617,-0.12725830000000002,-0.008666992,20.259542,3.7251909,-5.885496,2019-08-05 14:02:06,2.0
428.0,0.0048217773,-0.12207031,-0.004028320300000001,22.900763,5.4198474999999995,-5.587786,2019-08-05 14:02:06,2.0
429.0,0.0078125,-0.1361084,-0.0037231445,17.755726,-0.41221374,-2.5496182000000003,2019-08-05 14:02:06,2.0
430.0,0.009887695,-0.12805176,-0.005859375,16.351145000000002,1.9694656000000004,-3.8167940000000002,2019-08-05 14:02:06,2.0
431.0,0.008056641,-0.12298584,0.0028076171999999997,15.480916,4.8244276,-6.076336,2019-08-05 14:02:06,2.0
432.0,0.009887695,-0.12451172,0.00091552734,12.175572,0.10687023,-5.335878,2019-08-05 14:02:06,2.0
433.0,0.012390136999999999,-0.12902832,0.006225586,6.0992365,1.9465648999999998,-1.9312977,2019-08-05 14:02:06,2.0
434.0,0.0036010741999999997,-0.12939453,-0.0014648438,16.51145,8.274809,-2.1068702,2019-08-05 14:02:06,2.0
435.0,0.0034179688000000002,-0.11517334,-0.006042480500000001,27.442749,6.900763499999999,-5.1374044,2019-08-05 14:02:06,2.0
436.0,0.0029907227,-0.1262207,0.009643555,40.221375,3.2366412,-10.351144999999999,2019-08-05 14:02:06,2.0
437.0,0.009887695,-0.12451172,0.009887695,33.381679999999996,10.198473,-21.89313,2019-08-05 14:02:06,2.0
438.0,0.016296387,-0.12078857400000001,0.016418457,25.541985,6.1603055,-21.656488,2019-08-05 14:02:06,2.0
439.0,0.010620117,-0.12335205,0.02368164,21.122137,7.0534353,-15.694656,2019-08-05 14:02:06,2.0
440.0,0.015197753999999999,-0.12799072,0.018981934,22.10687,8.671756,-8.206107000000001,2019-08-05 14:02:06,2.0
441.0,0.012145996000000001,-0.12750244,0.02935791,5.1984735,6.2671757,0.5496183000000001,2019-08-05 14:02:06,2.0
442.0,0.01361084,-0.11602783,0.026916503999999997,-16.793894,0.14503817,9.9007635,2019-08-05 14:02:06,2.0
443.0,0.01751709,-0.13616943,0.02532959,-48.793890000000005,-2.8931298,14.854961,2019-08-05 14:02:06,2.0
444.0,0.0119018555,-0.11968994,0.015258788999999998,-84.16031,-2.908397,16.038168,2019-08-05 14:02:06,2.0
445.0,0.011047363000000001,-0.12084961,-0.0020141601999999997,-73.229004,-7.4732823,12.946565,2019-08-05 14:02:06,2.0
446.0,0.012634277,-0.123168945,-0.0037841796999999997,-50.007633,-5.664122,8.725191,2019-08-05 14:02:06,2.0
447.0,0.0073242188,-0.12945557,-0.012939453,-32.564884,-5.9160304,2.3816792999999996,2019-08-05 14:02:06,2.0
448.0,0.006225586,-0.12927246,-0.005004883,-29.473282,-6.969465700000001,3.1526718,2019-08-05 14:02:06,2.0
449.0,0.016601562,-0.11578369,0.0064086914,6.709923700000001,-2.2290077,-6.0458016,2019-08-05 14:02:06,2.0
450.0,0.013305663999999998,-0.11547851599999999,0.0056152343999999995,14.167939000000002,6.2290077,-6.3206105,2019-08-05 14:02:06,2.0
451.0,0.0119018555,-0.11883545,0.0014038085999999999,8.297709,-0.8549618,0.4274809,2019-08-05 14:02:06,2.0
452.0,0.009155273,-0.13830566,0.0009765625,-7.3053436000000005,1.8778626,7.664122,2019-08-05 14:02:06,2.0
453.0,0.0044555664,-0.13110352,-0.0012207030999999999,-18.786259,3.923664,2.2366412,2019-08-05 14:02:06,2.0
454.0,0.0040893555,-0.11376953,-0.012756348,-23.587785999999998,7.900763499999999,-4.053435299999999,2019-08-05 14:02:06,2.0
455.0,-0.0020751953,-0.11608887,-0.026977539,-13.961832000000001,6.335878,-2.70229,2019-08-05 14:02:06,2.0
456.0,0.004211426,-0.11364746,-0.011291503999999999,-10.625955000000001,4.59542,0.86259544,2019-08-05 14:02:06,2.0
457.0,0.0037231445,-0.12438965,-0.015136719,-9.290076,1.8702290000000001,4.4656487,2019-08-05 14:02:06,2.0
458.0,-0.0021362305,-0.13397217,-0.022399902000000003,-13.587786999999999,1.2671756,10.671756,2019-08-05 14:02:06,2.0
459.0,-0.0087890625,-0.12725830000000002,-0.025146484,-10.725191,-1.4885496,14.290076000000001,2019-08-05 14:02:06,2.0
460.0,-0.0048217773,-0.12097168,-0.018127441,-4.6412214999999994,-0.47328246,11.877863,2019-08-05 14:02:07,2.0
461.0,-0.0038452148,-0.12084961,-0.011962891000000002,7.442748,0.8854962,-3.8549618999999997,2019-08-05 14:02:07,2.0
462.0,0.00091552734,-0.12426758,-0.0071411133,12.496183,1.4885496,-9.717557000000001,2019-08-05 14:02:07,2.0
463.0,0.013244628999999999,-0.12042236,-0.013366699,17.167938,0.32061067,-13.374045,2019-08-05 14:02:07,2.0
464.0,0.010803223,-0.12921143,-0.0053710938,19.503817,4.763358599999999,-10.442748,2019-08-05 14:02:07,2.0
465.0,0.010620117,-0.12628174,0.0007324219,18.190839999999998,0.43511450000000007,-4.40458,2019-08-05 14:02:07,2.0
466.0,0.014770508,-0.12579346,0.0031738281,11.465649,4.114504,-0.259542,2019-08-05 14:02:07,2.0
467.0,0.006042480500000001,-0.12365723,-0.0052490233999999995,-5.412214,7.4274807,5.145038,2019-08-05 14:02:07,2.0
468.0,0.004211426,-0.12762451,-0.00091552734,-18.10687,4.587786,5.145038,2019-08-05 14:02:07,2.0
469.0,0.0018310547,-0.12860107,-0.013366699,-26.351145000000002,2.9694657,8.030535,2019-08-05 14:02:07,2.0
470.0,-0.0014648438,-0.12237549,-0.020324707,-22.259542,2.038168,4.5419846,2019-08-05 14:02:07,2.0
471.0,-0.005004883,-0.12646484,-0.02722168,-5.89313,2.610687,3.8854961,2019-08-05 14:02:07,2.0
472.0,-0.011169433999999999,-0.1194458,-0.022583007999999998,-2.8015267999999995,-0.22137405,2.572519,2019-08-05 14:02:07,2.0
473.0,-0.006652831999999999,-0.12542725,-0.014709473,5.7328243,-5.0992365,0.90839696,2019-08-05 14:02:07,2.0
474.0,-0.002380371,-0.1281128,-0.009277344,11.076336,1.5114504,-5.2900763,2019-08-05 14:02:07,2.0
475.0,0.004272461,-0.12390137,-0.0063476562,9.389313000000001,1.221374,-7.0458016,2019-08-05 14:02:07,2.0
476.0,0.009094238000000001,-0.12890625,-0.006225586,3.9541983999999997,-0.7633588000000001,-4.5419846,2019-08-05 14:02:07,2.0
477.0,0.012268066000000001,-0.12591553,-0.0048217773,-5.076336,0.8091603,-5.6183205,2019-08-05 14:02:07,2.0
478.0,0.013000488000000001,-0.120910645,0.0016479492000000002,-14.106871,6.259542,-3.2290077,2019-08-05 14:02:07,2.0
479.0,0.007446289,-0.11328125,0.00018310547,-6.4351144,0.7099236999999999,-0.48854962,2019-08-05 14:02:07,2.0
480.0,0.010803223,-0.12939453,-0.008422852,-8.244275,3.1526718,2.442748,2019-08-05 14:02:07,2.0
481.0,0.004211426,-0.12591553,-0.01550293,-3.1984732000000005,3.9770992,2.206107,2019-08-05 14:02:07,2.0
482.0,0.0012817383,-0.12139892599999999,-0.017700195,-8.129771,2.7328243,3.4274809999999998,2019-08-05 14:02:07,2.0
483.0,0.0010986328,-0.12561035,-0.013671875,-7.465648700000001,-1.8320610000000002,6.5114503,2019-08-05 14:02:07,2.0
484.0,-0.004638672,-0.12957764,-0.013977051,-4.4503818,4.6412214999999994,-0.6946565,2019-08-05 14:02:07,2.0
485.0,-0.0020751953,-0.12231445,-0.014038086000000002,-1.038168,1.9541985,-0.9465648999999999,2019-08-05 14:02:07,2.0
486.0,-0.0007324219,-0.12182617,-0.016235351999999998,5.9694657,-3.2824428,-0.114503816,2019-08-05 14:02:07,2.0
487.0,0.0021362305,-0.12445068,-0.0049438477,1.4198473999999999,1.1755725000000001,-3.5419848,2019-08-05 14:02:07,2.0
488.0,0.00042724610000000003,-0.12664795,-0.008972168,-0.7480916,3.6793892,-4.2519083,2019-08-05 14:02:07,2.0
489.0,0.0025634766,-0.11785889,-0.0037841796999999997,-4.7709923,1.0839695,-1.389313,2019-08-05 14:02:07,2.0
490.0,0.01171875,-0.13085938,-0.006652831999999999,-5.8320612999999994,1.038168,-0.73282444,2019-08-05 14:02:07,2.0
491.0,0.010498047,-0.12463379,-0.010192871,-3.5038167999999996,6.625953999999999,-2.946565,2019-08-05 14:02:07,2.0
492.0,0.004638672,-0.11749267599999999,-0.00579834,-8.541985,3.091603,-0.9160305000000001,2019-08-05 14:02:07,2.0
493.0,0.0052490233999999995,-0.12908936,-0.0064697266000000005,-7.839694500000001,-0.97709924,1.7938931,2019-08-05 14:02:07,2.0
494.0,0.003967285,-0.12902832,-0.01159668,-0.5496183000000001,6.7175574000000005,1.1068702,2019-08-05 14:02:07,2.0
495.0,-0.005737304699999999,-0.12231445,-0.019958496000000003,-2.2748091,2.4045799999999997,3.183206,2019-08-05 14:02:08,2.0
496.0,0.0015869141,-0.119140625,-0.0099487305,-6.4656487,-0.7251908,1.1984733,2019-08-05 14:02:08,2.0
497.0,0.0018310547,-0.12805176,-0.0051879883,-3.4427480000000004,-0.07633588,0.030534351,2019-08-05 14:02:08,2.0
498.0,6.1035155999999994e-05,-0.12365723,-0.012939453,-2.4885497,3.7175572,-1.4580153,2019-08-05 14:02:08,2.0
499.0,0.0005493164,-0.11621094,-0.0065307617,-2.816794,1.8931297999999999,-1.8473282,2019-08-05 14:02:08,2.0
500.0,0.012451172,-0.13269043,-0.015563965,-2.442748,1.1450381,-1.6946564999999998,2019-08-05 14:02:08,2.0
501.0,0.0034179688000000002,-0.12939453,-0.010986328,5.603053599999999,6.0076336999999995,-2.3587787000000002,2019-08-05 14:02:08,2.0
502.0,0.005676269499999999,-0.1194458,-0.022338867000000002,-13.2213745,3.6106870000000004,-2.2824428,2019-08-05 14:02:08,2.0
503.0,0.00390625,-0.12426758,-0.013244628999999999,-6.328244000000001,1.1526718,1.8931297999999999,2019-08-05 14:02:08,2.0
504.0,0.0037231445,-0.13079834,-0.0051879883,7.3053436000000005,4.740458,0.5114504,2019-08-05 14:02:08,2.0
505.0,0.004211426,-0.122924805,-0.013977051,-8.2595415,2.4045799999999997,-1.1755725000000001,2019-08-05 14:02:08,2.0
506.0,-0.0022583008,-0.11706543,-0.012573242,-12.641221,-1.2061069,1.4961832,2019-08-05 14:02:08,2.0
507.0,0.0068359375,-0.13372803,-0.008850098,8.114504,3.923664,0.8702290000000001,2019-08-05 14:02:08,2.0
508.0,0.0006713867,-0.12579346,-0.01776123,0.32061067,4.0,-1.4656489,2019-08-05 14:02:08,2.0
509.0,-0.003967285,-0.12341308599999999,-0.005004883,-11.824428,-0.7251908,-3.3129769999999996,2019-08-05 14:02:08,2.0
510.0,0.0025024414000000004,-0.12451172,-0.0052490233999999995,3.7633588,2.5877862,-1.6412214,2019-08-05 14:02:08,2.0
511.0,0.005676269499999999,-0.1239624,-0.011474608999999998,6.6793895,4.59542,-2.3816792999999996,2019-08-05 14:02:08,2.0
512.0,0.002746582,-0.11987305,-0.012451172,-11.167939,1.2137405,-2.816794,2019-08-05 14:02:08,2.0
513.0,0.0053100586,-0.12866211,-0.0034179688000000002,-7.465648700000001,-1.5648855,1.7938931,2019-08-05 14:02:08,2.0
514.0,0.005737304699999999,-0.13201904,-0.01171875,8.854961,5.8396945,-1.5801526000000001,2019-08-05 14:02:08,2.0
515.0,0.0052490233999999995,-0.11993408,-0.015808105,-8.297709,5.2137402999999996,-4.3053436,2019-08-05 14:02:08,2.0
516.0,0.0010986328,-0.12365723,-0.008117675999999999,-11.404580000000001,-0.3053435,-0.15267175,2019-08-05 14:02:08,2.0
517.0,0.0018310547,-0.12976074,-0.003967285,3.9923663,3.1450381000000003,0.16030534,2019-08-05 14:02:08,2.0
518.0,0.0012207030999999999,-0.12414551,-0.016479492,2.7099237,4.6106873,-1.9236640999999999,2019-08-05 14:02:08,2.0
519.0,0.0020751953,-0.11682129,-0.019104003999999997,-8.396947,0.96183205,-3.6717557999999997,2019-08-05 14:02:08,2.0
520.0,0.0049438477,-0.121276855,-0.013549805,-6.1603055,-0.15267175,0.129771,2019-08-05 14:02:08,2.0
521.0,0.0018310547,-0.12823486,-0.008972168,3.4809160000000006,5.1603055,-0.71755725,2019-08-05 14:02:08,2.0
522.0,0.003112793,-0.12365723,-0.014709473,0.70229006,2.7862597,-2.832061,2019-08-05 14:02:08,2.0
523.0,0.0025634766,-0.12335205,-0.012634277,-7.152672,-0.015267176,-1.6870228999999999,2019-08-05 14:02:08,2.0
524.0,0.002380371,-0.12207031,-0.010559082,-4.328244000000001,2.9389312000000003,0.38167940000000006,2019-08-05 14:02:08,2.0
525.0,-0.0009765625,-0.12921143,-0.021911621000000003,2.7175572,5.40458,-1.5648855,2019-08-05 14:02:08,2.0
526.0,0.0017089844000000001,-0.11749267599999999,-0.015197753999999999,-4.7709923,0.33587787,-0.07633588,2019-08-05 14:02:08,2.0
527.0,0.0022583008,-0.12591553,-0.0154418945,-8.832061,-0.7633588000000001,-0.70229006,2019-08-05 14:02:08,2.0
528.0,-0.001159668,-0.12609863,-0.0107421875,3.465649,4.2519083,0.5954198,2019-08-05 14:02:08,2.0
529.0,-0.0022583008,-0.11798096,-0.018188476999999998,0.114503816,1.1832061000000003,-0.54198474,2019-08-05 14:02:08,2.0
530.0,0.005493164,-0.12231445,-0.012329102,-4.2519083,-1.7099236,-3.1145039,2019-08-05 14:02:08,2.0
531.0,0.0045776367,-0.128479,-0.018127441,-4.442748,3.7404580000000003,-1.4961832,2019-08-05 14:02:08,2.0
532.0,0.006042480500000001,-0.12719727,-0.015686035,-4.664122,1.0152671,0.07633588,2019-08-05 14:02:09,2.0
533.0,0.0015258789000000001,-0.11389160000000002,-0.012390136999999999,-8.511451,2.5496182000000003,-0.86259544,2019-08-05 14:02:09,2.0
534.0,-0.005126953,-0.13244629,-0.011352538999999998,-3.7633588,4.2748094000000005,0.129771,2019-08-05 14:02:09,2.0
535.0,0.0021362305,-0.12554932,-0.020141601999999998,4.8396945,2.29771,-0.31297709999999995,2019-08-05 14:02:09,2.0
536.0,-0.00048828125,-0.117370605,-0.012023926,-8.549619,0.0,-2.1908397999999996,2019-08-05 14:02:09,2.0
537.0,0.0065307617,-0.1328125,-0.0067749023,-2.4580152,1.9541985,-1.2519083999999998,2019-08-05 14:02:09,2.0
538.0,0.002380371,-0.12329101599999999,-0.0095825195,2.1755726,5.5343513,-1.0839695,2019-08-05 14:02:09,2.0
539.0,0.0025634766,-0.12188721,-0.01739502,-0.41221374,0.90076333,0.022900764,2019-08-05 14:02:09,2.0
540.0,0.0067749023,-0.12896729,-0.010253906,-3.2671757,0.007633588,-0.77862597,2019-08-05 14:02:09,2.0
541.0,0.01159668,-0.12823486,-0.01977539,-2.183206,2.2824428,-1.4656489,2019-08-05 14:02:09,2.0
542.0,0.0072631836,-0.1182251,-0.013793945,-0.08396947,1.1145038999999999,-0.15267175,2019-08-05 14:02:09,2.0
543.0,0.0010986328,-0.12359619,-0.016357422,-11.145039,1.610687,-0.114503816,2019-08-05 14:02:09,2.0
544.0,0.008666992,-0.12805176,-0.015380858999999998,-4.1984735,1.2977100000000001,3.3435113,2019-08-05 14:02:09,2.0
545.0,-0.0018310547,-0.12213135,-0.017150878999999997,-1.0610687,2.687023,2.167939,2019-08-05 14:02:09,2.0
546.0,-0.0036010741999999997,-0.12512207,-0.018920898000000002,-6.5419846,0.14503817,2.8854961,2019-08-05 14:02:09,2.0
547.0,-0.0031738281,-0.12750244,-0.016479492,-6.923664,-0.34351146,0.2519084,2019-08-05 14:02:09,2.0
548.0,-0.004333496,-0.13116455,-0.016357422,4.2900763,2.5877862,-3.1603053,2019-08-05 14:02:09,2.0
549.0,0.0008544922000000001,-0.12322998,-0.014709473,6.9923663000000005,1.8396946,-3.6717557999999997,2019-08-05 14:02:09,2.0
550.0,0.008300781,-0.12408447,-0.0045776367,3.0458016,-1.389313,-1.961832,2019-08-05 14:02:09,2.0
551.0,0.007446289,-0.13256836,-0.0018310547,4.671755999999999,2.6259542000000002,-6.2519083,2019-08-05 14:02:09,2.0
552.0,0.013122558999999999,-0.12634277,0.0012817383,0.19847329,4.1755724,-4.4580154,2019-08-05 14:02:09,2.0
553.0,0.010192871,-0.12249756,-0.007019043000000001,-1.5725191,0.86259544,-1.4198473999999999,2019-08-05 14:02:09,2.0
554.0,0.011657715,-0.12768555,-0.0013427734,-4.3129773,2.4580152,-0.16030534,2019-08-05 14:02:09,2.0
555.0,0.011413574,-0.1260376,-0.014343261999999999,-6.5725193,3.8473281999999998,-1.7175573,2019-08-05 14:02:09,2.0
556.0,0.008728027,-0.1182251,-0.014038086000000002,-6.526717700000001,0.6870229,3.221374,2019-08-05 14:02:09,2.0
557.0,0.008483886999999999,-0.12017822,-0.016296387,-6.396946400000001,0.8702290000000001,-1.3816794,2019-08-05 14:02:09,2.0
558.0,0.0015869141,-0.1303711,-0.020446777,-7.0610685,2.793893,2.8015267999999995,2019-08-05 14:02:09,2.0
559.0,-0.0015869141,-0.12359619,-0.018493652,-4.519083999999999,1.1908396,2.8473282,2019-08-05 14:02:09,2.0
560.0,-0.0041503906,-0.12432861,-0.019042969,-2.5648854,1.7175573,1.961832,2019-08-05 14:02:09,2.0
561.0,0.0022583008,-0.123168945,-0.01727295,0.29007635,0.8244275,0.20610687,2019-08-05 14:02:09,2.0
562.0,0.0020141601999999997,-0.12963867,-0.012573242,3.2290077,0.48854962,-3.8015267999999995,2019-08-05 14:02:09,2.0
563.0,0.0037231445,-0.12536621,-0.014282227,6.3129773,4.221374,-4.2671757,2019-08-05 14:02:09,2.0
564.0,0.010070800999999999,-0.12384033,-0.009460449000000001,3.40458,1.1450381,-2.6259542000000002,2019-08-05 14:02:09,2.0
565.0,0.007507324,-0.12451172,-0.012756348,-0.6259541999999999,3.0839694,-4.6106873,2019-08-05 14:02:09,2.0
566.0,0.008666992,-0.12359619,-0.014831543,-2.832061,2.6717557999999997,-2.6412212999999998,2019-08-05 14:02:09,2.0
567.0,0.0032348633000000003,-0.12121582,-0.010559082,-1.1603054,0.18320611,0.5496183000000001,2019-08-05 14:02:10,2.0
568.0,0.011657715,-0.12213135,-0.010253906,-3.221374,1.9389313000000001,-1.7099236,2019-08-05 14:02:10,2.0
569.0,0.010620117,-0.12426758,-0.016418457,-7.6946563999999995,2.3587787000000002,0.8854962,2019-08-05 14:02:10,2.0
570.0,0.0078125,-0.123046875,-0.017211914,-5.343511599999999,3.9389312000000007,2.5114503,2019-08-05 14:02:10,2.0
571.0,-0.0010986328,-0.12072754,-0.018066406,-2.389313,1.9236640999999999,3.5572519999999996,2019-08-05 14:02:10,2.0
572.0,0.0049438477,-0.12365723,-0.014160156,-4.091603299999999,1.2442749,3.6564887,2019-08-05 14:02:10,2.0
573.0,-0.0053100586,-0.12542725,-0.014160156,-4.0076336999999995,0.26717559,1.4122137,2019-08-05 14:02:10,2.0
574.0,0.0017700195,-0.12548828,-0.016479492,-0.34351146,1.259542,0.6946565,2019-08-05 14:02:10,2.0
575.0,0.0034790040000000004,-0.12268066400000001,-0.013671875,0.610687,1.4656489,-0.6183206,2019-08-05 14:02:10,2.0
576.0,-0.0017700195,-0.128479,-0.022888184,-4.625954,0.55725193,-0.9847328000000002,2019-08-05 14:02:10,2.0
577.0,0.0064086914,-0.12420654,-0.013366699,-1.1984733,1.8778626,-1.4961832,2019-08-05 14:02:10,2.0
578.0,0.005065918,-0.12286377,-0.014038086000000002,1.4351145,1.2061069,-2.480916,2019-08-05 14:02:10,2.0
579.0,0.0053100586,-0.12188721,-0.005859375,-3.3282442000000003,1.4198473999999999,-2.2824428,2019-08-05 14:02:10,2.0
580.0,0.00579834,-0.11694336,-0.016174316,-3.2748091,4.1984735,-1.9389313000000001,2019-08-05 14:02:10,2.0
581.0,0.0015258789000000001,-0.12579346,-0.020263672,2.2595419999999997,1.9465648999999998,0.16793893,2019-08-05 14:02:10,2.0
582.0,0.0032348633000000003,-0.11566162,-0.012756348,-1.9236640999999999,1.0076336,0.5496183000000001,2019-08-05 14:02:10,2.0
583.0,0.0048828125,-0.12249756,-0.017089844,-5.740458,1.351145,-0.35877863,2019-08-05 14:02:10,2.0
584.0,0.00579834,-0.12823486,-0.01727295,-2.2824428,3.221374,-0.41221374,2019-08-05 14:02:10,2.0
585.0,0.005126953,-0.12609863,-0.013061523,-1.5114504,1.0687023,0.6183206,2019-08-05 14:02:10,2.0
586.0,0.0025024414000000004,-0.12298584,-0.011230469,-4.335878,1.4351145,1.0229008,2019-08-05 14:02:10,2.0
587.0,0.0014038085999999999,-0.12445068,-0.01171875,-3.29771,1.0229008,0.9312976999999999,2019-08-05 14:02:10,2.0
588.0,0.0026245116999999997,-0.12634277,-0.008178711,-0.045801528,2.1755726,1.8091604,2019-08-05 14:02:10,2.0
589.0,-0.002319336,-0.12017822,-0.01171875,-0.41984734,0.6183206,-2.5419848,2019-08-05 14:02:10,2.0
590.0,0.005065918,-0.13269043,-0.019042969,-5.076336,0.8778626,-1.3435115,2019-08-05 14:02:10,2.0
591.0,-0.00012207031000000001,-0.13165283,-0.01574707,0.45038167,2.8778627,-2.2290077,2019-08-05 14:02:10,2.0
592.0,0.0049438477,-0.11553955,-0.00579834,0.70229006,1.5267175,-0.015267176,2019-08-05 14:02:10,2.0
593.0,0.0052490233999999995,-0.12713623,-0.0079956055,-4.0076336999999995,0.13740458,0.45038167,2019-08-05 14:02:10,2.0
594.0,0.0031738281,-0.12683105,-0.016540527,-4.557252,2.9541984,1.0229008,2019-08-05 14:02:10,2.0
595.0,0.0020141601999999997,-0.12384033,-0.010070800999999999,0.5801527,0.9694656999999999,2.129771,2019-08-05 14:02:10,2.0
596.0,0.00042724610000000003,-0.12152099599999999,-0.019714355,-2.2595419999999997,0.52671754,-0.07633588,2019-08-05 14:02:10,2.0
597.0,0.0045776367,-0.12701416,-0.008911133,-6.2900763,2.2824428,0.22137405,2019-08-05 14:02:10,2.0
598.0,-0.001159668,-0.12567139,-0.012329102,-1.3282443000000002,4.2061067,1.0610687,2019-08-05 14:02:10,2.0
599.0,0.004028320300000001,-0.12371826,-0.011108398,-1.519084,2.572519,-2.3969467,2019-08-05 14:02:10,2.0
600.0,0.006958008000000001,-0.12365723,-0.01751709,-1.7709924,1.1374046,-1.2824427,2019-08-05 14:02:10,2.0
601.0,-0.0012207030999999999,-0.125,-0.008483886999999999,-3.6641220000000003,2.3358779999999997,-0.122137405,2019-08-05 14:02:10,2.0
602.0,-0.0007324219,-0.12182617,-0.0075683593999999995,0.41984734,2.908397,-1.0992366000000002,2019-08-05 14:02:10,2.0
603.0,0.00793457,-0.12054443,-0.012145996000000001,-2.7175572,-1.2137405,-0.03816794,2019-08-05 14:02:11,2.0
604.0,0.008850098,-0.1239624,-0.009765625,-4.114504,2.7404580000000003,-2.183206,2019-08-05 14:02:11,2.0
605.0,-0.0025024414000000004,-0.12286377,-0.01184082,1.2824427,2.70229,-1.7786259999999998,2019-08-05 14:02:11,2.0
606.0,0.0038452148,-0.123046875,-0.012756348,1.1526718,0.9236641,-0.20610687,2019-08-05 14:02:11,2.0
607.0,0.0045166016,-0.12628174,-0.012084961000000002,-4.946564700000001,1.0839695,-0.90076333,2019-08-05 14:02:11,2.0
608.0,0.0031738281,-0.123046875,-0.010681152,-5.2977099999999995,4.4656487,-0.9847328000000002,2019-08-05 14:02:11,2.0
609.0,0.0079956055,-0.12432861,-0.010437011999999999,-0.41221374,1.7633588,-1.70229,2019-08-05 14:02:11,2.0
610.0,0.0006713867,-0.12322998,-0.014831543,-2.6488549999999997,1.038168,-1.4122137,2019-08-05 14:02:11,2.0
611.0,0.0030517578000000003,-0.12774658,-0.016357422,-6.335878,3.6793892,-1.4427481000000002,2019-08-05 14:02:11,2.0
612.0,-0.0028686523,-0.11981201,-0.020324707,-1.7786259999999998,1.9160305,0.18320611,2019-08-05 14:02:11,2.0
613.0,0.0025024414000000004,-0.12408447,-0.012512207,-1.259542,-0.52671754,-0.22137405,2019-08-05 14:02:11,2.0
614.0,0.0,-0.13232422,-0.013977051,-3.1145039,2.7633588,-0.5496183000000001,2019-08-05 14:02:11,2.0
615.0,0.0024414061999999998,-0.12841797,-0.01940918,-3.3435113,3.3053436,0.16793893,2019-08-05 14:02:11,2.0
616.0,0.0007324219,-0.11828613,-0.0107421875,0.8702290000000001,0.6335878,-0.96183205,2019-08-05 14:02:11,2.0
617.0,0.0020141601999999997,-0.12652588,-0.0154418945,-3.3435113,0.6488550000000001,-0.38167940000000006,2019-08-05 14:02:11,2.0
618.0,-0.0015258789000000001,-0.12890625,-0.018432617,-5.984732599999999,4.145038,-0.6793893,2019-08-05 14:02:11,2.0
619.0,0.0025634766,-0.11645508,-0.014343261999999999,1.221374,2.0610688,0.29007635,2019-08-05 14:02:11,2.0
620.0,0.008056641,-0.12786865,-0.0107421875,-1.1221374,-0.32061067,-0.35114503,2019-08-05 14:02:11,2.0
621.0,-0.00091552734,-0.12390137,-0.013977051,-4.7709923,1.8167938999999997,-1.1374046,2019-08-05 14:02:11,2.0
622.0,0.00036621094,-0.1262207,-0.01928711,-1.5267175,3.7328242999999994,0.5038168,2019-08-05 14:02:11,2.0
623.0,0.0024414061999999998,-0.113464355,-0.0119018555,-1.9083970000000001,1.4274809,-2.8931298,2019-08-05 14:02:11,2.0
624.0,-0.0013427734,-0.12701416,-0.017822266,-1.9312977,2.5038167999999996,-2.3282442000000003,2019-08-05 14:02:11,2.0
625.0,-0.0014648438,-0.12200928,-0.016540527,-2.8778627,4.1679387000000006,-0.5648854999999999,2019-08-05 14:02:11,2.0
626.0,0.001953125,-0.115112305,-0.010986328,-1.0687023,-0.23664123,-3.4122138,2019-08-05 14:02:11,2.0
627.0,0.0026855469,-0.13000488,-0.014587402,-1.6793894,1.7175573,-1.3129771000000001,2019-08-05 14:02:11,2.0
628.0,0.0045776367,-0.123535156,-0.008300781,-0.26717559,3.221374,-1.2900764,2019-08-05 14:02:11,2.0
629.0,-0.0018310547,-0.12322998,-0.014038086000000002,-2.091603,0.41984734,-1.221374,2019-08-05 14:02:11,2.0
630.0,0.006652831999999999,-0.12145996,-0.017150878999999997,-1.1603054,-0.053435113,-2.2366412,2019-08-05 14:02:11,2.0
631.0,-0.0010375977,-0.13049316,-0.01159668,-3.7557251000000003,4.076336,-1.1526718,2019-08-05 14:02:11,2.0
632.0,0.001953125,-0.12170410000000002,-0.011474608999999998,-3.5496182000000003,1.1984733,4.053435299999999,2019-08-05 14:02:11,2.0
633.0,0.0049438477,-0.1182251,-0.015808105,-2.6717557999999997,-0.53435117,-0.6488550000000001,2019-08-05 14:02:11,2.0
634.0,-0.0010986328,-0.12738037,-0.018188476999999998,-1.4274809,3.7251909,-3.5038167999999996,2019-08-05 14:02:11,2.0
635.0,0.0006713867,-0.12719727,-0.016052246000000003,-0.8091603,2.8473282,-0.7099236999999999,2019-08-05 14:02:11,2.0
636.0,0.003112793,-0.12438965,-0.01751709,-1.4580153,0.03816794,-1.4961832,2019-08-05 14:02:11,2.0
637.0,0.00390625,-0.12652588,-0.0079956055,-0.8244275,2.9541984,-3.5648854,2019-08-05 14:02:11,2.0
638.0,0.0016479492000000002,-0.12945557,-0.01361084,-2.6259542000000002,3.7557251000000003,-2.1145039,2019-08-05 14:02:12,2.0
639.0,-0.00036621094,-0.11639404,-0.011413574,-3.6717557999999997,2.3435113,-1.4045801000000002,2019-08-05 14:02:12,2.0
640.0,0.0028686523,-0.12438965,-0.0126953125,-4.335878,-1.1145038999999999,0.46564886,2019-08-05 14:02:12,2.0
641.0,0.007507324,-0.12664795,-0.010314941,-1.6412214,4.40458,-3.59542,2019-08-05 14:02:12,2.0
642.0,0.007873535,-0.121276855,-0.01763916,1.5419847,1.7099236,-2.2595419999999997,2019-08-05 14:02:12,2.0
643.0,0.0,-0.12145996,-0.016784668,-4.396946400000001,-0.26717559,0.2519084,2019-08-05 14:02:12,2.0
644.0,0.003540039,-0.12231445,-0.009155273,-3.4427480000000004,3.3435113,-4.1221375,2019-08-05 14:02:12,2.0
645.0,0.011291503999999999,-0.12866211,-0.015258788999999998,1.1832061000000003,3.1908397999999996,-1.5648855,2019-08-05 14:02:12,2.0
646.0,0.005859375,-0.12298584,-0.016296387,-5.2824425999999995,3.129771,0.9465648999999999,2019-08-05 14:02:12,2.0
647.0,0.005004883,-0.12329101599999999,-0.015197753999999999,-3.3358779999999997,2.870229,-1.8931297999999999,2019-08-05 14:02:12,2.0
648.0,0.0010375977,-0.12841797,-0.0064086914,-0.045801528,3.9160306000000005,-0.73282444,2019-08-05 14:02:12,2.0
649.0,0.0032958984000000004,-0.12176514,-0.015625,0.5038168,1.0763359,-2.3053436,2019-08-05 14:02:12,2.0
650.0,0.0025024414000000004,-0.12384033,-0.014404297,-3.351145,0.5648854999999999,-1.1068702,2019-08-05 14:02:12,2.0
651.0,0.0095825195,-0.121154785,-0.0138549805,-3.7404580000000003,3.4198472,-1.8015267,2019-08-05 14:02:12,2.0
652.0,0.003112793,-0.12322998,-0.012268066000000001,-5.3816795,1.9007633999999998,4.6183205,2019-08-05 14:02:12,2.0
653.0,0.0028076171999999997,-0.12152099599999999,-0.019592285,-1.7480916000000002,-0.20610687,1.6335878000000001,2019-08-05 14:02:12,2.0
654.0,0.003112793,-0.12298584,-0.0068359375,-5.114504,4.89313,-2.557252,2019-08-05 14:02:12,2.0
655.0,0.00030517577999999995,-0.11975098,-0.011047363000000001,-1.1755725000000001,4.183206,0.73282444,2019-08-05 14:02:12,2.0
656.0,0.004272461,-0.124938965,-0.007446289,0.22900763,-0.32824427,0.31297709999999995,2019-08-05 14:02:12,2.0
657.0,0.0038452148,-0.12445068,-0.015014648,-5.603053599999999,3.0076337000000004,-3.4961832000000004,2019-08-05 14:02:12,2.0
658.0,0.003967285,-0.12249756,-0.017456055,-2.946565,3.091603,0.39694658,2019-08-05 14:02:12,2.0
659.0,0.002380371,-0.11968994,-0.014099121000000001,0.28244275,0.4427481,0.32061067,2019-08-05 14:02:12,2.0
660.0,0.004760742,-0.12243652,-0.013549805,-3.038168,0.18320611,-0.6946565,2019-08-05 14:02:12,2.0
661.0,0.008605957,-0.12963867,-0.013427733999999998,-5.328244000000001,5.5648856,-0.5114504,2019-08-05 14:02:12,2.0
662.0,0.0025634766,-0.12457275400000001,-0.015014648,-2.091603,1.1221374,1.221374,2019-08-05 14:02:12,2.0
663.0,0.007446289,-0.119262695,-0.013183594,0.57251906,-0.35877863,0.099236645,2019-08-05 14:02:12,2.0
664.0,0.0032348633000000003,-0.12713623,-0.008422852,-2.5877862,4.7938933,-1.0076336,2019-08-05 14:02:12,2.0
665.0,0.0012207030999999999,-0.11834717,-0.010131836,-3.7099237,1.9236640999999999,-1.1297709999999999,2019-08-05 14:02:12,2.0
666.0,0.007629394499999999,-0.12207031,-0.012573242,-2.1450381000000003,0.053435113,-0.07633588,2019-08-05 14:02:12,2.0
667.0,-0.0005493164,-0.12475586,-0.01727295,-1.8167938999999997,1.9236640999999999,-2.3664122000000005,2019-08-05 14:02:12,2.0
668.0,0.0026855469,-0.1307373,-0.012329102,-1.038168,3.1374047000000003,0.16030534,2019-08-05 14:02:12,2.0
669.0,-0.0007324219,-0.12170410000000002,-0.016784668,-2.5877862,2.7404580000000003,-1.0992366000000002,2019-08-05 14:02:12,2.0
670.0,0.007690429699999999,-0.1274414,-0.020568848,-0.9541985000000001,1.8167938999999997,-1.9389313000000001,2019-08-05 14:02:12,2.0
671.0,0.0014648438,-0.13287354,-0.009521484,-3.4198472,3.4732822999999997,1.4274809,2019-08-05 14:02:12,2.0
672.0,0.003540039,-0.11932373,-0.014953613000000001,2.6564887,1.0076336,-1.9083970000000001,2019-08-05 14:02:12,2.0
673.0,0.001159668,-0.1303711,-0.01574707,-2.6564887,-0.015267176,0.31297709999999995,2019-08-05 14:02:13,2.0
674.0,0.0049438477,-0.12194824,-0.020141601999999998,-3.6641220000000003,2.167939,-1.2366412,2019-08-05 14:02:13,2.0
675.0,0.0018920898,-0.12725830000000002,-0.012451172,-1.8320610000000002,2.3816792999999996,-0.45038167,2019-08-05 14:02:13,2.0
676.0,0.0037841796999999997,-0.11657715,-0.013366699,-1.6030535,1.4656489,0.45038167,2019-08-05 14:02:13,2.0
677.0,0.0065307617,-0.12591553,-0.009460449000000001,-1.8015267,0.9312976999999999,-0.49618322,2019-08-05 14:02:13,2.0
678.0,0.007629394499999999,-0.12390137,-0.012390136999999999,-1.0610687,4.5496182,-0.6183206,2019-08-05 14:02:13,2.0
679.0,0.00982666,-0.13018799,-0.022094727,-3.3816792999999996,0.64122134,-1.4656489,2019-08-05 14:02:13,2.0
680.0,0.0026855469,-0.12652588,-0.010681152,-3.038168,0.7633588000000001,-1.2442749,2019-08-05 14:02:13,2.0
681.0,0.003967285,-0.13061523,-0.016479492,1.5877863,3.8931297999999996,-1.5343511,2019-08-05 14:02:13,2.0
682.0,0.003112793,-0.12390137,-0.010864258,-4.7022900000000005,1.4961832,0.8396947,2019-08-05 14:02:13,2.0
683.0,0.0012817383,-0.121154785,-0.019226074,-4.473282299999999,-0.90839696,-1.8167938999999997,2019-08-05 14:02:13,2.0
684.0,0.0043945312,-0.12426758,-0.015136719,-1.6793894,5.053435299999999,-1.3816794,2019-08-05 14:02:13,2.0
685.0,0.0006713867,-0.12658691,-0.014343261999999999,0.129771,0.5954198,1.6641221000000002,2019-08-05 14:02:13,2.0
686.0,0.003967285,-0.12109375,-0.011169433999999999,-2.7404580000000003,1.5496184,-0.47328246,2019-08-05 14:02:13,2.0
687.0,0.006652831999999999,-0.12182617,-0.010498047,-3.0229008,2.6488549999999997,-2.167939,2019-08-05 14:02:13,2.0
688.0,0.0078125,-0.123535156,-0.016479492,1.6717557,4.4961834000000005,-1.3053435,2019-08-05 14:02:13,2.0
689.0,-0.0025634766,-0.12005615,-0.017578125,-3.8473281999999998,1.7251908999999999,2.389313,2019-08-05 14:02:13,2.0
690.0,0.003967285,-0.11877441400000001,-0.018249512,-0.610687,0.6870229,-4.0305343,2019-08-05 14:02:13,2.0
691.0,0.0014038085999999999,-0.13305664,-0.013122558999999999,-4.6870227,4.236641400000001,-0.5496183000000001,2019-08-05 14:02:13,2.0
692.0,0.0025634766,-0.12133789,-0.009643555,0.34351146,1.3435115,-0.610687,2019-08-05 14:02:13,2.0
693.0,0.0053100586,-0.12475586,-0.013427733999999998,-4.3893127,0.60305345,0.259542,2019-08-05 14:02:13,2.0
694.0,0.0025024414000000004,-0.124816895,-0.013549805,-3.5496182000000003,1.7404580000000003,-2.4045799999999997,2019-08-05 14:02:13,2.0
695.0,0.0008544922000000001,-0.12060547,-0.0073242188,-0.48091602,3.0,-1.6793894,2019-08-05 14:02:13,2.0
696.0,0.002319336,-0.13018799,-0.01940918,-3.3740457999999998,0.21374045,2.7099237,2019-08-05 14:02:13,2.0
697.0,0.0051879883,-0.12695312,-0.011169433999999999,2.1145039,4.9160304,-5.8320612999999994,2019-08-05 14:02:13,2.0
698.0,0.003967285,-0.12200928,-0.018188476999999998,-4.2900763,4.5648856,-1.7404580000000003,2019-08-05 14:02:13,2.0
699.0,0.0040893555,-0.1194458,-0.014404297,-1.1526718,0.47328246,1.2290076,2019-08-05 14:02:13,2.0
700.0,0.0049438477,-0.12670898,-0.012329102,-5.038168,1.9236640999999999,-3.206107,2019-08-05 14:02:13,2.0
701.0,0.004638672,-0.12866211,-0.01586914,-4.2977099999999995,3.221374,-0.77099234,2019-08-05 14:02:13,2.0
702.0,0.004272461,-0.12042236,-0.008239746,0.053435113,-0.45801526,1.9923664,2019-08-05 14:02:13,2.0
703.0,0.0021972656,-0.12036133,-0.022155762000000002,-0.7557252,-0.36641222,-0.49618322,2019-08-05 14:02:13,2.0
704.0,0.00970459,-0.12054443,-0.014099121000000001,-4.343511599999999,3.8015267999999995,-2.6335877999999995,2019-08-05 14:02:13,2.0
705.0,0.008728027,-0.12261963,-0.019104003999999997,-1.4351145,2.6488549999999997,1.2290076,2019-08-05 14:02:13,2.0
706.0,0.0031738281,-0.11816406,-0.018493652,0.35114503,-0.053435113,0.6259541999999999,2019-08-05 14:02:13,2.0
707.0,0.0036621094,-0.13024902,-0.012023926,-3.4885497,3.4809160000000006,-2.1603053,2019-08-05 14:02:13,2.0
708.0,0.004699707,-0.12585449,-0.007873535,-4.4274807,2.3664122000000005,1.7938931,2019-08-05 14:02:13,2.0
709.0,0.008300781,-0.12011719,-0.017211914,0.71755725,0.34351146,0.47328246,2019-08-05 14:02:13,2.0
710.0,0.0032348633000000003,-0.13049316,-0.011962891000000002,-2.2442749,1.3969465,-0.77099234,2019-08-05 14:02:14,2.0
711.0,0.004028320300000001,-0.12945557,-0.011474608999999998,-1.5419847,3.038168,-0.43511450000000007,2019-08-05 14:02:14,2.0
712.0,-0.0012817383,-0.11706543,-0.019042969,-0.14503817,2.2748091,2.2366412,2019-08-05 14:02:14,2.0
713.0,0.0034790040000000004,-0.12139892599999999,-0.013061523,-1.8473282,0.8396947,-1.4503816,2019-08-05 14:02:14,2.0
714.0,0.0033569335999999996,-0.125,-0.014099121000000001,-3.7557251000000003,2.5954200000000003,-0.14503817,2019-08-05 14:02:14,2.0
715.0,0.002319336,-0.12078857400000001,-0.013977051,-2.312977,2.4198472,1.1832061000000003,2019-08-05 14:02:14,2.0
716.0,0.0,-0.11950683599999999,-0.009094238000000001,-1.1145038999999999,1.221374,0.6793893,2019-08-05 14:02:14,2.0
717.0,0.0026855469,-0.13116455,-0.005859375,-2.1755726,1.7557251,-2.7557251,2019-08-05 14:02:14,2.0
718.0,-0.00012207031000000001,-0.12548828,-0.016967773000000002,-2.29771,2.29771,2.0458016,2019-08-05 14:02:14,2.0
719.0,-0.0007324219,-0.12200928,-0.010314941,-4.2290077,0.122137405,0.114503816,2019-08-05 14:02:14,2.0
720.0,0.008850098,-0.1239624,-0.01763916,0.8091603,2.2137403,-2.442748,2019-08-05 14:02:14,2.0
721.0,0.0025634766,-0.13012695,-0.012573242,1.038168,3.946565,0.17557251,2019-08-05 14:02:14,2.0
722.0,0.004028320300000001,-0.12005615,-0.009765625,-4.038168,0.122137405,1.4274809,2019-08-05 14:02:14,2.0
723.0,0.0048217773,-0.12249756,-0.017089844,-0.6488550000000001,0.5801527,-1.5954198999999998,2019-08-05 14:02:14,2.0
724.0,0.0030517578000000003,-0.13378906,-0.015197753999999999,-1.0534351,2.519084,-1.4961832,2019-08-05 14:02:14,2.0
725.0,6.1035155999999994e-05,-0.12237549,-0.023925781,-2.3282442000000003,3.1068702,1.2519083999999998,2019-08-05 14:02:14,2.0
726.0,0.0075683593999999995,-0.11975098,-0.012023926,-2.1145039,1.4198473999999999,-0.9160305000000001,2019-08-05 14:02:14,2.0
727.0,0.0061035156000000005,-0.13049316,-0.011230469,-2.687023,2.9847328999999996,-2.0076337,2019-08-05 14:02:14,2.0
728.0,0.006591797,-0.1260376,-0.015625,-0.610687,3.1068702,-0.030534351,2019-08-05 14:02:14,2.0
729.0,-6.1035155999999994e-05,-0.11975098,-0.013916016000000002,-3.5267177000000003,1.8396946,0.08396947,2019-08-05 14:02:14,2.0
730.0,0.0044555664,-0.12084961,-0.010009766,-2.0305343000000002,0.28244275,0.6183206,2019-08-05 14:02:14,2.0
731.0,0.004638672,-0.13330078,-0.01953125,0.07633588,3.4503817999999997,-1.6870228999999999,2019-08-05 14:02:14,2.0
732.0,0.007080078,-0.11761474599999999,-0.013061523,-1.6870228999999999,1.6030535,-0.8167939000000001,2019-08-05 14:02:14,2.0
733.0,0.0052490233999999995,-0.12420654,-0.012939453,-2.5267177000000003,0.20610687,0.15267175,2019-08-05 14:02:14,2.0
734.0,0.0029296875,-0.12756348,-0.012817383,0.20610687,3.4809160000000006,-1.5419847,2019-08-05 14:02:14,2.0
735.0,0.0025024414000000004,-0.12658691,-0.015136719,0.41984734,2.793893,-0.38167940000000006,2019-08-05 14:02:14,2.0
736.0,0.0015258789000000001,-0.13079834,-0.013427733999999998,-4.946564700000001,1.4198473999999999,-1.0610687,2019-08-05 14:02:14,2.0
737.0,0.006286621,-0.12243652,-0.013122558999999999,-3.923664,2.8854961,-3.5572519999999996,2019-08-05 14:02:14,2.0
738.0,0.0015258789000000001,-0.12921143,-0.014404297,1.1755725000000001,2.5877862,-0.6335878,2019-08-05 14:02:14,2.0
739.0,0.0015869141,-0.12017822,-0.019104003999999997,-2.2671757,0.55725193,2.0076337,2019-08-05 14:02:14,2.0
740.0,0.00592041,-0.12426758,-0.016784668,-4.076336,0.41984734,-1.9312977,2019-08-05 14:02:14,2.0
741.0,0.0045166016,-0.12365723,-0.015258788999999998,0.03816794,4.412214,-2.0458016,2019-08-05 14:02:14,2.0
742.0,0.0037841796999999997,-0.12414551,-0.015197753999999999,-0.030534351,3.4427480000000004,-0.77862597,2019-08-05 14:02:14,2.0
743.0,0.005065918,-0.12286377,-0.014465332,-2.9847328999999996,0.45801526,-0.24427481,2019-08-05 14:02:14,2.0
744.0,0.0017700195,-0.12261963,-0.00982666,-3.8244274,4.3587785000000006,-3.2290077,2019-08-05 14:02:15,2.0
745.0,-0.0032958984000000004,-0.12652588,-0.017150878999999997,-1.0458015,2.7251909,-1.0229008,2019-08-05 14:02:15,2.0
746.0,0.0007934570299999999,-0.12152099599999999,-0.012023926,-2.3511450000000003,0.7251908,0.8091603,2019-08-05 14:02:15,2.0
747.0,0.0087890625,-0.12261963,-0.010986328,-7.4198475,3.7633588,-3.5572519999999996,2019-08-05 14:02:15,2.0
748.0,0.007446289,-0.12585449,-0.017028809,-0.38931298,2.946565,0.9389313,2019-08-05 14:02:15,2.0
749.0,0.00592041,-0.122558594,-0.013183594,-0.22900763,1.961832,-1.7099236,2019-08-05 14:02:15,2.0
750.0,0.0052490233999999995,-0.12078857400000001,-0.011413574,-5.0839696,2.053435,-4.5114503,2019-08-05 14:02:15,2.0
751.0,0.005432129,-0.12390137,-0.01776123,-3.4198472,2.5954200000000003,-1.2137405,2019-08-05 14:02:15,2.0
752.0,0.00970459,-0.12152099599999999,-0.009887695,-0.06870229,2.8396947,-0.48091602,2019-08-05 14:02:15,2.0
753.0,0.007080078,-0.12670898,-0.0126953125,-2.816794,0.39694658,-1.0534351,2019-08-05 14:02:15,2.0
754.0,0.0038452148,-0.12005615,-0.014038086000000002,-2.6488549999999997,3.40458,-1.4732825,2019-08-05 14:02:15,2.0
755.0,0.00042724610000000003,-0.1262207,-0.012878418,-2.7862597,2.4580152,0.77099234,2019-08-05 14:02:15,2.0
756.0,0.0078125,-0.120910645,-0.014526367,-2.0,0.8549618,0.6335878,2019-08-05 14:02:15,2.0
757.0,0.004272461,-0.12176514,-0.010253906,-1.8931297999999999,3.183206,-1.5877863,2019-08-05 14:02:15,2.0
758.0,0.0064697266000000005,-0.12866211,-0.014953613000000001,-3.6183207000000004,3.6717557999999997,-0.13740458,2019-08-05 14:02:15,2.0
759.0,0.00024414062000000002,-0.11779785,-0.012023926,0.47328246,0.57251906,0.3053435,2019-08-05 14:02:15,2.0
760.0,0.0034179688000000002,-0.13092041,-0.014526367,-0.8167939000000001,2.076336,-2.7633588,2019-08-05 14:02:15,2.0
761.0,-0.00018310547,-0.12762451,-0.018859863,-4.5725193,4.2748094000000005,-0.5954198,2019-08-05 14:02:15,2.0
762.0,0.003967285,-0.1194458,-0.014892578,-0.8854962,2.2442749,0.33587787,2019-08-05 14:02:15,2.0
763.0,0.007690429699999999,-0.12237549,-0.004699707,-1.0534351,1.0076336,-2.4122138,2019-08-05 14:02:15,2.0
764.0,0.0014038085999999999,-0.13012695,-0.020751953,-3.5572519999999996,4.236641400000001,-1.7633588,2019-08-05 14:02:15,2.0
765.0,0.0033569335999999996,-0.12213135,-0.014221191000000001,-3.2671757,2.0,0.97709924,2019-08-05 14:02:15,2.0
766.0,0.0008544922000000001,-0.12390137,-0.012329102,1.389313,0.96183205,0.48091602,2019-08-05 14:02:15,2.0
767.0,0.0051879883,-0.12762451,-0.009033203,-4.526717700000001,0.35877863,-0.9465648999999999,2019-08-05 14:02:15,2.0
768.0,-0.0018310547,-0.12695312,-0.014953613000000001,-2.3816792999999996,4.480916000000001,-1.0,2019-08-05 14:02:15,2.0
769.0,0.002746582,-0.12365723,-0.017150878999999997,-1.8702290000000001,1.2137405,0.5114504,2019-08-05 14:02:15,2.0
770.0,0.004333496,-0.128479,-0.012878418,-2.038168,1.1221374,-3.8625953,2019-08-05 14:02:15,2.0
771.0,0.008544922,-0.1303711,-0.017944336,-0.29007635,4.59542,-1.0305344,2019-08-05 14:02:15,2.0
772.0,0.003967285,-0.12866211,-0.014892578,-3.0,2.8625952999999997,-0.030534351,2019-08-05 14:02:15,2.0
773.0,0.007446289,-0.12567139,-0.016357422,-2.5954200000000003,1.1526718,-0.77099234,2019-08-05 14:02:15,2.0
774.0,0.0032958984000000004,-0.12713623,-0.014343261999999999,-0.15267175,2.70229,-1.8549619,2019-08-05 14:02:15,2.0
775.0,0.0014648438,-0.12939453,-0.0138549805,-2.7633588,3.1984732000000005,1.038168,2019-08-05 14:02:15,2.0
776.0,0.0068359375,-0.12261963,-0.018249512,-2.1526718,1.7404580000000003,-0.007633588,2019-08-05 14:02:15,2.0
777.0,0.0010986328,-0.12390137,-0.007629394499999999,-1.3740458,2.3969467,-3.9541983999999997,2019-08-05 14:02:15,2.0
778.0,-6.1035155999999994e-05,-0.13061523,-0.023071289,-0.58778626,3.7099237,-2.4351146,2019-08-05 14:02:15,2.0
779.0,0.004211426,-0.12609863,-0.0134887695,-4.603053599999999,2.6335877999999995,0.20610687,2019-08-05 14:02:15,2.0
780.0,0.004638672,-0.12384033,-0.020080566,0.6183206,1.1679389999999998,-0.122137405,2019-08-05 14:02:15,2.0
781.0,0.006591797,-0.1281128,-0.010925293,-2.5648854,4.5114503,-3.4351146,2019-08-05 14:02:16,2.0
782.0,-0.0006713867,-0.12628174,-0.022216797000000003,-2.557252,2.2671757,0.79389316,2019-08-05 14:02:16,2.0
783.0,0.0040893555,-0.12072754,-0.011108398,-1.480916,0.3053435,1.4656489,2019-08-05 14:02:16,2.0
784.0,0.007385254,-0.12457275400000001,-0.0119018555,-1.9847328999999998,1.7938931,-3.2671757,2019-08-05 14:02:16,2.0
785.0,0.0032348633000000003,-0.12890625,-0.010620117,-0.48854962,3.3358779999999997,-0.122137405,2019-08-05 14:02:16,2.0
786.0,0.005004883,-0.11993408,-0.0067749023,-5.4580154,-0.03816794,0.19083970000000003,2019-08-05 14:02:16,2.0
787.0,0.002380371,-0.12518310000000002,-0.013427733999999998,-2.4961832000000004,2.5648854,-2.961832,2019-08-05 14:02:16,2.0
788.0,0.00042724610000000003,-0.12573242,-0.012145996000000001,0.38167940000000006,4.0152674,-4.091603299999999,2019-08-05 14:02:16,2.0
789.0,0.0029907227,-0.12188721,-0.014160156,-3.0152671000000004,2.3358779999999997,0.48854962,2019-08-05 14:02:16,2.0
790.0,0.006225586,-0.12384033,-0.016174316,-3.3435113,1.0076336,-1.5572518999999998,2019-08-05 14:02:16,2.0
791.0,0.0073242188,-0.12860107,-0.010009766,-0.259542,4.5419846,0.2519084,2019-08-05 14:02:16,2.0
792.0,0.0056152343999999995,-0.12768555,-0.014465332,0.60305345,2.4961832000000004,0.7557252,2019-08-05 14:02:16,2.0
793.0,0.004638672,-0.11993408,-0.0119018555,-2.1526718,0.86259544,0.099236645,2019-08-05 14:02:16,2.0
794.0,0.00036621094,-0.12341308599999999,-0.012634277,-3.3740457999999998,2.1526718,-0.9160305000000001,2019-08-05 14:02:16,2.0
795.0,0.0036010741999999997,-0.12823486,-0.013671875,0.65648854,3.2137403,-0.14503817,2019-08-05 14:02:16,2.0
796.0,0.0014038085999999999,-0.12408447,-0.011657715,-3.0458016,2.4045799999999997,0.610687,2019-08-05 14:02:16,2.0
797.0,0.0056152343999999995,-0.12249756,-0.016113281,-5.335878,1.4961832,-1.1221374,2019-08-05 14:02:16,2.0
798.0,0.007507324,-0.122924805,-0.0095825195,0.9389313,4.0610685,-2.5496182000000003,2019-08-05 14:02:16,2.0
799.0,0.001159668,-0.11889648400000001,-0.017578125,-0.8015267,1.6870228999999999,-0.57251906,2019-08-05 14:02:16,2.0
800.0,0.0068969727,-0.13031006,-0.0126953125,-3.8244274,1.4351145,-0.8549618,2019-08-05 14:02:16,2.0
801.0,0.0006713867,-0.12414551,-0.021240234,-4.7862597000000004,3.946565,-1.0610687,2019-08-05 14:02:16,2.0
802.0,-0.004638672,-0.12713623,-0.014404297,1.8778626,1.1145038999999999,-0.7633588000000001,2019-08-05 14:02:16,2.0
803.0,0.0013427734,-0.120910645,-0.011962891000000002,-4.8396945,-0.3740458,0.46564886,2019-08-05 14:02:16,2.0
804.0,0.006042480500000001,-0.12298584,-0.008300781,-5.068702,2.3664122000000005,-3.6793892,2019-08-05 14:02:16,2.0
805.0,-0.0034179688000000002,-0.12066650400000001,-0.01373291,-0.26717559,2.9389312000000003,1.2824427,2019-08-05 14:02:16,2.0
806.0,0.008544922,-0.12683105,-0.014587402,-1.8778626,0.022900764,0.007633588,2019-08-05 14:02:16,2.0
807.0,0.009338379,-0.12554932,-0.009521484,-3.534351,2.70229,-3.2442749,2019-08-05 14:02:16,2.0
808.0,-0.0041503906,-0.12530518,-0.012573242,-1.9389313000000001,2.6641220000000003,0.6259541999999999,2019-08-05 14:02:16,2.0
809.0,0.005676269499999999,-0.11645508,-0.023864746000000003,-1.2442749,2.70229,-1.0992366000000002,2019-08-05 14:02:16,2.0
810.0,0.003967285,-0.12152099599999999,-0.018981934,-1.5648855,1.4656489,-1.4122137,2019-08-05 14:02:16,2.0
811.0,0.0032348633000000003,-0.12902832,-0.01739502,-3.5038167999999996,4.816794,-1.9541985,2019-08-05 14:02:16,2.0
812.0,0.0029296875,-0.12054443,-0.011779785,-0.60305345,0.610687,1.8473282,2019-08-05 14:02:16,2.0
813.0,0.008850098,-0.12200928,-0.010864258,0.16793893,-0.46564886,1.1679389999999998,2019-08-05 14:02:16,2.0
814.0,0.0063476562,-0.13153076,-0.012634277,-3.9847328999999996,3.3129769999999996,-0.9694656999999999,2019-08-05 14:02:16,2.0
815.0,0.003540039,-0.11907959,-0.02178955,-4.3206105,3.534351,0.22137405,2019-08-05 14:02:16,2.0
816.0,-0.0030517578000000003,-0.12133789,-0.009155273,1.2061069,0.97709924,-0.26717559,2019-08-05 14:02:17,2.0
817.0,0.0078125,-0.124816895,-0.012817383,-3.8091602,2.206107,-1.9160305,2019-08-05 14:02:17,2.0
818.0,0.0012207030999999999,-0.123168945,-0.023925781,-3.6335877999999995,4.587786,-0.48091602,2019-08-05 14:02:17,2.0
819.0,-0.0006713867,-0.12066650400000001,-0.010620117,-0.5496183000000001,2.2824428,2.2137403,2019-08-05 14:02:17,2.0
820.0,0.0068969727,-0.12512207,-0.010681152,-2.5877862,0.3053435,-1.1984733,2019-08-05 14:02:17,2.0
821.0,0.00030517577999999995,-0.12408447,-0.010375977,-1.0305344,2.0610688,-2.3664122000000005,2019-08-05 14:02:17,2.0
822.0,0.00024414062000000002,-0.12335205,-0.018310547,-3.8854961,2.206107,-0.57251906,2019-08-05 14:02:17,2.0
823.0,0.008056641,-0.11895752,-0.021850586,-2.091603,0.86259544,-1.8702290000000001,2019-08-05 14:02:17,2.0
824.0,0.0075683593999999995,-0.12689209,-0.0078125,-1.8473282,2.8854961,-4.4351144,2019-08-05 14:02:17,2.0
825.0,0.0020141601999999997,-0.1260376,-0.014343261999999999,-0.97709924,4.4198474999999995,-0.07633588,2019-08-05 14:02:17,2.0
826.0,0.0022583008,-0.12506104,-0.016662598,-4.0610685,0.099236645,1.2519083999999998,2019-08-05 14:02:17,2.0
827.0,0.004272461,-0.12762451,-0.010925293,-1.2290076,3.4351146,-5.1603055,2019-08-05 14:02:17,2.0
828.0,0.0053710938,-0.12756348,-0.01574707,-0.84732825,3.2366412,0.84732825,2019-08-05 14:02:17,2.0
829.0,0.0038452148,-0.11730957,-0.016052246000000003,-3.9694656999999998,0.259542,0.27480915,2019-08-05 14:02:17,2.0
830.0,0.006042480500000001,-0.11694336,-0.014282227,-1.7328244,2.6488549999999997,-2.687023,2019-08-05 14:02:17,2.0
831.0,0.0028686523,-0.12835693,-0.016235351999999998,-0.78625953,2.1145039,-1.6335878000000001,2019-08-05 14:02:17,2.0
832.0,-0.00036621094,-0.12451172,-0.014160156,-2.6717557999999997,2.8931298,-1.3053435,2019-08-05 14:02:17,2.0
833.0,0.0016479492000000002,-0.12237549,-0.01373291,-2.610687,1.0458015,0.47328246,2019-08-05 14:02:17,2.0
834.0,0.008850098,-0.12878418,-0.01159668,-1.8549619,4.396946400000001,-2.6946564,2019-08-05 14:02:17,2.0
835.0,0.0038452148,-0.12585449,-0.012268066000000001,-0.8854962,3.4427480000000004,-0.23664123,2019-08-05 14:02:17,2.0
836.0,0.0043945312,-0.12194824,-0.008422852,-5.40458,0.45038167,0.519084,2019-08-05 14:02:17,2.0
837.0,0.011169433999999999,-0.11779785,-0.013549805,-2.8625952999999997,1.9312977,-0.99236643,2019-08-05 14:02:17,2.0
838.0,0.0008544922000000001,-0.12725830000000002,-0.014587402,0.9389313,3.6183207000000004,0.71755725,2019-08-05 14:02:17,2.0
839.0,0.0016479492000000002,-0.12182617,-0.011047363000000001,-1.9236640999999999,2.0610688,0.6488550000000001,2019-08-05 14:02:17,2.0
840.0,0.011413574,-0.123046875,-0.018615723,-4.6870227,0.48091602,-1.9083970000000001,2019-08-05 14:02:17,2.0
841.0,0.0012817383,-0.12524414,-0.0095825195,1.4580153,3.0610687999999997,0.20610687,2019-08-05 14:02:17,2.0
842.0,-0.0008544922000000001,-0.12414551,-0.011474608999999998,-0.41221374,1.0763359,-0.129771,2019-08-05 14:02:17,2.0
843.0,0.007873535,-0.12237549,-0.017333984,-3.5038167999999996,0.64122134,-0.022900764,2019-08-05 14:02:17,2.0
844.0,0.0068969727,-0.12249756,-0.008728027,-3.5114503,2.9312978,-1.0076336,2019-08-05 14:02:17,2.0
845.0,0.0030517578000000003,-0.12542725,-0.0107421875,-0.519084,1.9312977,0.7557252,2019-08-05 14:02:17,2.0
846.0,0.00018310547,-0.12475586,-0.022033691,-1.9770991999999998,0.06870229,1.9389313000000001,2019-08-05 14:02:17,2.0
847.0,0.004760742,-0.12786865,-0.013305663999999998,-3.4427480000000004,1.5419847,-1.5343511,2019-08-05 14:02:17,2.0
848.0,0.0013427734,-0.12402344,-0.019592285,0.27480915,4.0076336999999995,-1.4885496,2019-08-05 14:02:17,2.0
849.0,0.004760742,-0.117126465,-0.0115356445,-0.47328246,2.0687022,1.4351145,2019-08-05 14:02:17,2.0
850.0,0.005554199,-0.13262939999999998,-0.010681152,-4.603053599999999,1.038168,-1.1755725000000001,2019-08-05 14:02:17,2.0
851.0,0.0041503906,-0.12634277,-0.015625,-4.847328,3.1755726,-0.9694656999999999,2019-08-05 14:02:17,2.0
852.0,0.00042724610000000003,-0.121276855,-0.011047363000000001,1.7328244,0.7099236999999999,2.2900763,2019-08-05 14:02:17,2.0
853.0,0.0037231445,-0.12579346,-0.011230469,-2.9923662999999996,-0.015267176,1.3282443000000002,2019-08-05 14:02:18,2.0
854.0,0.005126953,-0.12561035,-0.015258788999999998,-4.557252,3.4351146,-2.7633588,2019-08-05 14:02:18,2.0
855.0,0.0034790040000000004,-0.12640381,-0.021484375,0.5648854999999999,2.793893,0.71755725,2019-08-05 14:02:18,2.0
856.0,0.0015869141,-0.12835693,-0.008056641,-0.5648854999999999,-0.5801527,0.7251908,2019-08-05 14:02:18,2.0
857.0,0.006164551,-0.12335205,-0.008422852,-5.473282299999999,1.091603,0.45801526,2019-08-05 14:02:18,2.0
858.0,-0.0005493164,-0.12432861,-0.0087890625,-1.8625953999999998,1.1221374,1.038168,2019-08-05 14:02:18,2.0
859.0,0.0018310547,-0.12036133,-0.01776123,1.8396946,0.4274809,0.66412216,2019-08-05 14:02:18,2.0
860.0,0.002380371,-0.11785889,-0.017211914,-2.3511450000000003,0.48854962,-2.3358779999999997,2019-08-05 14:02:18,2.0
861.0,0.0016479492000000002,-0.12261963,-0.009765625,-2.6259542000000002,4.4351144,-1.3587786,2019-08-05 14:02:18,2.0
862.0,0.0048217773,-0.11956787,-0.014526367,-2.8091602000000004,1.9847328999999998,1.8396946,2019-08-05 14:02:18,2.0
863.0,0.005493164,-0.12768555,-0.024597168,-1.0610687,-0.31297709999999995,-0.34351146,2019-08-05 14:02:18,2.0
864.0,0.0008544922000000001,-0.1352539,-0.019226074,-0.03816794,4.366412,-0.36641222,2019-08-05 14:02:18,2.0
865.0,0.0015258789000000001,-0.12445068,-0.012573242,-3.3282442000000003,2.3664122000000005,0.60305345,2019-08-05 14:02:18,2.0
866.0,0.0030517578000000003,-0.11895752,-0.016662598,0.07633588,-0.091603056,1.3053435,2019-08-05 14:02:18,2.0
867.0,-0.0006103515599999999,-0.13171387,-0.012084961000000002,-1.610687,1.7557251,-1.8702290000000001,2019-08-05 14:02:18,2.0
868.0,-0.004333496,-0.12640381,-0.008483886999999999,-3.2595419999999997,4.0992365,0.55725193,2019-08-05 14:02:18,2.0
869.0,0.0015258789000000001,-0.11621094,-0.012023926,-2.6641220000000003,0.38931298,0.8167939000000001,2019-08-05 14:02:18,2.0
870.0,0.005981445300000001,-0.12384033,-0.015991211,-1.259542,1.038168,-2.3969467,2019-08-05 14:02:18,2.0
871.0,0.0037231445,-0.12994385,-0.01373291,-1.6870228999999999,4.480916000000001,-1.0687023,2019-08-05 14:02:18,2.0
872.0,-0.0020141601999999997,-0.121276855,-0.020263672,-3.7251909,1.8015267,1.4961832,2019-08-05 14:02:18,2.0
873.0,0.005676269499999999,-0.12152099599999999,-0.0075683593999999995,-1.259542,1.3053435,0.015267176,2019-08-05 14:02:18,2.0
874.0,0.0037841796999999997,-0.12921143,-0.016540527,-3.7404580000000003,3.2519082999999998,-2.5496182000000003,2019-08-05 14:02:18,2.0
875.0,0.006713866999999999,-0.12786865,-0.027160645,-1.9694656000000004,1.6870228999999999,0.60305345,2019-08-05 14:02:18,2.0
876.0,0.0013427734,-0.12207031,-0.022766112999999998,-3.70229,1.2519083999999998,0.22900763,2019-08-05 14:02:18,2.0
877.0,0.009033203,-0.1317749,-0.016052246000000003,-1.4198473999999999,2.9312978,-2.8015267999999995,2019-08-05 14:02:18,2.0
878.0,0.0065307617,-0.12249756,-0.013366699,0.9847328000000002,3.923664,-2.9389312000000003,2019-08-05 14:02:18,2.0
879.0,0.0036621094,-0.11999512,-0.01550293,-2.3206108,2.442748,-1.3206106000000002,2019-08-05 14:02:18,2.0
880.0,-0.0020141601999999997,-0.12585449,-0.018737793,-0.9847328000000002,1.519084,-2.1755726,2019-08-05 14:02:18,2.0
881.0,-0.00036621094,-0.12646484,-0.012756348,-1.4045801000000002,4.2824425999999995,-2.0152671000000004,2019-08-05 14:02:18,2.0
882.0,-0.00024414062000000002,-0.11834717,-0.014099121000000001,-2.3816792999999996,1.8778626,1.5343511,2019-08-05 14:02:18,2.0
883.0,0.006286621,-0.12640381,-0.012329102,-1.4580153,-0.9465648999999999,-0.8549618,2019-08-05 14:02:18,2.0
884.0,0.0045166016,-0.12762451,-0.016479492,-0.9847328000000002,4.0076336999999995,-3.6870230000000004,2019-08-05 14:02:18,2.0
885.0,0.0036621094,-0.12896729,-0.007873535,-0.4274809,3.4122138,0.0,2019-08-05 14:02:18,2.0
886.0,0.0010986328,-0.12670898,-0.008605957,-3.038168,1.519084,0.28244275,2019-08-05 14:02:18,2.0
887.0,0.006164551,-0.12335205,-0.010986328,-4.328244000000001,2.3206108,-2.9312978,2019-08-05 14:02:18,2.0
888.0,0.0032348633000000003,-0.12695312,-0.016235351999999998,1.1984733,3.5725190000000002,-2.5954200000000003,2019-08-05 14:02:18,2.0
889.0,0.0056152343999999995,-0.11553955,-0.017211914,-4.145038,1.9465648999999998,0.7633588000000001,2019-08-05 14:02:19,2.0
890.0,0.008117675999999999,-0.1239624,-0.016723633,-5.5648856,1.221374,-3.4732822999999997,2019-08-05 14:02:19,2.0
891.0,-0.001159668,-0.13061523,-0.012451172,0.40458015,3.8473281999999998,-2.3511450000000003,2019-08-05 14:02:19,2.0
892.0,-0.0021362305,-0.11920166,-0.014892578,-1.389313,1.8015267,-0.6335878,2019-08-05 14:02:19,2.0
893.0,0.006286621,-0.12261963,-0.0099487305,-6.4961834000000005,1.2748091000000001,-1.3358778999999998,2019-08-05 14:02:19,2.0
894.0,0.005859375,-0.122558594,-0.013000488000000001,-3.946565,3.3358779999999997,-1.5496184,2019-08-05 14:02:19,2.0
895.0,0.00018310547,-0.12506104,-0.009277344,-0.23664123,3.2748091,-1.6259542,2019-08-05 14:02:19,2.0
896.0,0.005493164,-0.12139892599999999,-0.020019531,-3.5877862,2.4045799999999997,-0.3053435,2019-08-05 14:02:19,2.0
897.0,0.00579834,-0.12646484,-0.010253906,-5.076336,3.7251909,-3.6412212999999998,2019-08-05 14:02:19,2.0
898.0,0.0020141601999999997,-0.12512207,-0.021911621000000003,-0.40458015,4.1297708,0.22137405,2019-08-05 14:02:19,2.0
899.0,-0.0006713867,-0.12341308599999999,-0.016906738,-2.3435113,0.21374045,-0.7633588000000001,2019-08-05 14:02:19,2.0
900.0,0.0021972656,-0.12078857400000001,-0.015686035,-2.8778627,0.9389313,-0.10687023,2019-08-05 14:02:19,2.0
901.0,0.008605957,-0.12512207,-0.015686035,-3.9923663,4.89313,-2.7251909,2019-08-05 14:02:19,2.0
902.0,0.0026245116999999997,-0.12145996,-0.009765625,-0.8549618,-0.16793893,1.4122137,2019-08-05 14:02:19,2.0
903.0,0.004028320300000001,-0.12609863,-0.009338379,-1.3740458,-1.1374046,0.4427481,2019-08-05 14:02:19,2.0
904.0,0.005493164,-0.12615967,-0.013183594,-5.5801525000000005,3.2442749,-2.1068702,2019-08-05 14:02:19,2.0
905.0,-0.0007934570299999999,-0.11871338,-0.015075683999999999,0.122137405,3.3587787000000002,1.0152671,2019-08-05 14:02:19,2.0
906.0,0.004211426,-0.124938965,-0.014038086000000002,0.4427481,-0.19083970000000003,-0.5954198,2019-08-05 14:02:19,2.0
907.0,-0.0012207030999999999,-0.13110352,-0.00793457,-5.9541984,2.6564887,-4.366412,2019-08-05 14:02:19,2.0
908.0,-0.0015258789000000001,-0.11907959,-0.017211914,-2.9160306,2.4961832000000004,0.610687,2019-08-05 14:02:19,2.0
909.0,0.007690429699999999,-0.11975098,-0.015991211,-0.6870229,1.4427481000000002,0.4427481,2019-08-05 14:02:19,2.0
910.0,0.007446289,-0.12554932,-0.010253906,-5.221374,1.3282443000000002,-1.4198473999999999,2019-08-05 14:02:19,2.0
911.0,0.0018310547,-0.12066650400000001,-0.0048828125,-2.8473282,2.778626,-1.7557251,2019-08-05 14:02:19,2.0
912.0,0.0018310547,-0.12646484,-0.016296387,-2.091603,1.2671756,0.78625953,2019-08-05 14:02:19,2.0
913.0,0.0065307617,-0.11853027,-0.014404297,-0.9541985000000001,1.038168,-1.6870228999999999,2019-08-05 14:02:19,2.0
914.0,0.006286621,-0.13061523,-0.013244628999999999,-1.8015267,4.3206105,-0.9465648999999999,2019-08-05 14:02:19,2.0
915.0,0.00024414062000000002,-0.12646484,-0.020263672,-2.221374,1.9083970000000001,0.099236645,2019-08-05 14:02:19,2.0
916.0,-0.0025024414000000004,-0.12182617,-0.01965332,-0.9541985000000001,1.2824427,-1.0076336,2019-08-05 14:02:19,2.0
917.0,0.0029296875,-0.13262939999999998,-0.0037841796999999997,-2.2824428,2.2137403,-1.9770991999999998,2019-08-05 14:02:19,2.0
918.0,0.005432129,-0.12585449,-0.011352538999999998,-0.90076333,3.9923663,-1.4656489,2019-08-05 14:02:19,2.0
919.0,0.0,-0.11889648400000001,-0.010498047,-2.1145039,1.4427481000000002,-1.519084,2019-08-05 14:02:19,2.0
920.0,0.008483886999999999,-0.12579346,-0.012207031,-0.9389313,1.9770991999999998,-3.6106870000000004,2019-08-05 14:02:19,2.0
921.0,0.0010986328,-0.12683105,-0.012268066000000001,0.96183205,3.7404580000000003,-0.7557252,2019-08-05 14:02:19,2.0
922.0,-0.0014648438,-0.12426758,-0.010864258,-1.4885496,2.3587787000000002,1.6870228999999999,2019-08-05 14:02:19,2.0
923.0,0.006164551,-0.11828613,-0.016662598,0.53435117,0.129771,-0.6946565,2019-08-05 14:02:19,2.0
924.0,0.004028320300000001,-0.13275146,-0.013244628999999999,-3.59542,4.2824425999999995,-3.870229,2019-08-05 14:02:20,2.0
925.0,-0.00042724610000000003,-0.1227417,-0.015319824,-3.6870230000000004,2.1526718,0.39694658,2019-08-05 14:02:20,2.0
926.0,0.005981445300000001,-0.12054443,-0.012451172,-3.3053436,0.3053435,1.2061069,2019-08-05 14:02:20,2.0
927.0,0.008850098,-0.12835693,-0.012634277,0.061068702,3.2748091,-5.5496182,2019-08-05 14:02:20,2.0
928.0,0.006164551,-0.12414551,-0.007446289,0.84732825,4.809159999999999,-0.4427481,2019-08-05 14:02:20,2.0
929.0,0.0015869141,-0.121032715,-0.008666992,-3.4122138,1.6030535,0.2519084,2019-08-05 14:02:20,2.0
930.0,0.006652831999999999,-0.12310791,-0.00982666,-2.908397,2.7709923,-1.4503816,2019-08-05 14:02:20,2.0
931.0,0.0051879883,-0.12945557,-0.011779785,-1.0305344,3.1908397999999996,-0.32061067,2019-08-05 14:02:20,2.0
932.0,0.0037841796999999997,-0.1194458,-0.016479492,-3.1221373,1.2366412,0.129771,2019-08-05 14:02:20,2.0
933.0,0.008728027,-0.12237549,-0.0095825195,-4.2671757,1.6793894,-2.687023,2019-08-05 14:02:20,2.0
934.0,0.005981445300000001,-0.12927246,-0.010925293,0.16793893,4.526717700000001,-2.3282442000000003,2019-08-05 14:02:20,2.0
935.0,0.0061035156000000005,-0.12231445,-0.014587402,-1.6870228999999999,2.534351,-0.9236641,2019-08-05 14:02:20,2.0
936.0,0.0009765625,-0.11688232400000001,-0.013122558999999999,-3.3435113,0.65648854,0.259542,2019-08-05 14:02:20,2.0
937.0,0.0063476562,-0.12597656,-0.01739502,-3.076336,3.6030532999999996,-1.519084,2019-08-05 14:02:20,2.0
938.0,6.1035155999999994e-05,-0.12335205,-0.005126953,-0.22900763,3.6641220000000003,-1.4503816,2019-08-05 14:02:20,2.0
939.0,0.001953125,-0.12182617,-0.01171875,-2.0229008,0.97709924,1.3435115,2019-08-05 14:02:20,2.0
940.0,0.005737304699999999,-0.12402344,-0.022338867000000002,-5.3053436,2.0076337,-1.9694656000000004,2019-08-05 14:02:20,2.0
941.0,0.0006103515599999999,-0.12377930000000001,-0.012878418,-0.58778626,3.038168,-0.43511450000000007,2019-08-05 14:02:20,2.0
942.0,0.0028686523,-0.12719727,-0.01739502,0.8244275,1.9236640999999999,-0.053435113,2019-08-05 14:02:20,2.0
943.0,-0.0006713867,-0.11950683599999999,-0.006652831999999999,-5.587786,-0.6259541999999999,1.1908396,2019-08-05 14:02:20,2.0
944.0,0.008117675999999999,-0.12365723,-0.016174316,-3.053435,2.5801528,-0.48854962,2019-08-05 14:02:20,2.0
945.0,0.008544922,-0.13098145,-0.015197753999999999,1.8625953999999998,2.572519,-1.0458015,2019-08-05 14:02:20,2.0
946.0,0.0006103515599999999,-0.1260376,-0.013793945,-4.0458016,2.3816792999999996,0.9847328000000002,2019-08-05 14:02:20,2.0
947.0,0.0068359375,-0.12133789,-0.010375977,-6.1374044,-1.0687023,-0.7633588000000001,2019-08-05 14:02:20,2.0
948.0,0.0025024414000000004,-0.124938965,-0.012512207,-0.24427481,3.0305343,-2.687023,2019-08-05 14:02:20,2.0
949.0,0.0064697266000000005,-0.12335205,-0.0126953125,-3.0,2.0458016,-0.40458015,2019-08-05 14:02:20,2.0
950.0,0.0068359375,-0.12469482400000001,-0.009216309,-3.6335877999999995,-0.19847329,-1.2824427,2019-08-05 14:02:20,2.0
951.0,0.005065918,-0.12567139,-0.013305663999999998,-4.40458,2.3435113,-3.5648854,2019-08-05 14:02:20,2.0
952.0,0.002319336,-0.12567139,-0.014526367,0.32824427,1.7862595000000001,1.4580153,2019-08-05 14:02:20,2.0
953.0,0.008361816,-0.12646484,-0.011169433999999999,-2.0458016,-0.114503816,0.65648854,2019-08-05 14:02:20,2.0
954.0,0.010681152,-0.12750244,-0.009460449000000001,-4.4274807,2.4198472,-3.3816792999999996,2019-08-05 14:02:20,2.0
955.0,0.0025634766,-0.11993408,-0.019958496000000003,-1.5648855,3.923664,0.610687,2019-08-05 14:02:20,2.0
956.0,0.006591797,-0.12365723,-0.015380858999999998,0.091603056,0.57251906,1.3664121999999999,2019-08-05 14:02:20,2.0
957.0,0.007080078,-0.12774658,-0.014160156,-3.2366412,2.9694657,-2.3587787000000002,2019-08-05 14:02:20,2.0
958.0,0.0018310547,-0.12426758,-0.01361084,-4.816794,3.2900763,-2.1145039,2019-08-05 14:02:20,2.0
959.0,0.0026245116999999997,-0.119628906,-0.012512207,1.7480916000000002,1.9847328999999998,-0.66412216,2019-08-05 14:02:21,2.0
960.0,0.0063476562,-0.12872314,-0.007385254,-3.8396947,1.1603054,-1.7404580000000003,2019-08-05 14:02:21,2.0
961.0,0.0031738281,-0.128479,-0.020080566,-5.9541984,4.4503818,-2.1755726,2019-08-05 14:02:21,2.0
962.0,0.001953125,-0.119628906,-0.01586914,0.6946565,1.8091604,0.34351146,2019-08-05 14:02:21,2.0
963.0,0.004333496,-0.12561035,-0.013916016000000002,-1.5496184,-0.33587787,-0.18320611,2019-08-05 14:02:21,2.0
964.0,0.0099487305,-0.12945557,-0.014587402,-3.3129769999999996,2.6717557999999997,-3.5801528,2019-08-05 14:02:21,2.0
965.0,0.0020751953,-0.12371826,-0.022399902000000003,-3.076336,1.9083970000000001,0.52671754,2019-08-05 14:02:21,2.0
966.0,0.0036621094,-0.12347412,-0.016601562,0.46564886,0.16030534,-0.740458,2019-08-05 14:02:21,2.0
967.0,0.0053710938,-0.12506104,-0.0064086914,-0.64122134,3.4122138,-3.0076337000000004,2019-08-05 14:02:21,2.0
968.0,0.0024414061999999998,-0.12548828,-0.024230957,-1.9083970000000001,4.442748,-0.43511450000000007,2019-08-05 14:02:21,2.0
969.0,0.001953125,-0.11248779,-0.02368164,-0.64122134,1.0458015,0.54198474,2019-08-05 14:02:21,2.0
970.0,0.0032958984000000004,-0.12927246,-0.010437011999999999,-2.3511450000000003,2.0687022,-1.3206106000000002,2019-08-05 14:02:21,2.0
971.0,0.00390625,-0.12640381,-0.008911133,-1.4351145,4.3129773,-1.2366412,2019-08-05 14:02:21,2.0
972.0,0.0033569335999999996,-0.12023926,-0.014892578,-3.2595419999999997,1.4580153,1.1221374,2019-08-05 14:02:21,2.0
973.0,0.0061035156000000005,-0.12194824,-0.012145996000000001,-1.5954198999999998,0.84732825,-1.3206106000000002,2019-08-05 14:02:21,2.0
974.0,0.0037231445,-0.12884521,-0.012634277,-2.3206108,3.4961832000000004,-3.129771,2019-08-05 14:02:21,2.0
975.0,0.004272461,-0.12261963,-0.012268066000000001,-0.89312977,2.129771,0.9236641,2019-08-05 14:02:21,2.0
976.0,0.004028320300000001,-0.11895752,-0.011230469,-2.5954200000000003,-0.16793893,2.167939,2019-08-05 14:02:21,2.0
977.0,0.0064697266000000005,-0.12445068,-0.011230469,-1.8473282,2.8549618999999997,-2.9541984,2019-08-05 14:02:21,2.0
978.0,0.0049438477,-0.12426758,-0.012451172,0.22900763,3.167939,-0.45801526,2019-08-05 14:02:21,2.0
979.0,-0.0007934570299999999,-0.12188721,-0.016052246000000003,-2.3206108,1.8549619,0.66412216,2019-08-05 14:02:21,2.0
980.0,0.0014038085999999999,-0.12310791,-0.014892578,-2.6641220000000003,1.0152671,-0.3740458,2019-08-05 14:02:21,2.0
981.0,0.0020141601999999997,-0.12841797,-0.007690429699999999,-0.114503816,3.6870230000000004,0.26717559,2019-08-05 14:02:21,2.0
982.0,0.007446289,-0.12078857400000001,-0.017333984,-2.7328243,1.1221374,2.4198472,2019-08-05 14:02:21,2.0
983.0,0.010009766,-0.1227417,-0.014587402,-5.145038,0.46564886,0.31297709999999995,2019-08-05 14:02:21,2.0
984.0,0.0073242188,-0.12634277,-0.012084961000000002,0.7633588000000001,4.0992365,-0.67175573,2019-08-05 14:02:21,2.0
985.0,0.0040893555,-0.12567139,-0.017578125,-1.6641221000000002,2.389313,0.8854962,2019-08-05 14:02:21,2.0
986.0,0.0048217773,-0.123046875,-0.019348145,-3.9694656999999998,0.022900764,-0.129771,2019-08-05 14:02:21,2.0
987.0,0.008300781,-0.12170410000000002,-0.010314941,-3.5038167999999996,1.0,-0.259542,2019-08-05 14:02:21,2.0
988.0,0.0020141601999999997,-0.12628174,-0.012817383,0.48854962,1.7251908999999999,0.22137405,2019-08-05 14:02:21,2.0
989.0,0.0010986328,-0.12487793,-0.01763916,-2.427481,0.21374045,0.9465648999999999,2019-08-05 14:02:21,2.0
990.0,0.00579834,-0.12585449,-0.017028809,-2.5877862,1.3587786,-1.6717557,2019-08-05 14:02:21,2.0
991.0,-0.0031738281,-0.13031006,-0.021362305,0.32824427,5.3129773,-2.1374047000000003,2019-08-05 14:02:21,2.0
992.0,0.0020141601999999997,-0.121154785,-0.009521484,-1.4885496,-0.45038167,1.9923664,2019-08-05 14:02:21,2.0
993.0,0.0026245116999999997,-0.11981201,-0.014953613000000001,-3.053435,-0.70229006,-0.007633588,2019-08-05 14:02:21,2.0
994.0,0.005493164,-0.12286377,-0.010986328,-4.3129773,3.9160306000000005,-1.9923664,2019-08-05 14:02:21,2.0
995.0,0.007690429699999999,-0.12176514,-0.009765625,0.5801527,0.73282444,1.1984733,2019-08-05 14:02:21,2.0
996.0,0.002746582,-0.12548828,-0.012512207,-2.793893,-0.061068702,0.22900763,2019-08-05 14:02:22,2.0
997.0,0.001159668,-0.12469482400000001,-0.022521972999999997,-6.862595599999999,3.2290077,-1.8396946,2019-08-05 14:02:22,2.0
998.0,0.0043945312,-0.12158203,-0.017456055,0.6946565,3.4198472,1.8091604,2019-08-05 14:02:22,2.0
999.0,0.0006103515599999999,-0.12426758,-0.014343261999999999,-0.015267176,0.39694658,0.8015267,2019-08-05 14:02:22,2.0
1000.0,0.006713866999999999,-0.13018799,-0.004333496,-6.4885497,2.961832,-2.832061,2019-08-05 14:02:22,2.0
1001.0,0.0043945312,-0.121276855,-0.010131836,-1.7938931,3.3282442000000003,-0.67175573,2019-08-05 14:02:22,2.0
1002.0,-0.001953125,-0.124938965,-0.005737304699999999,0.83206105,1.038168,0.79389316,2019-08-05 14:02:22,2.0
1003.0,0.002746582,-0.12475586,-0.016479492,-3.9694656999999998,0.60305345,-1.5877863,2019-08-05 14:02:22,2.0
1004.0,0.002319336,-0.12713623,-0.0134887695,-2.9694657,3.6106870000000004,-0.7251908,2019-08-05 14:02:22,2.0
1005.0,0.0025634766,-0.12310791,-0.022949219,0.24427481,2.038168,-0.65648854,2019-08-05 14:02:22,2.0
1006.0,0.0087890625,-0.12835693,-0.013916016000000002,-3.0610687999999997,-0.091603056,-1.0839695,2019-08-05 14:02:22,2.0
1007.0,0.0021362305,-0.12786865,-0.011291503999999999,-2.610687,3.0839694,-1.1755725000000001,2019-08-05 14:02:22,2.0
1008.0,0.0025634766,-0.12408447,-0.009887695,-3.4351146,3.465649,0.32824427,2019-08-05 14:02:22,2.0
1009.0,0.0056152343999999995,-0.12042236,-0.016235351999999998,0.35114503,-0.19847329,0.41221374,2019-08-05 14:02:22,2.0
1010.0,0.006286621,-0.12774658,-0.00793457,-2.389313,2.0992367,-3.8396947,2019-08-05 14:02:22,2.0
1011.0,0.0012207030999999999,-0.12359619,-0.015991211,-2.2748091,3.8091602,0.78625953,2019-08-05 14:02:22,2.0
1012.0,-0.0020141601999999997,-0.12030029,-0.007690429699999999,-1.4198473999999999,1.1908396,-0.15267175,2019-08-05 14:02:22,2.0
1013.0,0.003540039,-0.123046875,-0.01159668,-0.8702290000000001,1.7328244,-4.4961834000000005,2019-08-05 14:02:22,2.0
1014.0,0.0020141601999999997,-0.12646484,-0.00982666,-3.4122138,3.183206,-0.740458,2019-08-05 14:02:22,2.0
1015.0,0.003967285,-0.12298584,-0.008300781,-2.6335877999999995,2.5267177000000003,-1.2137405,2019-08-05 14:02:22,2.0
1016.0,0.0013427734,-0.123046875,-0.014221191000000001,-1.1755725000000001,1.9847328999999998,-1.9694656000000004,2019-08-05 14:02:22,2.0
1017.0,0.004333496,-0.12670898,-0.007507324,-1.8931297999999999,2.442748,-2.961832,2019-08-05 14:02:22,2.0
1018.0,0.0025024414000000004,-0.1262207,-0.0119018555,-2.7099237,2.6183207000000004,-0.33587787,2019-08-05 14:02:22,2.0
1019.0,-6.1035155999999994e-05,-0.12011719,-0.014038086000000002,-4.587786,1.3435115,-1.1679389999999998,2019-08-05 14:02:22,2.0
1020.0,0.005737304699999999,-0.12872314,-0.0068359375,-0.7480916,2.6183207000000004,-4.6488547,2019-08-05 14:02:22,2.0
1021.0,0.005676269499999999,-0.12176514,-0.012023926,0.099236645,4.0076336999999995,-1.648855,2019-08-05 14:02:22,2.0
1022.0,0.0015258789000000001,-0.121032715,-0.016357422,-4.7251905999999995,1.9465648999999998,0.29007635,2019-08-05 14:02:22,2.0
1023.0,0.0052490233999999995,-0.12384033,-0.01373291,-0.022900764,2.3206108,-1.6870228999999999,2019-08-05 14:02:22,2.0
1024.0,0.0051879883,-0.12695312,-0.012512207,-2.6717557999999997,2.7251909,-3.4351146,2019-08-05 14:02:22,2.0
1025.0,0.0040893555,-0.12359619,-0.013183594,-2.3511450000000003,2.961832,0.54198474,2019-08-05 14:02:22,2.0
1026.0,0.0014038085999999999,-0.12139892599999999,-0.00970459,-3.4274809999999998,-0.53435117,-1.3969465,2019-08-05 14:02:22,2.0
1027.0,0.0015258789000000001,-0.12786865,-0.004760742,-0.8244275,5.1221375,-2.091603,2019-08-05 14:02:22,2.0
1028.0,0.002319336,-0.1307373,-0.017211914,-1.5496184,3.832061,-0.89312977,2019-08-05 14:02:22,2.0
1029.0,0.0064086914,-0.12487793,-0.012207031,-3.9541983999999997,1.6641221000000002,0.89312977,2019-08-05 14:02:22,2.0
1030.0,0.0025634766,-0.12506104,-0.01727295,-2.1450381000000003,2.5038167999999996,-4.0305343,2019-08-05 14:02:22,2.0
1031.0,0.00579834,-0.12841797,-0.0115356445,-0.84732825,3.4885497,-1.8091604,2019-08-05 14:02:22,2.0
1032.0,-0.0020141601999999997,-0.12506104,-0.01171875,-2.3511450000000003,1.9389313000000001,0.2977099,2019-08-05 14:02:23,2.0
1033.0,0.004028320300000001,-0.12231445,-0.007385254,-5.076336,-0.19083970000000003,-3.4351146,2019-08-05 14:02:23,2.0
1034.0,0.0053710938,-0.12976074,-0.013061523,-0.65648854,3.6793892,-3.5419848,2019-08-05 14:02:23,2.0
1035.0,0.0038452148,-0.12689209,-0.013244628999999999,0.38931298,2.7175572,-0.6183206,2019-08-05 14:02:23,2.0
1036.0,0.011413574,-0.12634277,-0.01574707,-6.7480917,0.78625953,-0.8091603,2019-08-05 14:02:23,2.0
1037.0,0.004760742,-0.12249756,-0.010437011999999999,-2.312977,1.5496184,-0.03816794,2019-08-05 14:02:23,2.0
1038.0,0.0040893555,-0.1239624,-0.01184082,1.5954198999999998,1.8473282,-0.26717559,2019-08-05 14:02:23,2.0
1039.0,0.0026245116999999997,-0.12384033,-0.01739502,-4.2977099999999995,0.6946565,-0.77862597,2019-08-05 14:02:23,2.0
1040.0,0.006713866999999999,-0.12048339999999998,-0.017944336,-4.259542,3.0839694,-2.519084,2019-08-05 14:02:23,2.0
1041.0,0.0030517578000000003,-0.12567139,-0.012451172,-0.67175573,3.7862597,-1.1832061000000003,2019-08-05 14:02:23,2.0
1042.0,0.004699707,-0.12695312,-0.015625,-2.7480917000000002,0.5648854999999999,0.091603056,2019-08-05 14:02:23,2.0
1043.0,0.005493164,-0.12347412,-0.013061523,-3.70229,1.221374,-0.77862597,2019-08-05 14:02:23,2.0
1044.0,0.002380371,-0.12402344,-0.012939453,-4.1297708,3.3129769999999996,-2.2595419999999997,2019-08-05 14:02:23,2.0
1045.0,0.005737304699999999,-0.122558594,-0.012023926,-1.480916,0.96183205,-0.86259544,2019-08-05 14:02:23,2.0
1046.0,0.008544922,-0.12597656,-0.014282227,-2.129771,0.19083970000000003,0.96183205,2019-08-05 14:02:23,2.0
1047.0,0.010986328,-0.12963867,-0.005981445300000001,-2.8854961,2.6946564,-2.4503817999999997,2019-08-05 14:02:23,2.0
1048.0,0.0020751953,-0.11932373,-0.020385742,-1.0763359,4.2442746,0.29007635,2019-08-05 14:02:23,2.0
1049.0,0.0036010741999999997,-0.12133789,-0.010986328,-0.6183206,0.14503817,-1.1984733,2019-08-05 14:02:23,2.0
1050.0,0.008178711,-0.1270752,-0.017333984,-3.6793892,1.8778626,-2.6335877999999995,2019-08-05 14:02:23,2.0
1051.0,0.0045776367,-0.123168945,-0.020141601999999998,-3.0229008,3.3587787000000002,-0.7099236999999999,2019-08-05 14:02:23,2.0
1052.0,0.0048828125,-0.11895752,-0.01586914,0.45801526,1.480916,1.8320610000000002,2019-08-05 14:02:23,2.0
1053.0,0.0022583008,-0.12963867,-0.012268066000000001,-3.4503817999999997,0.53435117,-2.1526718,2019-08-05 14:02:23,2.0
1054.0,0.004272461,-0.12384033,-0.019165039,-2.2824428,3.5038167999999996,-1.8015267,2019-08-05 14:02:23,2.0
1055.0,0.0064697266000000005,-0.11889648400000001,-0.020263672,-0.06870229,2.572519,1.7938931,2019-08-05 14:02:23,2.0
1056.0,0.006225586,-0.12725830000000002,-0.009155273,-1.3816794,0.6870229,-0.79389316,2019-08-05 14:02:23,2.0
1057.0,0.009460449000000001,-0.12683105,-0.021606445,-2.1450381000000003,3.7709922999999996,-2.1908397999999996,2019-08-05 14:02:23,2.0
1058.0,0.0067749023,-0.11767578,-0.018310547,-4.2824425999999995,2.9389312000000003,0.8091603,2019-08-05 14:02:23,2.0
1059.0,0.0061035156000000005,-0.12152099599999999,-0.0126953125,-0.23664123,1.3053435,0.8702290000000001,2019-08-05 14:02:23,2.0
1060.0,0.005126953,-0.13061523,-0.0067749023,-3.0152671000000004,1.7938931,-1.8473282,2019-08-05 14:02:23,2.0
1061.0,0.0016479492000000002,-0.13244629,-0.014160156,-2.7251909,4.5496182,-1.519084,2019-08-05 14:02:23,2.0
1062.0,-0.006042480500000001,-0.12194824,-0.008544922,-1.0076336,2.1755726,-0.16793893,2019-08-05 14:02:23,2.0
1063.0,0.0079956055,-0.12762451,-0.012390136999999999,-1.5572518999999998,1.1603054,-3.3129769999999996,2019-08-05 14:02:23,2.0
1064.0,0.007873535,-0.12652588,-0.008178711,-1.1297709999999999,3.6793892,-0.32824427,2019-08-05 14:02:23,2.0
1065.0,-0.0022583008,-0.12194824,-0.016296387,-2.2137403,1.7328244,0.47328246,2019-08-05 14:02:24,2.0
1066.0,0.004211426,-0.1194458,-0.016906738,-0.5954198,-0.32824427,-0.610687,2019-08-05 14:02:24,2.0
1067.0,0.0032958984000000004,-0.13195801,-0.011352538999999998,-3.6030532999999996,3.0610687999999997,-3.7480917000000002,2019-08-05 14:02:24,2.0
1068.0,0.0014648438,-0.12921143,-0.016479492,-0.99236643,3.7251909,0.28244275,2019-08-05 14:02:24,2.0
1069.0,0.0013427734,-0.11956787,-0.016052246000000003,-2.3587787000000002,0.7480916,0.8396947,2019-08-05 14:02:24,2.0
1070.0,0.006164551,-0.1270752,-0.010803223,-2.427481,2.2748091,-3.6793892,2019-08-05 14:02:24,2.0
1071.0,0.0067749023,-0.12695312,-0.0075683593999999995,-1.0763359,3.0992367,-0.77099234,2019-08-05 14:02:24,2.0
1072.0,0.004211426,-0.12298584,-0.013549805,-5.114504,1.5419847,-0.23664123,2019-08-05 14:02:24,2.0
1073.0,0.0034790040000000004,-0.12371826,-0.019042969,-2.8244274,0.053435113,0.38931298,2019-08-05 14:02:24,2.0
1074.0,0.006652831999999999,-0.13189697,-0.016052246000000003,0.06870229,3.0,-3.206107,2019-08-05 14:02:24,2.0
1075.0,0.0034790040000000004,-0.12451172,-0.015319824,-2.9847328999999996,2.4503817999999997,-0.32824427,2019-08-05 14:02:24,2.0
1076.0,0.0029907227,-0.11877441400000001,-0.014160156,-3.183206,-0.07633588,1.221374,2019-08-05 14:02:24,2.0
