measurement,Acc_X,Acc_Y,Acc_Z,Gyr_X,Gyr_Y,Gyr_Z,Time(hh:mm:ss),Label
0.0,-0.0028686523,-0.10076904,-0.07080078,5.763358599999999,2.6183207000000004,-2.2748091,2019-08-07 09:28:13,
1.0,-0.007873535,-0.10760498,-0.06921387,8.832061,-0.19847329,-1.7251908999999999,2019-08-07 09:28:13,
2.0,-0.014526367,-0.10089111,-0.06915283,3.0992367,2.3816792999999996,-2.0152671000000004,2019-08-07 09:28:13,
3.0,-0.011169433999999999,-0.10192871,-0.06677246,1.0534351,3.778626,-4.2442746,2019-08-07 09:28:13,
4.0,-0.009033203,-0.10247803,-0.060546875,16.435114000000002,2.4045799999999997,-5.6412214999999994,2019-08-07 09:28:13,
5.0,-0.008239746,-0.10388183599999999,-0.06774902,3.1908397999999996,1.2519083999999998,-4.0229006,2019-08-07 09:28:13,
6.0,-0.0073242188,-0.10015869,-0.06921387,-4.068702,0.78625953,-1.2671756,2019-08-07 09:28:13,
7.0,-0.00970459,-0.10272217,-0.06567383,-0.57251906,2.2442749,-1.4503816,2019-08-07 09:28:13,
8.0,-0.0020751953,-0.099609375,-0.07055664,2.6488549999999997,1.1221374,-2.6488549999999997,2019-08-07 09:28:13,
9.0,-0.0078125,-0.10821533,-0.06341553,2.0687022,1.9160305,-1.9541985,2019-08-07 09:28:13,
10.0,-0.01184082,-0.09753418,-0.067871094,-6.396946400000001,1.2061069,-1.1679389999999998,2019-08-07 09:28:13,
11.0,-0.011413574,-0.10461426,-0.0647583,-0.6793893,0.2977099,-2.8854961,2019-08-07 09:28:13,
12.0,-0.0115356445,-0.10290527,-0.06652832,4.7328243,3.038168,-4.40458,2019-08-07 09:28:13,
13.0,-0.011291503999999999,-0.11010742,-0.06896973,-1.0534351,1.5419847,-2.8625952999999997,2019-08-07 09:28:13,
14.0,-0.001159668,-0.09997558599999999,-0.066467285,-1.0610687,1.091603,-2.2442749,2019-08-07 09:28:13,
15.0,-0.004211426,-0.10491943,-0.06365967,-4.1221375,2.8549618999999997,-4.4274807,2019-08-07 09:28:13,
16.0,-0.012878418,-0.09893799,-0.06280517599999999,7.3511453,5.3511453,-6.5725193,2019-08-07 09:28:13,
17.0,0.00579834,-0.10858154,-0.07495117,21.06107,8.061069,-9.2213745,2019-08-07 09:28:13,
18.0,-0.0063476562,-0.11224365,-0.06597900400000001,-3.5190839999999994,5.740458,-4.0839696000000005,2019-08-07 09:28:13,
19.0,-0.0073242188,-0.11419678,-0.06060791,-7.89313,0.21374045,2.0152671000000004,2019-08-07 09:28:13,
20.0,0.0056152343999999995,-0.10089111,-0.06329346,-9.137404,-2.572519,2.5038167999999996,2019-08-07 09:28:13,
21.0,-0.0067749023,-0.09954834,-0.06341553,6.396946400000001,-0.99236643,-4.221374,2019-08-07 09:28:13,
22.0,-0.00970459,-0.10284424,-0.07147217,7.5801525,2.6030533,-4.9770994,2019-08-07 09:28:13,
23.0,-0.006042480500000001,-0.10278319999999999,-0.06689453,12.122137,6.4274807,-14.870229,2019-08-07 09:28:13,
24.0,0.0031738281,-0.105529785,-0.046936035,11.946565,6.587786,-12.129771,2019-08-07 09:28:14,
25.0,-0.0068359375,-0.10607910000000002,-0.055358887,0.07633588,1.961832,-12.167939,2019-08-07 09:28:14,
26.0,0.0029296875,-0.11425781,-0.061462402,-12.893129,-4.396946400000001,-4.7175574000000005,2019-08-07 09:28:14,
27.0,0.0028076171999999997,-0.11187744,-0.05633545,-60.49618,-6.6183205,5.519083999999999,2019-08-07 09:28:14,
28.0,-0.009460449000000001,-0.11315918,-0.068237305,-91.83206,-9.229008,11.709924,2019-08-07 09:28:14,
29.0,-0.00091552734,-0.09088135,-0.07733154,-107.62595,-13.923664000000002,18.38168,2019-08-07 09:28:14,
30.0,-0.01171875,-0.09259033,-0.08117676,-60.40458,-11.328244,18.374046,2019-08-07 09:28:14,
31.0,-0.010131836,-0.09863281,-0.07525635,-68.091606,-18.763360000000002,10.7404585,2019-08-07 09:28:14,
32.0,-0.01763916,-0.093688965,-0.09045410000000001,-66.37405,-30.67939,-0.08396947,2019-08-07 09:28:14,
33.0,-0.020202637,-0.08453369,-0.09844971,-3.5572519999999996,-30.175572999999996,-26.053434,2019-08-07 09:28:14,
34.0,-0.0052490233999999995,-0.08459473,-0.08294678,-6.740458,-22.89313,-33.183205,2019-08-07 09:28:14,
35.0,-0.016601562,-0.06048584,-0.07391357400000001,-14.267176000000001,-23.885496,-29.786259,2019-08-07 09:28:14,
36.0,-0.020080566,-0.07635498,-0.106933594,-4.0229006,-16.732824,-21.900763,2019-08-07 09:28:14,
37.0,-0.024291992000000002,-0.07556152,-0.10906982400000001,-10.679389,5.526717700000001,-12.954199000000001,2019-08-07 09:28:14,
38.0,-0.011230469,-0.0725708,-0.10510254,10.076336,18.38168,-9.717557000000001,2019-08-07 09:28:14,
39.0,-0.016662598,-0.07373047,-0.09136963,32.23664,25.114504,-1.5038168,2019-08-07 09:28:14,
40.0,-0.0073242188,-0.099121094,-0.08428955,11.229008,20.824427,0.7557252,2019-08-07 09:28:14,
41.0,-0.0087890625,-0.10180664,-0.07916260000000001,-36.17557,10.870229,4.9160304,2019-08-07 09:28:14,
42.0,-0.005981445300000001,-0.07946777,-0.08239746,-23.442749,-13.534351000000001,1.0229008,2019-08-07 09:28:14,
43.0,-0.016662598,-0.090026855,-0.09509277,15.450381,-23.206106,-8.465649,2019-08-07 09:28:14,
44.0,-0.021728516,-0.08380127,-0.09185791,-7.3129773,-8.526717,-38.618320000000004,2019-08-07 09:28:14,
45.0,-0.0015258789000000001,-0.07409668,-0.07397461,47.297709999999995,-4.5496182,-60.82443000000001,2019-08-07 09:28:14,
46.0,-0.004333496,-0.10687256,-0.07647705,55.297709999999995,-8.564885,-32.656490000000005,2019-08-07 09:28:14,
47.0,-0.020080566,-0.09478760000000001,-0.10107422,-76.70229,-1.6412214,-12.290076,2019-08-07 09:28:14,
48.0,-0.010437011999999999,-0.06652832,-0.10656738,-7.0839696,12.083969,-6.6870227,2019-08-07 09:28:14,
49.0,0.0006713867,-0.07550049,-0.09051514,81.75572,20.931297,-1.2671756,2019-08-07 09:28:14,
50.0,0.0028686523,-0.09106445,-0.068847656,81.54961999999999,23.022902,6.221374,2019-08-07 09:28:14,
51.0,0.004760742,-0.097473145,-0.07531738,16.015266,19.053434,11.511451,2019-08-07 09:28:14,
52.0,0.0043945312,-0.09161377,-0.08190918,-0.35877863,15.427481,9.0992365,2019-08-07 09:28:14,
53.0,0.00018310547,-0.10235596,-0.06573486,8.763359,6.557252,8.404580000000001,2019-08-07 09:28:14,
54.0,0.00012207031000000001,-0.09588623,-0.06988525400000001,10.725191,-0.6946565,6.374046,2019-08-07 09:28:14,
55.0,-0.006591797,-0.10021973,-0.08233642599999999,0.740458,-5.854962,6.8320612999999994,2019-08-07 09:28:14,
56.0,-0.00970459,-0.09704589999999999,-0.07788086,-17.06107,-9.106871,5.3816795,2019-08-07 09:28:14,
57.0,-0.012939453,-0.09094238,-0.08361816400000001,-28.480916999999998,-7.8320612999999994,1.3587786,2019-08-07 09:28:14,
58.0,-0.009643555,-0.08300781,-0.0836792,-16.259542,-12.480916,5.3511453,2019-08-07 09:28:15,
59.0,-0.013000488000000001,-0.08404541,-0.093688965,-13.908397,-6.8702292,7.6488547,2019-08-07 09:28:15,
60.0,-0.007751465,-0.09045410000000001,-0.08422851599999999,7.1679387000000006,2.7633588,5.2824425999999995,2019-08-07 09:28:15,
61.0,-0.014526367,-0.093566895,-0.076171875,12.9007635,4.2900763,2.6641220000000003,2019-08-07 09:28:15,
62.0,-0.0063476562,-0.09320068,-0.076660156,11.923664,3.7862597,-0.19847329,2019-08-07 09:28:15,
63.0,-0.0079956055,-0.09539795,-0.08361816400000001,-5.6106873,3.4503817999999997,0.19083970000000003,2019-08-07 09:28:15,
64.0,-0.0044555664,-0.089782715,-0.07751465,-0.83206105,18.687023,-0.6183206,2019-08-07 09:28:15,
65.0,-0.009155273,-0.08215332,-0.07434082,21.51145,11.854961,-2.9160306,2019-08-07 09:28:15,
66.0,-0.008300781,-0.091674805,-0.06866455,32.190838,3.648855,-3.9847328999999996,2019-08-07 09:28:15,
67.0,-0.004211426,-0.09454346,-0.06994629,13.465648999999999,8.595419999999999,-1.9541985,2019-08-07 09:28:15,
68.0,-0.014404297,-0.08850098,-0.07556152,5.7709923,8.793892999999999,2.70229,2019-08-07 09:28:15,
69.0,-0.010009766,-0.09259033,-0.08105469,43.381679999999996,13.625955,-5.4580154,2019-08-07 09:28:15,
70.0,-0.0053710938,-0.0993042,-0.0725708,43.587788,14.847328,-6.145038,2019-08-07 09:28:15,
71.0,-0.0021972656,-0.10308838,-0.072753906,35.366413,11.022901,-4.9389315,2019-08-07 09:28:15,
72.0,-0.008483886999999999,-0.10186767599999999,-0.06781006,24.648854999999998,9.297709,-1.519084,2019-08-07 09:28:15,
73.0,-0.006286621,-0.09790039,-0.06652832,10.969465,6.221374,-1.3206106000000002,2019-08-07 09:28:15,
74.0,-0.0028076171999999997,-0.10095215,-0.0703125,0.6183206,8.030535,-1.519084,2019-08-07 09:28:15,
75.0,-0.009460449000000001,-0.10522461,-0.07165527,7.3664119999999995,7.3664119999999995,2.7404580000000003,2019-08-07 09:28:15,
76.0,-0.0048217773,-0.10211182,-0.07482910000000001,10.244275,4.633588,-0.35877863,2019-08-07 09:28:15,
77.0,0.0015258789000000001,-0.10095215,-0.061767578,24.236639999999998,3.2748091,-5.740458,2019-08-07 09:28:15,
78.0,-0.0013427734,-0.11376953,-0.06536865,8.633588,-0.8244275,-0.57251906,2019-08-07 09:28:15,
79.0,0.0048828125,-0.11047363,-0.06781006,-1.4045801000000002,-1.2748091000000001,-4.2061067,2019-08-07 09:28:15,
80.0,-0.0006103515599999999,-0.10119629,-0.06329346,1.6946564999999998,-0.35114503,-6.816794,2019-08-07 09:28:15,
81.0,-0.006286621,-0.10809326,-0.0635376,4.7328243,1.2748091000000001,-6.259542,2019-08-07 09:28:15,
82.0,-0.0020751953,-0.1003418,-0.066589355,1.6030535,-1.9923664,-6.5496182,2019-08-07 09:28:15,
83.0,-0.0020751953,-0.10821533,-0.07159424,8.053435,-6.3893127,-9.183207000000001,2019-08-07 09:28:15,
84.0,-0.0099487305,-0.10845947,-0.06561279,-5.740458,-11.312977,-11.717557000000001,2019-08-07 09:28:15,
85.0,-0.007629394499999999,-0.10040283,-0.0647583,-22.221375,-15.374045,-11.19084,2019-08-07 09:28:15,
86.0,-0.003112793,-0.10479736,-0.066223145,-30.473282,-17.053434,-7.3053436000000005,2019-08-07 09:28:15,
87.0,-0.007873535,-0.10827637,-0.06738281,-37.671757,-16.137404999999998,-5.9694657,2019-08-07 09:28:15,
88.0,0.0032348633000000003,-0.09515381,-0.074157715,-49.954197,-12.832061,-6.8778625,2019-08-07 09:28:15,
89.0,-0.009399414,-0.10168457,-0.07788086,-27.007633000000002,-10.2213745,-3.8015267999999995,2019-08-07 09:28:15,
90.0,-0.012268066000000001,-0.10144043,-0.07855224599999999,-26.549618,-6.0305343,-4.076336,2019-08-07 09:28:15,
91.0,-0.007751465,-0.10076904,-0.07763672,-16.694656,-4.3587785000000006,-4.854962,2019-08-07 09:28:15,
92.0,0.005004883,-0.099487305,-0.0769043,-3.7862597,0.14503817,-3.7404580000000003,2019-08-07 09:28:15,
93.0,-0.0045776367,-0.10198974599999999,-0.07513428,-6.473282299999999,1.0534351,-2.0305343000000002,2019-08-07 09:28:15,
94.0,-0.0014648438,-0.097595215,-0.07824707,-7.8244276,-1.648855,3.29771,2019-08-07 09:28:15,
95.0,-0.0072021483999999995,-0.09857178,-0.06994629,-18.450382,-6.9465647,8.916031,2019-08-07 09:28:15,
96.0,-0.0064697266000000005,-0.09027099599999999,-0.06945801,-30.732824,-5.8244276,12.717557000000001,2019-08-07 09:28:16,
97.0,-0.0053100586,-0.08245849599999999,-0.08959961,-31.587785999999998,-12.015267,-1.6717557,2019-08-07 09:28:16,
98.0,-0.018127441,-0.08142089999999999,-0.08770752,31.633587,5.1221375,-13.282442999999999,2019-08-07 09:28:16,
99.0,-0.007019043000000001,-0.09094238,-0.09124756,49.702290000000005,11.480916,-12.946565,2019-08-07 09:28:16,
100.0,-0.0052490233999999995,-0.09741211,-0.0703125,70.778625,21.763360000000002,-9.358779,2019-08-07 09:28:16,
101.0,-0.0037231445,-0.109558105,-0.07104492,47.366413,16.900763,-2.3664122000000005,2019-08-07 09:28:16,
102.0,-0.004333496,-0.115112305,-0.06652832,15.183207000000001,9.145039,-3.5114503,2019-08-07 09:28:16,
103.0,-0.010375977,-0.10345459,-0.07135010000000001,-5.5419846,7.4198475,-0.34351146,2019-08-07 09:28:16,
104.0,0.00030517577999999995,-0.10217285,-0.07507324,-1.5267175,6.4656487,1.6564884999999998,2019-08-07 09:28:16,
105.0,-0.005676269499999999,-0.1026001,-0.07495117,4.4961834000000005,11.030535,-0.061068702,2019-08-07 09:28:16,
106.0,-0.009155273,-0.09637451,-0.0690918,10.0992365,9.21374,-1.70229,2019-08-07 09:28:16,
107.0,-0.0007934570299999999,-0.09954834,-0.06591797,27.541984999999997,10.381680000000001,-5.480916000000001,2019-08-07 09:28:16,
108.0,-0.0029907227,-0.10467529,-0.06402588,14.78626,9.145039,-3.1374047000000003,2019-08-07 09:28:16,
109.0,-0.0009765625,-0.10467529,-0.06378174,11.9007635,5.7862597000000004,-4.7175574000000005,2019-08-07 09:28:16,
110.0,0.0014038085999999999,-0.113342285,-0.062316895,8.427481,8.687023,-2.0305343000000002,2019-08-07 09:28:16,
111.0,-0.0038452148,-0.09954834,-0.06311035,10.618319999999999,7.480916000000001,-2.7099237,2019-08-07 09:28:16,
112.0,-0.0018920898,-0.10308838,-0.057434082000000004,18.12977,12.091603,-6.091603299999999,2019-08-07 09:28:16,
113.0,-0.0030517578000000003,-0.10864258,-0.06347656,20.755726,13.740458499999999,-3.7404580000000003,2019-08-07 09:28:16,
114.0,-0.0015869141,-0.09790039,-0.06311035,25.51145,16.007633,-8.076336,2019-08-07 09:28:16,
115.0,-0.00036621094,-0.10681152,-0.05987549,37.984734,18.877863,-5.603053599999999,2019-08-07 09:28:16,
116.0,0.0015869141,-0.11187744,-0.059509277,26.06107,14.557251999999998,-7.152672,2019-08-07 09:28:16,
117.0,0.0034179688000000002,-0.11578369,-0.05529785,22.946566,14.106871,-5.091603299999999,2019-08-07 09:28:16,
118.0,0.007873535,-0.10876465,-0.05291748,15.320610999999998,9.404580000000001,-4.6946564,2019-08-07 09:28:16,
119.0,0.005981445300000001,-0.11010742,-0.05529785,12.0992365,6.9389315,-5.6793895,2019-08-07 09:28:16,
120.0,0.011352538999999998,-0.109375,-0.058776855,5.5496182,6.3129773,-3.6412212999999998,2019-08-07 09:28:16,
121.0,0.007080078,-0.10949707,-0.054870605,1.2366412,4.9007635,-5.3206105,2019-08-07 09:28:16,
122.0,0.002319336,-0.11114502,-0.05206299,7.5801525,6.80916,-4.59542,2019-08-07 09:28:16,
123.0,0.009521484,-0.11126709,-0.05230713,7.7862597000000004,7.793893300000001,-6.2748094000000005,2019-08-07 09:28:16,
124.0,0.00012207031000000001,-0.10369873,-0.04901123,7.9923663000000005,8.106871,-3.038168,2019-08-07 09:28:16,
125.0,0.0079956055,-0.11364746,-0.054016113,12.030535,9.19084,-5.183206,2019-08-07 09:28:16,
126.0,0.0107421875,-0.1149292,-0.05432129,13.526717000000001,9.076336,-3.8778627,2019-08-07 09:28:16,
127.0,0.016540527,-0.11779785,-0.05090332,9.503817,6.4580154,-1.5725191,2019-08-07 09:28:16,
128.0,-0.0022583008,-0.11175537,-0.048095703,3.3587787000000002,6.2977099999999995,-1.4961832,2019-08-07 09:28:16,
129.0,0.0052490233999999995,-0.1116333,-0.056030273,1.4045801000000002,6.4656487,-4.442748,2019-08-07 09:28:16,
130.0,0.00579834,-0.109191895,-0.047668457000000004,0.122137405,5.4198474999999995,-5.5419846,2019-08-07 09:28:16,
131.0,0.010681152,-0.11090088,-0.050048828,3.9770992,3.4427480000000004,-5.221374,2019-08-07 09:28:16,
132.0,0.008300781,-0.109191895,-0.04876709,-4.2519083,3.1908397999999996,-4.7480917,2019-08-07 09:28:17,
133.0,0.013305663999999998,-0.107299805,-0.05322265599999999,2.7633588,4.2442746,-5.9694657,2019-08-07 09:28:17,
134.0,0.0026855469,-0.11303711,-0.050842285,-2.5419848,1.4885496,-3.3969467000000004,2019-08-07 09:28:17,
135.0,0.0022583008,-0.11584473,-0.046813965,-3.4961832000000004,1.9160305,-1.1068702,2019-08-07 09:28:17,
136.0,0.005981445300000001,-0.11566162,-0.049072265999999996,-13.061069,-0.66412216,-1.4732825,2019-08-07 09:28:17,
137.0,0.0014648438,-0.117248535,-0.053833007999999995,-7.259542,-3.1984732000000005,-3.908397,2019-08-07 09:28:17,
138.0,0.010192871,-0.103637695,-0.055908203,-14.541985,-2.2595419999999997,-3.3893129999999996,2019-08-07 09:28:17,
139.0,-0.00036621094,-0.10681152,-0.046447754,-13.137404,-1.0610687,-4.59542,2019-08-07 09:28:17,
140.0,0.011474608999999998,-0.10998535,-0.058654785,-10.114504,-0.58778626,-5.847328,2019-08-07 09:28:17,
141.0,-0.00030517577999999995,-0.09985351599999999,-0.04711914,-1.5572518999999998,-23.160304999999997,5.961832,2019-08-07 09:28:17,
142.0,-0.0014648438,-0.105529785,-0.047668457000000004,-7.7251906,-8.320611,1.5419847,2019-08-07 09:28:17,
143.0,-0.00024414062000000002,-0.10449219,-0.057800292999999996,-9.061069,-5.9541984,7.480916000000001,2019-08-07 09:28:17,
144.0,-0.00030517577999999995,-0.11236572,-0.06732178,-4.2519083,-4.0152674,2.6564887,2019-08-07 09:28:17,
145.0,0.004760742,-0.11096191400000001,-0.061279297,-18.93893,-4.8320612999999994,6.3816795,2019-08-07 09:28:17,
146.0,-0.001159668,-0.10699463,-0.06500244,-34.564884,-8.793892999999999,10.923664,2019-08-07 09:28:17,
147.0,-0.011291503999999999,-0.11871338,-0.074279785,-36.480915,-11.549619,13.274809,2019-08-07 09:28:17,
148.0,-0.0021972656,-0.11773682,-0.07556152,-70.59541999999999,-3.2290077,12.450381,2019-08-07 09:28:17,
149.0,-0.0078125,-0.11090088,-0.07922363,-94.05344000000001,9.282442999999999,3.7175572,2019-08-07 09:28:17,
150.0,-0.0029296875,-0.09088135,-0.0715332,-60.15266999999999,23.61832,-7.2442746,2019-08-07 09:28:17,
151.0,0.005432129,-0.089904785,-0.06481933599999999,-14.625955,30.473282,-6.259542,2019-08-07 09:28:17,
152.0,0.0015258789000000001,-0.08880615,-0.066345215,6.335878,26.877863,-4.9389315,2019-08-07 09:28:17,
153.0,0.008544922,-0.097839355,-0.06555176,-1.8549619,24.908398000000002,-0.6946565,2019-08-07 09:28:17,
154.0,0.003112793,-0.10577392599999999,-0.06726074,-12.320611,11.969465,2.0,2019-08-07 09:28:17,
155.0,0.003967285,-0.12145996,-0.06842041,-19.473282,6.3129773,4.412214,2019-08-07 09:28:17,
156.0,0.010864258,-0.10614014,-0.06237793,-39.0229,4.2442746,3.7862597,2019-08-07 09:28:17,
157.0,0.010498047,-0.09875488,-0.06976318,-28.900763,-9.916031,3.8167940000000002,2019-08-07 09:28:17,
158.0,0.004638672,-0.10327148400000001,-0.0690918,-18.213741,-15.694656,-5.5419846,2019-08-07 09:28:17,
159.0,0.015991211,-0.08886719,-0.063964844,-18.648854999999998,-17.015266,-9.534351,2019-08-07 09:28:17,
160.0,0.0072631836,-0.091918945,-0.068847656,-0.16793893,-28.847328000000005,-17.450382,2019-08-07 09:28:17,
161.0,-0.012329102,-0.08569336,-0.07220459,-1.9694656000000004,-27.290077,-20.717558,2019-08-07 09:28:17,
162.0,-0.004699707,-0.080566406,-0.07904053,-13.106871,-20.603054,-21.015266,2019-08-07 09:28:17,
163.0,0.0026855469,-0.070373535,-0.06921387,12.603053,-13.366412,-18.007633,2019-08-07 09:28:17,
164.0,-0.018188476999999998,-0.07043457,-0.06567383,32.312977000000004,-17.679389999999998,-15.832060999999998,2019-08-07 09:28:17,
165.0,0.019165039,-0.080200195,-0.071777344,67.67939,-0.007633588,-23.244274,2019-08-07 09:28:17,
166.0,0.0056152343999999995,-0.09985351599999999,-0.06359863,38.801525,-25.816793,13.717557000000001,2019-08-07 09:28:17,
167.0,0.008422852,-0.07543945,-0.06811523400000001,4.374046,-12.312977,-8.572519,2019-08-07 09:28:18,
168.0,0.009460449000000001,-0.08392334,-0.07849121,21.08397,-15.412213000000001,4.778626,2019-08-07 09:28:18,
169.0,0.0036621094,-0.10577392599999999,-0.07727051,8.862596,-8.687023,7.259542,2019-08-07 09:28:18,
170.0,0.0048828125,-0.10681152,-0.08270264,27.091602,-4.5114503,8.251908,2019-08-07 09:28:18,
171.0,0.015197753999999999,-0.11370849599999999,-0.08325195,44.923664,-11.106871,4.4961834000000005,2019-08-07 09:28:18,
172.0,0.0029296875,-0.13220215,-0.08032226599999999,8.580152499999999,-18.877863,-1.7557251,2019-08-07 09:28:18,
173.0,-0.005493164,-0.11779785,-0.083984375,-84.34351,-20.442749,9.847328,2019-08-07 09:28:18,
174.0,-0.019592285,-0.09136963,-0.08972168,-94.9313,-6.656488400000001,-5.7557254,2019-08-07 09:28:18,
175.0,-0.010620117,-0.07061767599999999,-0.083984375,-23.305344,1.3435115,-8.312977,2019-08-07 09:28:18,
176.0,-0.018737793,-0.086120605,-0.07775879,30.167938,2.1908397999999996,-6.8778625,2019-08-07 09:28:18,
177.0,-0.016113281,-0.09832764,-0.08001709,10.938931,7.8015265,-6.068702,2019-08-07 09:28:18,
178.0,0.0075683593999999995,-0.10113525400000001,-0.07250976599999999,12.938931,8.022901,-2.6030533,2019-08-07 09:28:18,
179.0,-0.00012207031000000001,-0.107910156,-0.07714844,14.183207000000001,8.625955000000001,-5.152672,2019-08-07 09:28:18,
180.0,-0.0006713867,-0.09814453,-0.07189941400000001,7.89313,4.7022900000000005,-5.7862597000000004,2019-08-07 09:28:18,
181.0,-0.0052490233999999995,-0.09906006,-0.0715332,8.450381,2.2900763,-4.3893127,2019-08-07 09:28:18,
182.0,-0.004028320300000001,-0.09509277,-0.07409668,14.160305,0.29007635,-1.2671756,2019-08-07 09:28:18,
183.0,0.0015258789000000001,-0.09851074,-0.061462402,6.480916000000001,2.091603,-2.6946564,2019-08-07 09:28:18,
184.0,0.00018310547,-0.09722900400000001,-0.07574463,5.366412,2.3816792999999996,-6.6412214999999994,2019-08-07 09:28:18,
185.0,-0.001953125,-0.09899902,-0.07757568,1.8625953999999998,1.2671756,-5.7328243,2019-08-07 09:28:18,
186.0,-0.0029907227,-0.09729004,-0.07092285,-1.221374,0.73282444,-5.3893127,2019-08-07 09:28:18,
187.0,-0.0014038085999999999,-0.10229492,-0.07336426,2.8396947,-1.1603054,-5.4274807,2019-08-07 09:28:18,
188.0,-0.0056152343999999995,-0.10473633,-0.08264160000000001,4.847328,-0.6335878,-3.4580152,2019-08-07 09:28:18,
189.0,0.00030517577999999995,-0.09814453,-0.074279785,2.7099237,-2.6641220000000003,-2.0458016,2019-08-07 09:28:18,
190.0,-0.0025024414000000004,-0.10125732400000001,-0.058288574,-1.2900764,-3.5725190000000002,-1.8015267,2019-08-07 09:28:18,
191.0,-0.008850098,-0.10205078,-0.0715332,-0.14503817,-3.1526718,-6.89313,2019-08-07 09:28:18,
192.0,-0.0073242188,-0.09704589999999999,-0.07348633,-2.1603053,-2.9312978,-5.2061067,2019-08-07 09:28:18,
193.0,-0.0049438477,-0.09838867,-0.07135010000000001,-2.7251909,-2.5877862,-1.2366412,2019-08-07 09:28:18,
194.0,-0.0040893555,-0.09136963,-0.07824707,-5.0,-4.557252,-0.90839696,2019-08-07 09:28:18,
195.0,-0.005065918,-0.10345459,-0.07171631,-3.3816792999999996,-0.8702290000000001,-2.7328243,2019-08-07 09:28:18,
196.0,-0.0049438477,-0.09338379,-0.07348633,-6.3129773,0.9236641,-1.4122137,2019-08-07 09:28:18,
197.0,-0.003540039,-0.09857178,-0.06744385,-2.0076337,1.2137405,0.07633588,2019-08-07 09:28:18,
198.0,-6.1035155999999994e-05,-0.09698486,-0.070129395,1.0610687,2.5419848,-0.67175573,2019-08-07 09:28:18,
199.0,0.0028076171999999997,-0.09954834,-0.07159424,-0.610687,2.9312978,-3.0076337000000004,2019-08-07 09:28:18,
200.0,-0.0061035156000000005,-0.09448242,-0.07092285,1.8396946,3.7175572,-1.8320610000000002,2019-08-07 09:28:18,
201.0,0.010253906,-0.09576416,-0.0680542,5.3816795,5.2137402999999996,-2.5877862,2019-08-07 09:28:18,
202.0,-0.005981445300000001,-0.10070801,-0.06567383,2.9541984,5.3129773,-1.0229008,2019-08-07 09:28:18,
203.0,-0.0068359375,-0.10345459,-0.07525635,2.4503817999999997,2.8778627,-1.4503816,2019-08-07 09:28:19,8.0
204.0,-0.0037231445,-0.09210205,-0.07769775400000001,0.36641222,2.778626,-1.8625953999999998,2019-08-07 09:28:19,8.0
205.0,-0.008300781,-0.099731445,-0.06964111,1.7709924,5.5114503,0.7633588000000001,2019-08-07 09:28:19,8.0
206.0,-0.0012207030999999999,-0.099731445,-0.07293701,6.145038,2.3664122000000005,-1.5954198999999998,2019-08-07 09:28:19,8.0
207.0,-0.002319336,-0.09991455,-0.0725708,3.4580152,3.8549618999999997,0.030534351,2019-08-07 09:28:19,8.0
208.0,0.0010375977,-0.09942627,-0.06652832,-0.08396947,1.2442749,-1.5343511,2019-08-07 09:28:19,8.0
209.0,-0.010681152,-0.10333252,-0.076171875,2.038168,1.9694656000000004,-3.1450381000000003,2019-08-07 09:28:19,8.0
210.0,-0.004211426,-0.09924316400000001,-0.07080078,5.603053599999999,2.4580152,-2.6717557999999997,2019-08-07 09:28:19,8.0
211.0,-0.011047363000000001,-0.09985351599999999,-0.066467285,5.4656487,2.7404580000000003,-0.8244275,2019-08-07 09:28:19,8.0
212.0,-0.0007934570299999999,-0.10021973,-0.064575195,1.3816794,1.038168,-1.8473282,2019-08-07 09:28:19,8.0
213.0,-0.0048828125,-0.10766601599999999,-0.06628418,-1.1832061000000003,2.8549618999999997,-0.519084,2019-08-07 09:28:19,8.0
214.0,-0.006286621,-0.10852051,-0.07067871,-3.4732822999999997,3.1374047000000003,-1.5419847,2019-08-07 09:28:19,8.0
215.0,-0.0008544922000000001,-0.10333252,-0.07287598,-1.389313,0.57251906,0.77862597,2019-08-07 09:28:19,8.0
216.0,0.00024414062000000002,-0.10687256,-0.07330322,-3.9007633000000004,-1.2442749,1.6564884999999998,2019-08-07 09:28:19,8.0
217.0,-0.002319336,-0.09460449,-0.06988525400000001,-9.984733,-1.9312977,-1.4274809,2019-08-07 09:28:19,8.0
218.0,-0.010681152,-0.099487305,-0.0715332,-5.068702,-0.053435113,-2.3969467,2019-08-07 09:28:19,8.0
219.0,0.0009765625,-0.09454346,-0.07061767599999999,-0.10687023,0.45801526,-2.5877862,2019-08-07 09:28:19,8.0
220.0,0.0010986328,-0.09515381,-0.06781006,5.4503818,0.519084,-4.1297708,2019-08-07 09:28:19,8.0
221.0,-0.002746582,-0.09918213,-0.06665039,-3.7404580000000003,-0.96183205,-5.015267400000001,2019-08-07 09:28:19,8.0
222.0,-0.0012817383,-0.09753418,-0.074035645,-5.8702292,0.022900764,-4.5038165999999995,2019-08-07 09:28:19,8.0
223.0,-0.00592041,-0.09515381,-0.07135010000000001,-0.45801526,0.79389316,-2.6488549999999997,2019-08-07 09:28:19,8.0
224.0,0.0009765625,-0.10180664,-0.07495117,3.4351146,-0.77862597,-2.480916,2019-08-07 09:28:19,8.0
225.0,-0.0037841796999999997,-0.10534668,-0.07769775400000001,-0.49618322,0.45801526,-4.1679387000000006,2019-08-07 09:28:19,8.0
226.0,-0.00024414062000000002,-0.09649658,-0.07092285,2.221374,2.29771,-3.8244274,2019-08-07 09:28:19,8.0
227.0,-0.005981445300000001,-0.10369873,-0.06719971,-2.6335877999999995,0.8549618,-2.9389312000000003,2019-08-07 09:28:19,8.0
228.0,0.0018920898,-0.103027344,-0.07318115,-0.58778626,1.7328244,-1.7175573,2019-08-07 09:28:19,8.0
229.0,-0.0008544922000000001,-0.09918213,-0.07147217,-2.1145039,1.7709924,-2.5114503,2019-08-07 09:28:19,8.0
230.0,-0.008361816,-0.1038208,-0.07342529,-3.648855,1.5954198999999998,-0.9847328000000002,2019-08-07 09:28:19,8.0
231.0,0.0009765625,-0.10205078,-0.07672119,-3.2519082999999998,-0.5496183000000001,-0.13740458,2019-08-07 09:28:19,8.0
232.0,-0.00042724610000000003,-0.09436035,-0.075683594,-3.9541983999999997,1.4351145,2.442748,2019-08-07 09:28:19,8.0
233.0,-0.009765625,-0.101623535,-0.06878662,-1.7786259999999998,-1.6793894,3.40458,2019-08-07 09:28:19,8.0
234.0,-0.0022583008,-0.109313965,-0.071777344,0.8702290000000001,-0.07633588,5.816794,2019-08-07 09:28:19,8.0
235.0,-0.0073242188,-0.10321045,-0.07684326,-18.366413,-3.6412212999999998,9.763359,2019-08-07 09:28:19,8.0
236.0,-0.006591797,-0.09417724599999999,-0.06732178,-22.740458,-3.4732822999999997,7.4198475,2019-08-07 09:28:19,8.0
237.0,-0.014709473,-0.09240723,-0.07720947,2.312977,6.259542,-5.671755999999999,2019-08-07 09:28:19,8.0
238.0,-0.0126953125,-0.08868408,-0.08465576,-8.702291,3.0687022,-17.091601999999998,2019-08-07 09:28:19,8.0
239.0,-0.009399414,-0.09655762,-0.07775879,52.62595400000001,22.595419,-28.824427000000004,2019-08-07 09:28:20,8.0
240.0,-0.002319336,-0.10473633,-0.0758667,52.480915,34.83206,-27.19084,2019-08-07 09:28:20,8.0
241.0,-0.0017700195,-0.10699463,-0.082214355,74.31298000000001,47.114502,-31.053434000000003,2019-08-07 09:28:20,8.0
242.0,0.0033569335999999996,-0.12359619,-0.06616211,66.26717,52.251907,-31.465649,2019-08-07 09:28:20,8.0
243.0,-0.00012207031000000001,-0.13079834,-0.052978515999999996,34.099236,48.748093,-39.282444,2019-08-07 09:28:20,8.0
244.0,0.020507812,-0.1303711,-0.051208496,14.824428,47.625954,-49.221375,2019-08-07 09:28:20,8.0
245.0,0.01361084,-0.13476562,-0.040100098,11.19084,28.282442,-55.221375,2019-08-07 09:28:20,8.0
246.0,0.020507812,-0.13635254,-0.03137207,4.7251905999999995,5.8015265,-54.297709999999995,2019-08-07 09:28:20,8.0
247.0,0.027160645,-0.11602783,-0.025024414,-42.221375,-14.816792999999999,-68.229004,2019-08-07 09:28:20,8.0
248.0,0.043640137,-0.095581055,-0.038146973,-47.595420000000004,-46.290077000000004,-76.96183,2019-08-07 09:28:20,8.0
249.0,0.030578612999999998,-0.09411621,-0.034301757999999995,-30.312977000000004,-71.83969,-69.31298000000001,2019-08-07 09:28:20,8.0
250.0,0.035705566,-0.08343506,-0.055603027,-47.137405,-88.099236,-56.396946,2019-08-07 09:28:20,8.0
251.0,0.026184082,-0.08630371,-0.06896973,-28.755726,-100.36641,-53.244274,2019-08-07 09:28:20,8.0
252.0,0.011169433999999999,-0.09234619,-0.07006836,-16.435114000000002,-81.94655999999999,-53.48855,2019-08-07 09:28:20,8.0
253.0,0.017700195,-0.0871582,-0.09277344,-58.82443000000001,-76.62595,-47.229008,2019-08-07 09:28:20,8.0
254.0,0.018554688,-0.072753906,-0.09649658,-11.480916,-50.290077000000004,-37.755726,2019-08-07 09:28:20,8.0
255.0,0.020324707,-0.06866455,-0.08093262,72.60305,-24.404581,-32.603054,2019-08-07 09:28:20,8.0
256.0,0.02709961,-0.08972168,-0.08917236,131.31297,-15.21374,-38.923664,2019-08-07 09:28:20,8.0
257.0,0.005126953,-0.11401367,-0.07287598,105.908394,-10.923664,-26.076335999999998,2019-08-07 09:28:20,8.0
258.0,0.019470215,-0.09863281,-0.07202148400000001,-46.656490000000005,-15.038167999999999,-22.419847,2019-08-07 09:28:20,8.0
259.0,0.012145996000000001,-0.07073974599999999,-0.07910156,-50.46565,-5.0229006,-4.9541984,2019-08-07 09:28:20,8.0
260.0,0.01361084,-0.07379150400000001,-0.07611084,73.503815,24.267176,-23.709923,2019-08-07 09:28:20,8.0
261.0,0.016662598,-0.12097168,-0.07324219,68.32825,21.358778,-12.793892999999999,2019-08-07 09:28:20,8.0
262.0,0.0056152343999999995,-0.12207031,-0.07092285,-33.297709999999995,8.442748,-22.671754999999997,2019-08-07 09:28:20,8.0
263.0,0.027160645,-0.107299805,-0.066345215,-49.0,25.007633,-18.748089999999998,2019-08-07 09:28:20,8.0
264.0,0.031921387,-0.10394287,-0.06994629,-56.84733000000001,3.1221373,-34.412212,2019-08-07 09:28:20,8.0
265.0,0.032714844,-0.1071167,-0.074035645,-38.717556,0.67175573,-38.12214,2019-08-07 09:28:20,8.0
266.0,0.039123535,-0.10314941400000001,-0.06793213,-59.77099200000001,-6.259542,-36.091602,2019-08-07 09:28:20,8.0
267.0,0.04296875,-0.09057617,-0.055419922,-87.061066,-30.42748,-27.755726,2019-08-07 09:28:20,8.0
268.0,0.038146973,-0.07727051,-0.0859375,-105.61068999999999,-41.671757,-30.038168,2019-08-07 09:28:20,8.0
269.0,0.038513184,-0.06738281,-0.07550049,-51.274809999999995,-35.335876,-9.320611,2019-08-07 09:28:20,8.0
270.0,0.03717041,-0.068359375,-0.08074951,-67.76335999999999,-36.320609999999995,3.4351146,2019-08-07 09:28:20,8.0
271.0,0.028747559,-0.05517578,-0.09826660000000001,-30.12977,-22.015266,0.122137405,2019-08-07 09:28:20,8.0
272.0,0.01953125,-0.08312988,-0.09197998,54.389313,-5.2061067,5.587786,2019-08-07 09:28:20,8.0
273.0,0.018371582,-0.09405517599999999,-0.09033203,14.687023000000002,1.8244275,-4.366412,2019-08-07 09:28:20,8.0
274.0,0.029418945,-0.08666992,-0.09490967,12.122137,6.862595599999999,-2.6030533,2019-08-07 09:28:20,8.0
275.0,0.022216797000000003,-0.09375,-0.08746338,28.267176,17.076335999999998,-1.3053435,2019-08-07 09:28:21,8.0
276.0,0.025878906,-0.08294678,-0.08825683599999999,29.335878000000005,26.282442,-0.2977099,2019-08-07 09:28:21,8.0
277.0,0.03527832,-0.07739258,-0.086120605,136.70993,35.755726,-12.045800999999999,2019-08-07 09:28:21,8.0
278.0,0.028503418,-0.09924316400000001,-0.06921387,166.48856,44.076336,17.06107,2019-08-07 09:28:21,8.0
279.0,0.034606934,-0.11254883,-0.06323242,104.099236,53.709922999999996,37.320609999999995,2019-08-07 09:28:21,8.0
280.0,0.039001465,-0.10821533,-0.07269287,96.0229,75.770996,32.961834,2019-08-07 09:28:21,8.0
281.0,0.044555664,-0.12921143,-0.055908203,108.31298000000001,91.770996,47.068703,2019-08-07 09:28:21,8.0
282.0,0.04699707,-0.13262939999999998,-0.044616699999999995,68.51908,61.59542,45.83206,2019-08-07 09:28:21,8.0
283.0,0.035949707000000004,-0.10522461,-0.056640625,32.809162,9.732824,43.358779999999996,2019-08-07 09:28:21,8.0
284.0,0.009521484,-0.10675049,-0.051452637,29.160304999999997,1.8625953999999998,25.38168,2019-08-07 09:28:21,8.0
285.0,0.025817871000000003,-0.11138916,-0.007690429699999999,5.1374044,31.969465000000003,31.625953999999997,2019-08-07 09:28:21,8.0
286.0,0.024414062,-0.101745605,-0.01586914,-37.480915,11.274809,-0.36641222,2019-08-07 09:28:21,8.0
287.0,0.008850098,-0.10534668,-0.045776367000000005,33.190838,28.961832,-6.343511599999999,2019-08-07 09:28:21,8.0
288.0,0.010803223,-0.10968017599999999,-0.026977539,54.30534399999999,34.25954,-26.48855,2019-08-07 09:28:21,8.0
289.0,0.024230957,-0.10546875,-0.029724121000000003,78.12977,50.648853,-16.06107,2019-08-07 09:28:21,8.0
290.0,0.02709961,-0.10449219,-0.036315917999999996,44.908398,48.48855,-26.687022999999996,2019-08-07 09:28:21,8.0
291.0,0.04248047,-0.095581055,-0.026428222999999997,85.221375,63.51145,-20.06107,2019-08-07 09:28:21,8.0
292.0,0.03314209,-0.10290527,-0.033325195,139.29771000000002,75.41984599999999,-20.442749,2019-08-07 09:28:21,8.0
293.0,0.05517578,-0.12408447,-0.007690429699999999,154.14503,83.183205,-11.167939,2019-08-07 09:28:21,8.0
294.0,0.04724121,-0.11828613,0.0087890625,124.51908,32.473279999999995,-12.755725,2019-08-07 09:28:21,8.0
295.0,0.05255127,-0.12579346,0.025878906,130.59541000000002,31.496183000000002,-3.7557251000000003,2019-08-07 09:28:21,8.0
296.0,0.04852295,-0.12023926,0.034240723,102.48092,5.4274807,-7.8778625,2019-08-07 09:28:21,8.0
297.0,0.0423584,-0.11773682,0.03186035,115.816795,5.7251905999999995,-4.9389315,2019-08-07 09:28:21,8.0
298.0,0.051391599999999996,-0.13000488,0.04663086,93.83206,3.9770992,-2.221374,2019-08-07 09:28:21,8.0
299.0,0.04425049,-0.110839844,0.038085938,61.290077000000004,-0.8244275,-6.89313,2019-08-07 09:28:21,8.0
300.0,0.037597656,-0.10980224599999999,0.04699707,79.05344000000001,-0.7480916,-11.625955000000001,2019-08-07 09:28:21,8.0
301.0,0.040771484,-0.11584473,0.044921875,77.51145,4.9770994,-11.21374,2019-08-07 09:28:21,8.0
302.0,0.024475097999999997,-0.11578369,0.043945312,69.96947,6.8320612999999994,-10.404580000000001,2019-08-07 09:28:21,8.0
303.0,0.03527832,-0.09729004,0.060791015999999996,18.419847,12.938931,-9.480916,2019-08-07 09:28:21,8.0
304.0,0.04437256,-0.085876465,0.051757812,74.63359,9.931297,4.1603055,2019-08-07 09:28:21,8.0
305.0,0.03253174,-0.09020996,0.06854248,73.32061,6.587786,5.2137402999999996,2019-08-07 09:28:21,8.0
306.0,0.022583007999999998,-0.10003662,0.07525635,80.69466,10.7404585,17.786259,2019-08-07 09:28:21,8.0
307.0,0.03302002,-0.09863281,0.08251953,89.03817,2.129771,18.946566,2019-08-07 09:28:21,8.0
308.0,0.033935547,-0.09649658,0.0836792,81.87786,-6.0229006,14.114504,2019-08-07 09:28:21,8.0
309.0,0.036499023,-0.10321045,0.09625244,45.85496,-2.4885497,16.709923,2019-08-07 09:28:21,8.0
310.0,0.038635254,-0.09716797,0.08959961,18.374046,-3.0076337000000004,5.8396945,2019-08-07 09:28:22,8.0
311.0,0.03338623,-0.0949707,0.08770752,-6.625953999999999,-1.6030535,-2.4580152,2019-08-07 09:28:22,8.0
312.0,0.026428222999999997,-0.095703125,0.07946777,-48.984734,-5.1679387000000006,-15.145039,2019-08-07 09:28:22,8.0
313.0,0.024353027000000003,-0.08532715,0.08172607400000001,-95.061066,7.900763499999999,-15.328244,2019-08-07 09:28:22,8.0
314.0,0.028564452999999997,-0.09387207,0.07086182,-119.0687,-0.41221374,-22.213741,2019-08-07 09:28:22,8.0
315.0,0.030761719,-0.10015869,0.06072998,-109.9771,-17.442749,-26.519083000000002,2019-08-07 09:28:22,8.0
316.0,0.038085938,-0.09729004,0.06750488,-94.40458000000001,0.19847329,-17.877863,2019-08-07 09:28:22,8.0
317.0,0.05712890599999999,-0.09863281,0.037475586,-77.45038000000001,4.366412,5.740458,2019-08-07 09:28:22,8.0
318.0,0.052490234000000004,-0.10913086,0.049987792999999996,-10.549619,-14.80916,15.412213000000001,2019-08-07 09:28:22,8.0
319.0,0.051513672,-0.10888672,0.059265137,-26.526718,1.5954198999999998,21.526718,2019-08-07 09:28:22,8.0
320.0,0.05609131,-0.13946533,0.056762695,-133.60306,-5.2442746,6.190840000000001,2019-08-07 09:28:22,8.0
321.0,0.06469726599999999,-0.12451172,0.020996094,-141.8855,-21.603054,24.053434,2019-08-07 09:28:22,8.0
322.0,0.055725098,-0.12420654,0.019714355,-134.48091000000002,-33.458015,7.7328243,2019-08-07 09:28:22,8.0
323.0,0.057800292999999996,-0.115356445,-0.005065918,-66.1145,-11.717557000000001,-1.7633588,2019-08-07 09:28:22,8.0
324.0,0.03314209,-0.119018555,0.013244628999999999,-9.717557000000001,4.343511599999999,9.21374,2019-08-07 09:28:22,8.0
325.0,0.03741455,-0.11389160000000002,0.031677246,8.015267,19.366413,21.015266,2019-08-07 09:28:22,8.0
326.0,0.03253174,-0.11315918,0.0034179688000000002,21.351145000000002,3.1755726,-5.3511453,2019-08-07 09:28:22,8.0
327.0,0.019714355,-0.12469482400000001,0.005065918,51.885498,21.885496,-0.35877863,2019-08-07 09:28:22,8.0
328.0,0.02368164,-0.10632324,-0.0024414061999999998,42.198475,37.091602,-20.641222,2019-08-07 09:28:22,8.0
329.0,0.03491211,-0.12854004,0.04333496,76.23664000000001,16.030535,-20.503817,2019-08-07 09:28:22,8.0
330.0,0.028503418,-0.11230469,0.04522705,50.389313,-6.7709923,-16.305344,2019-08-07 09:28:22,8.0
331.0,0.036376953,-0.1149292,0.043151855,107.14503500000001,-3.4503817999999997,-10.587786999999999,2019-08-07 09:28:22,8.0
332.0,0.041625977,-0.11437988,0.0680542,36.53435,2.3282442000000003,-14.40458,2019-08-07 09:28:22,8.0
333.0,0.04058838,-0.11859131,0.050048828,31.641221999999996,-10.152672,-5.8778625,2019-08-07 09:28:22,8.0
334.0,0.038513184,-0.12341308599999999,0.038513184,-29.984734000000003,-5.2824425999999995,-10.442748,2019-08-07 09:28:22,8.0
335.0,0.039123535,-0.11968994,0.044189453,-43.435116,-1.7786259999999998,-11.083969,2019-08-07 09:28:22,8.0
336.0,0.04663086,-0.11010742,0.03656006,-20.435114000000002,-2.8625952999999997,-9.946565,2019-08-07 09:28:22,8.0
337.0,0.033935547,-0.106933594,0.043884277,5.847328,-0.41984734,-8.709924,2019-08-07 09:28:22,8.0
338.0,0.04748535,-0.11370849599999999,0.055236815999999994,12.671756,-4.145038,-9.297709,2019-08-07 09:28:22,8.0
339.0,0.045715332000000004,-0.11230469,0.042297363,-5.4885497,-13.007633,-15.641221,2019-08-07 09:28:22,8.0
340.0,0.043823242000000005,-0.10949707,0.043823242000000005,20.671754999999997,-6.396946400000001,-21.145039,2019-08-07 09:28:22,8.0
341.0,0.056518555,-0.12445068,0.03857422,28.839695000000003,-22.259542,-24.89313,2019-08-07 09:28:22,8.0
342.0,0.050476074,-0.113098145,0.03967285,24.045801,-15.053435,-25.274809,2019-08-07 09:28:22,8.0
343.0,0.036315917999999996,-0.10980224599999999,0.0390625,-6.5648856,-20.274809,-34.702290000000005,2019-08-07 09:28:22,8.0
344.0,0.04272461,-0.10247803,0.029785156,0.99236643,-19.305344,-32.10687,2019-08-07 09:28:22,8.0
345.0,0.04888916,-0.10858154,0.030151367000000002,18.656488,-13.320610999999998,-31.969465000000003,2019-08-07 09:28:23,8.0
346.0,0.059265137,-0.10601807,0.037719727,23.389313,-6.931298,-26.305344,2019-08-07 09:28:23,8.0
347.0,0.049438477,-0.10186767599999999,0.04107666,2.6183207000000004,-11.236641,-29.740458,2019-08-07 09:28:23,8.0
348.0,0.058044434000000006,-0.10839844,0.042236328,-0.45038167,-10.251908,-32.183205,2019-08-07 09:28:23,8.0
349.0,0.07464599599999999,-0.11364746,0.04272461,-13.206107000000001,-15.068703,-36.46565,2019-08-07 09:28:23,8.0
350.0,0.06756592,-0.11816406,0.047058105,-36.671757,-7.9923663000000005,-28.396946000000003,2019-08-07 09:28:23,8.0
351.0,0.07391357400000001,-0.10961914,0.039794922,-38.46565,-11.061069,-20.786259,2019-08-07 09:28:23,8.0
352.0,0.07171631,-0.09411621,0.038146973,-36.267174,-10.664123,-24.770992,2019-08-07 09:28:23,8.0
353.0,0.07055664,-0.10607910000000002,0.028381347999999997,-4.656488400000001,-18.358778,-17.038168,2019-08-07 09:28:23,8.0
354.0,0.07971191400000001,-0.109191895,0.02960205,-38.984734,-25.862595000000002,-20.61832,2019-08-07 09:28:23,8.0
355.0,0.07525635,-0.10913086,0.027709961,-46.038166,-24.770992,-12.488549,2019-08-07 09:28:23,8.0
356.0,0.07128906,-0.10516357400000001,0.02734375,-48.030533,-34.717556,-9.206107000000001,2019-08-07 09:28:23,8.0
357.0,0.06512451,-0.09844971,0.02520752,-41.312977000000004,-30.160304999999997,-8.526717,2019-08-07 09:28:23,8.0
358.0,0.06988525400000001,-0.09991455,0.01550293,-32.21374,-38.9771,-12.312977,2019-08-07 09:28:23,8.0
359.0,0.06500244,-0.09844971,0.019714355,-34.778625,-30.664121999999995,-13.442748000000002,2019-08-07 09:28:23,8.0
360.0,0.07611084,-0.09967041,0.015808105,-2.1221373,-26.969465000000003,-18.549618,2019-08-07 09:28:23,8.0
361.0,0.07287598,-0.10882568,0.013061523,-2.0687022,-31.969465000000003,-18.030535,2019-08-07 09:28:23,8.0
362.0,0.07202148400000001,-0.10705566400000001,0.018371582,-26.152672,-38.748093,-19.259542,2019-08-07 09:28:23,8.0
363.0,0.08581543,-0.11621094,0.010803223,-55.114502,-55.21374,-15.832060999999998,2019-08-07 09:28:23,8.0
364.0,0.07971191400000001,-0.11151123,0.009521484,-83.41984599999999,-66.15267,-19.534351,2019-08-07 09:28:23,8.0
365.0,0.07519531,-0.105407715,-0.014160156,-68.87786,-77.0229,-24.190839999999998,2019-08-07 09:28:23,8.0
366.0,0.07751465,-0.096191406,-0.008117675999999999,-54.412212,-67.824425,-23.244274,2019-08-07 09:28:23,8.0
367.0,0.07165527,-0.08996582,-0.01171875,-57.0,-66.29008,-22.732824,2019-08-07 09:28:23,8.0
368.0,0.061645507999999995,-0.08483887,-0.029663086,-52.48855,-61.885498,-15.824428,2019-08-07 09:28:23,8.0
369.0,0.061279297,-0.078186035,-0.035705566,-38.038166,-42.992367,-14.076335999999998,2019-08-07 09:28:23,8.0
370.0,0.06683349599999999,-0.07763672,-0.0234375,-37.267174,-30.23664,-16.679389999999998,2019-08-07 09:28:23,8.0
371.0,0.07104492,-0.08160400400000001,-0.031921387,-23.076335999999998,-25.06107,-17.10687,2019-08-07 09:28:23,8.0
372.0,0.07684326,-0.08129883,-0.035583496,-17.343512,-8.961832000000001,-20.206106,2019-08-07 09:28:23,8.0
373.0,0.07165527,-0.08959961,-0.03930664,11.427481,-2.6183207000000004,-19.786259,2019-08-07 09:28:23,8.0
374.0,0.07147217,-0.093933105,-0.03363037,-7.9160304,1.9389313000000001,-21.816793,2019-08-07 09:28:23,8.0
375.0,0.08001709,-0.09741211,-0.03729248,-31.801527,8.587786999999999,-27.900763,2019-08-07 09:28:23,8.0
376.0,0.07495117,-0.08062744,-0.03125,-19.244274,10.198473,-26.687022999999996,2019-08-07 09:28:23,8.0
377.0,0.07202148400000001,-0.08331299,-0.03479004,-0.14503817,7.519083999999999,-26.412214000000002,2019-08-07 09:28:23,8.0
378.0,0.060913086,-0.07843017599999999,-0.025512695,-24.824427,2.442748,-20.954199,2019-08-07 09:28:23,8.0
379.0,0.066589355,-0.074157715,-0.030822753999999997,-22.160304999999997,-1.4503816,-4.656488400000001,2019-08-07 09:28:23,8.0
380.0,0.06976318,-0.09509277,-0.03314209,43.053436,9.015267,1.2366412,2019-08-07 09:28:23,8.0
381.0,0.08502197,-0.107421875,-0.026733398,-3.5801528,0.43511450000000007,-3.206107,2019-08-07 09:28:23,8.0
382.0,0.06536865,-0.08721924,-0.04046631,-15.541985,-4.5038165999999995,5.183206,2019-08-07 09:28:24,8.0
383.0,0.078125,-0.07763672,-0.03112793,-18.91603,12.267176,2.1068702,2019-08-07 09:28:24,8.0
384.0,0.08343506,-0.08703613,-0.026794434,-13.862596,-2.3053436,6.862595599999999,2019-08-07 09:28:24,8.0
385.0,0.09045410000000001,-0.09399414,-0.045043945,10.450381,0.8778626,5.6793895,2019-08-07 09:28:24,8.0
386.0,0.08508301,-0.09448242,-0.03100586,-10.19084,6.8549619999999996,-0.129771,2019-08-07 09:28:24,8.0
387.0,0.07702637,-0.085998535,-0.038391113,-17.015266,3.9541983999999997,-5.664122,2019-08-07 09:28:24,8.0
388.0,0.07855224599999999,-0.076049805,-0.030334472999999997,12.167939,8.526717,0.5954198,2019-08-07 09:28:24,8.0
389.0,0.08251953,-0.08245849599999999,-0.037109375,22.374046,5.412214,1.9694656000000004,2019-08-07 09:28:24,8.0
390.0,0.08062744,-0.083984375,-0.02960205,11.908397,1.2061069,-0.061068702,2019-08-07 09:28:24,8.0
391.0,0.08679199,-0.09448242,-0.039245605,18.923664000000002,1.7633588,-2.9923662999999996,2019-08-07 09:28:24,8.0
392.0,0.08361816400000001,-0.09588623,-0.039367676000000004,5.473282299999999,0.7633588000000001,-2.6564887,2019-08-07 09:28:24,8.0
393.0,0.08703613,-0.08831787,-0.037963867000000005,-2.1068702,3.793893,-3.1221373,2019-08-07 09:28:24,8.0
394.0,0.08300781,-0.08734131,-0.026489257999999998,0.9236641,9.725191,-1.259542,2019-08-07 09:28:24,8.0
395.0,0.078125,-0.08660889,-0.035827637,5.9923663000000005,-0.48854962,-3.076336,2019-08-07 09:28:24,8.0
396.0,0.0725708,-0.08654785,-0.036804199999999995,-8.618319999999999,0.71755725,-0.8778626,2019-08-07 09:28:24,8.0
397.0,0.08258057,-0.091674805,-0.04083252,-12.519084,8.022901,-0.86259544,2019-08-07 09:28:24,8.0
398.0,0.08483887,-0.09460449,-0.035949707000000004,-14.2213745,2.427481,-4.3129773,2019-08-07 09:28:24,8.0
399.0,0.08148193,-0.08843994,-0.03491211,-4.6488547,3.1603053,-3.961832,2019-08-07 09:28:24,8.0
400.0,0.078186035,-0.078308105,-0.03881836,-18.38168,2.0076337,-4.2442746,2019-08-07 09:28:24,8.0
401.0,0.07885742,-0.09155273400000001,-0.043151855,1.8549619,5.328244000000001,0.6488550000000001,2019-08-07 09:28:24,8.0
402.0,0.07702637,-0.0871582,-0.03564453,-3.2442749,5.442748,-3.0458016,2019-08-07 09:28:24,8.0
403.0,0.08532715,-0.09436035,-0.030700684,1.3435115,5.9160304,-4.5648856,2019-08-07 09:28:24,8.0
404.0,0.08416748,-0.08557129,-0.041320800000000005,5.8778625,2.5877862,-4.442748,2019-08-07 09:28:24,8.0
405.0,0.07720947,-0.08703613,-0.038024902,4.473282299999999,5.633588,-3.5877862,2019-08-07 09:28:24,8.0
406.0,0.07684326,-0.08795166,-0.039916992000000005,6.3893127,6.3129773,-4.2900763,2019-08-07 09:28:24,8.0
407.0,0.08660889,-0.09082031,-0.035705566,13.183207000000001,7.1450380000000004,-0.77099234,2019-08-07 09:28:24,8.0
408.0,0.08325195,-0.09649658,-0.039123535,-0.5648854999999999,9.351144999999999,-0.08396947,2019-08-07 09:28:24,8.0
409.0,0.08728027,-0.08123779,-0.03466797,11.648855000000001,8.511451,0.5114504,2019-08-07 09:28:24,8.0
410.0,0.07653808599999999,-0.08300781,-0.028991700000000002,14.328244,8.129771,-2.9541984,2019-08-07 09:28:24,8.0
411.0,0.07977295,-0.083862305,-0.031921387,9.389313000000001,7.328244000000001,-2.6335877999999995,2019-08-07 09:28:24,8.0
412.0,0.08483887,-0.087402344,-0.026916503999999997,11.664123,6.8320612999999994,-0.43511450000000007,2019-08-07 09:28:24,8.0
413.0,0.08154297,-0.09063721,-0.036315917999999996,22.770992,5.2061067,-1.8854961,2019-08-07 09:28:24,8.0
414.0,0.07678223,-0.08874512,-0.03918457,9.938931,7.603053599999999,-3.3664122000000005,2019-08-07 09:28:24,8.0
415.0,0.07550049,-0.08563232400000001,-0.02746582,4.10687,9.251908,-2.0610688,2019-08-07 09:28:24,8.0
416.0,0.08721924,-0.081970215,-0.027709961,14.480916,8.541985,-1.6717557,2019-08-07 09:28:24,8.0
417.0,0.07598877,-0.093688965,-0.021972656,25.251910000000002,6.1755724,1.6412214,2019-08-07 09:28:24,8.0
418.0,0.07897949,-0.09448242,-0.023803711,4.114504,3.1526718,-0.5114504,2019-08-07 09:28:25,8.0
419.0,0.078063965,-0.095825195,-0.026550293,12.862596,2.7862597,-1.8778626,2019-08-07 09:28:25,8.0
420.0,0.07910156,-0.087768555,-0.023376465,13.603053,5.40458,-0.41221374,2019-08-07 09:28:25,8.0
421.0,0.07373047,-0.085754395,-0.019714355,14.122137,3.1908397999999996,1.2366412,2019-08-07 09:28:25,8.0
422.0,0.08557129,-0.08843994,-0.022644043,11.396947,6.4580154,1.0534351,2019-08-07 09:28:25,8.0
423.0,0.07391357400000001,-0.09417724599999999,-0.024719237999999998,15.549619,7.465648700000001,2.0305343000000002,2019-08-07 09:28:25,8.0
424.0,0.08105469,-0.08068848,-0.024536132999999998,33.190838,10.648855000000001,2.946565,2019-08-07 09:28:25,8.0
425.0,0.07159424,-0.09033203,-0.013793945,44.83206,16.816793,7.839694500000001,2019-08-07 09:28:25,8.0
426.0,0.08502197,-0.10455322,-0.027770996000000003,17.122137,9.816792999999999,8.931297,2019-08-07 09:28:25,8.0
427.0,0.086120605,-0.10412598,-0.016784668,-21.679389999999998,9.068703,1.389313,2019-08-07 09:28:25,8.0
428.0,0.08239746,-0.09265137,-0.023803711,-4.5038165999999995,9.610686999999999,1.4198473999999999,2019-08-07 09:28:25,8.0
429.0,0.06744385,-0.06085205,-0.01977539,11.305344,7.5496182,5.519083999999999,2019-08-07 09:28:25,8.0
430.0,0.07293701,-0.08624267599999999,-0.026062012000000002,130.39694,20.045801,19.931297,2019-08-07 09:28:25,8.0
431.0,0.06933594,-0.10003662,0.00018310547,21.557251,14.412213000000001,14.045801,2019-08-07 09:28:25,8.0
432.0,0.078308105,-0.09698486,-0.00592041,52.374046,22.969465,14.541985,2019-08-07 09:28:25,8.0
433.0,0.078125,-0.11242676,0.0020751953,45.404579999999996,16.603054,8.603053,2019-08-07 09:28:25,8.0
434.0,0.076049805,-0.10089111,0.005737304699999999,45.541985,14.389313000000001,4.335878,2019-08-07 09:28:25,8.0
435.0,0.06970215,-0.10705566400000001,0.010192871,23.06107,14.030535,1.7480916000000002,2019-08-07 09:28:25,8.0
436.0,0.08001709,-0.10272217,0.002319336,13.129771,12.946565,0.65648854,2019-08-07 09:28:25,8.0
437.0,0.07366943,-0.0993042,0.005737304699999999,12.664123,8.480916,0.6259541999999999,2019-08-07 09:28:25,8.0
438.0,0.07196045,-0.099609375,0.017089844,9.725191,7.923664,3.5725190000000002,2019-08-07 09:28:25,8.0
439.0,0.07824707,-0.09460449,0.0038452148,9.053435,6.236641400000001,2.4885497,2019-08-07 09:28:25,8.0
440.0,0.07452392599999999,-0.097473145,0.009399414,21.091601999999998,3.3282442000000003,3.4503817999999997,2019-08-07 09:28:25,8.0
441.0,0.07470703,-0.106933594,0.012390136999999999,31.564885999999998,-0.64122134,5.6870227,2019-08-07 09:28:25,8.0
442.0,0.070373535,-0.09899902,0.009155273,39.603054,-2.832061,5.625954,2019-08-07 09:28:25,8.0
443.0,0.07348633,-0.09088135,0.008544922,64.46565,-3.1145039,13.694656,2019-08-07 09:28:25,8.0
444.0,0.07550049,-0.099731445,0.022827148,93.47328,-8.083969,16.671754999999997,2019-08-07 09:28:25,8.0
445.0,0.07873535,-0.09069824,0.032165527,99.58778000000001,-8.381680000000001,16.480917,2019-08-07 09:28:25,8.0
446.0,0.07000732400000001,-0.10021973,0.037841797,95.137405,-12.557252,15.633588,2019-08-07 09:28:25,8.0
447.0,0.071777344,-0.10516357400000001,0.028381347999999997,73.41221999999999,-10.633588,15.557251999999998,2019-08-07 09:28:25,8.0
448.0,0.06329346,-0.11138916,0.026611327999999997,40.53435,-5.442748,13.679389000000002,2019-08-07 09:28:25,8.0
449.0,0.06286621,-0.10241699,0.038024902,23.816793,-3.5038167999999996,6.3587785000000006,2019-08-07 09:28:25,8.0
450.0,0.07556152,-0.10168457,0.035461426000000004,12.2595415,0.53435117,4.0839696000000005,2019-08-07 09:28:25,8.0
451.0,0.07421875,-0.109436035,0.035888672,-13.106871,2.1908397999999996,-4.1984735,2019-08-07 09:28:25,8.0
452.0,0.06506348,-0.10589599599999999,0.042053223,8.389313000000001,0.18320611,-7.8702292,2019-08-07 09:28:25,8.0
453.0,0.06799316400000001,-0.10076904,0.032043457000000004,13.007633,-0.022900764,-9.755725,2019-08-07 09:28:26,8.0
454.0,0.062683105,-0.10217285,0.041809082000000004,-4.2290077,2.8931298,-15.511451000000001,2019-08-07 09:28:26,8.0
455.0,0.06579589999999999,-0.09820557,0.032836914,-9.503817,0.099236645,-15.206107000000001,2019-08-07 09:28:26,8.0
456.0,0.062072754,-0.097717285,0.02911377,-3.2290077,3.9541983999999997,-8.122137,2019-08-07 09:28:26,8.0
457.0,0.07373047,-0.095825195,0.026062012000000002,9.732824,7.7328243,-6.4198474999999995,2019-08-07 09:28:26,8.0
458.0,0.06719971,-0.09552002,0.032409667999999996,7.114503999999999,5.5419846,-5.961832,2019-08-07 09:28:26,8.0
459.0,0.07684326,-0.09954834,0.042297363,11.7786255,3.129771,-2.129771,2019-08-07 09:28:26,8.0
460.0,0.068359375,-0.09271239999999999,0.039916992000000005,6.900763499999999,0.48854962,-5.0305343,2019-08-07 09:28:26,8.0
461.0,0.07055664,-0.09069824,0.045166015999999996,13.671756,-2.465649,-5.8015265,2019-08-07 09:28:26,8.0
462.0,0.070495605,-0.09478760000000001,0.04156494,1.2519083999999998,-2.1908397999999996,-4.9923663000000005,2019-08-07 09:28:26,8.0
463.0,0.06738281,-0.0960083,0.04058838,1.6793894,-3.5267177000000003,-3.2824428,2019-08-07 09:28:26,8.0
464.0,0.06463623,-0.08935547,0.033935547,0.045801528,1.961832,-2.2519082999999998,2019-08-07 09:28:26,8.0
465.0,0.071777344,-0.09277344,0.0435791,5.4885497,0.32824427,0.41221374,2019-08-07 09:28:26,8.0
466.0,0.08142089999999999,-0.09161377,0.035217285,2.6488549999999997,1.8931297999999999,-0.43511450000000007,2019-08-07 09:28:26,8.0
467.0,0.07971191400000001,-0.09588623,0.038146973,4.809159999999999,-1.1908396,1.1221374,2019-08-07 09:28:26,8.0
468.0,0.06591797,-0.09466553,0.039001465,27.465649,-1.1755725000000001,1.2290076,2019-08-07 09:28:26,8.0
469.0,0.062316895,-0.09722900400000001,0.04296875,11.335877,-0.60305345,1.1832061000000003,2019-08-07 09:28:26,8.0
470.0,0.06555176,-0.09509277,0.041503906,-6.6412214999999994,2.6030533,-3.7633588,2019-08-07 09:28:26,8.0
471.0,0.06896973,-0.091674805,0.02923584,2.091603,0.70229006,-1.0839695,2019-08-07 09:28:26,8.0
472.0,0.079589844,-0.08520508,0.038146973,36.16794,-0.740458,-0.73282444,2019-08-07 09:28:26,8.0
473.0,0.061523438,-0.09692383,0.035217285,56.725190000000005,8.732824,0.41984734,2019-08-07 09:28:26,8.0
474.0,0.08721924,-0.101379395,0.054748535,26.694656,11.328244,-1.0610687,2019-08-07 09:28:26,8.0
475.0,0.0715332,-0.09802246,0.05871582,-11.702291,3.206107,-9.137404,2019-08-07 09:28:26,8.0
476.0,0.07342529,-0.09667969,0.048828125,-10.80916,5.0229006,-7.480916000000001,2019-08-07 09:28:26,8.0
477.0,0.0758667,-0.09216308599999999,0.052124023,3.183206,0.77862597,-7.6946563999999995,2019-08-07 09:28:26,8.0
478.0,0.077941895,-0.09490967,0.055358887,7.908396700000001,-1.0305344,-7.664122,2019-08-07 09:28:26,8.0
479.0,0.06970215,-0.0859375,0.04711914,-4.1679387000000006,-1.7404580000000003,-8.0,2019-08-07 09:28:26,8.0
480.0,0.08160400400000001,-0.07977295,0.037475586,23.236639999999998,-0.32824427,-5.8244276,2019-08-07 09:28:26,8.0
481.0,0.07733154,-0.0925293,0.043395996,43.55725,4.8320612999999994,-1.0992366000000002,2019-08-07 09:28:26,8.0
482.0,0.066345215,-0.09790039,0.045166015999999996,22.824427,8.015267,-3.8473281999999998,2019-08-07 09:28:26,8.0
483.0,0.06671142599999999,-0.099487305,0.050109863,5.4351144,15.984732999999999,-2.1984732000000005,2019-08-07 09:28:26,8.0
484.0,0.074157715,-0.08831787,0.057250977,-17.770992,8.335877,0.6259541999999999,2019-08-07 09:28:26,8.0
485.0,0.06481933599999999,-0.08795166,0.0546875,-17.664122,1.7862595000000001,-4.152672,2019-08-07 09:28:26,8.0
486.0,0.07739258,-0.099487305,0.05078125,-5.6106873,-0.64122134,-3.70229,2019-08-07 09:28:26,8.0
487.0,0.07312012,-0.09533691400000001,0.055908203,-12.748092,-6.152672,-5.908396700000001,2019-08-07 09:28:26,8.0
488.0,0.072143555,-0.09924316400000001,0.047180176,-31.801527,-4.5801525000000005,-9.870229,2019-08-07 09:28:27,8.0
489.0,0.07373047,-0.10040283,0.04833984400000001,-46.206109999999995,-1.5954198999999998,-22.709923,2019-08-07 09:28:27,8.0
490.0,0.07519531,-0.09307861,0.043273926,-55.87786,-4.0992365,-25.793894,2019-08-07 09:28:27,8.0
491.0,0.07220459,-0.08636474599999999,0.042053223,-4.2748094000000005,8.595419999999999,-22.709923,2019-08-07 09:28:27,8.0
492.0,0.08532715,-0.086120605,0.039611816,6.885496000000001,7.3129773,-21.778625,2019-08-07 09:28:27,8.0
493.0,0.07928467,-0.09680176,0.041625977,-9.450381,9.083969,-21.89313,2019-08-07 09:28:27,8.0
494.0,0.07885742,-0.09320068,0.042785645,-20.404581,13.755725,-22.664122,2019-08-07 09:28:27,8.0
495.0,0.077941895,-0.08874512,0.04083252,-27.076335999999998,14.152672,-22.854961,2019-08-07 09:28:27,8.0
496.0,0.08105469,-0.08276367,0.039611816,-17.946566,23.755726,-17.801527,2019-08-07 09:28:27,8.0
497.0,0.07946777,-0.09594726599999999,0.043151855,-26.198473,21.221375,-17.091601999999998,2019-08-07 09:28:27,8.0
498.0,0.08361816400000001,-0.08947754,0.036499023,-34.381679999999996,21.12977,-13.038167999999999,2019-08-07 09:28:27,8.0
499.0,0.07409668,-0.084472656,0.03778076,-47.091602,21.809160000000002,-15.328244,2019-08-07 09:28:27,8.0
500.0,0.07379150400000001,-0.07861328,0.032226562,-48.44275,20.305344,-16.801527,2019-08-07 09:28:27,8.0
501.0,0.07513428,-0.07928467,0.029541016,-28.167938,22.198473,-16.274809,2019-08-07 09:28:27,8.0
502.0,0.08050537,-0.080566406,0.03173828,-6.3511453,20.0,-16.0,2019-08-07 09:28:27,8.0
503.0,0.08557129,-0.09051514,0.043823242000000005,0.71755725,15.312976999999998,-10.045800999999999,2019-08-07 09:28:27,8.0
504.0,0.0881958,-0.08673096,0.046813965,-7.885496000000001,13.160305,-9.396947,2019-08-07 09:28:27,8.0
505.0,0.08264160000000001,-0.08227539,0.04260254,-19.740458,10.755725,-8.603053,2019-08-07 09:28:27,8.0
506.0,0.07458496,-0.08624267599999999,0.04486084,-5.8778625,6.5725193,-4.9007635,2019-08-07 09:28:27,8.0
507.0,0.06994629,-0.09649658,0.04510498,-4.0076336999999995,16.687023,-4.9541984,2019-08-07 09:28:27,8.0
508.0,0.08081055,-0.08770752,0.042297363,-12.267176,10.290076,-10.076336,2019-08-07 09:28:27,8.0
509.0,0.087890625,-0.0914917,0.037902832000000004,-0.38167940000000006,3.923664,-3.6259542000000002,2019-08-07 09:28:27,8.0
510.0,0.07843017599999999,-0.09088135,0.039916992000000005,-7.541984599999999,8.748092,-3.206107,2019-08-07 09:28:27,8.0
511.0,0.07916260000000001,-0.08605957,0.043884277,-17.91603,9.732824,-4.076336,2019-08-07 09:28:27,8.0
512.0,0.080566406,-0.08648682,0.03491211,-11.893129,5.1374044,-3.5038167999999996,2019-08-07 09:28:27,8.0
513.0,0.08300781,-0.0914917,0.03527832,-7.10687,6.671755999999999,-1.519084,2019-08-07 09:28:27,8.0
514.0,0.08081055,-0.08685303,0.041381836,-7.6488547,9.557252,1.091603,2019-08-07 09:28:27,8.0
515.0,0.08142089999999999,-0.09216308599999999,0.04046631,-4.0305343,2.4351146,0.78625953,2019-08-07 09:28:27,8.0
516.0,0.07843017599999999,-0.08660889,0.029541016,-5.5725193,3.3893129999999996,-0.52671754,2019-08-07 09:28:27,8.0
517.0,0.08538818,-0.08679199,0.039916992000000005,-3.9007633000000004,2.7557251,-0.67175573,2019-08-07 09:28:27,8.0
518.0,0.08825683599999999,-0.09454346,0.04473877,2.4198472,6.6183205,-0.23664123,2019-08-07 09:28:27,8.0
519.0,0.08160400400000001,-0.09039307,0.043823242000000005,-4.946564700000001,0.99236643,-2.8473282,2019-08-07 09:28:27,8.0
520.0,0.08026123,-0.08782959,0.03375244,-2.2900763,-0.519084,-0.6259541999999999,2019-08-07 09:28:27,8.0
521.0,0.06597900400000001,-0.09808349599999999,0.032165527,7.541984599999999,1.0610687,-1.0610687,2019-08-07 09:28:27,8.0
522.0,0.075683594,-0.09051514,0.040161132999999995,-2.480916,6.412214,-1.5419847,2019-08-07 09:28:27,8.0
523.0,0.07128906,-0.0925293,0.034851073999999996,-3.2137403,0.9847328000000002,-3.465649,2019-08-07 09:28:27,8.0
524.0,0.07141113,-0.09655762,0.035339355,-3.1145039,2.5954200000000003,-2.3740457999999998,2019-08-07 09:28:27,8.0
525.0,0.0758667,-0.09484863,0.037963867000000005,-4.3511453,0.5114504,-6.40458,2019-08-07 09:28:28,8.0
526.0,0.08160400400000001,-0.09490967,0.03112793,0.71755725,-1.5877863,-0.9541985000000001,2019-08-07 09:28:28,8.0
527.0,0.07232666,-0.09484863,0.032104492000000005,-5.068702,3.2137403,-3.2671757,2019-08-07 09:28:28,8.0
528.0,0.08270264,-0.09460449,0.032470703,-11.595419999999999,2.0076337,-5.442748,2019-08-07 09:28:28,8.0
529.0,0.07318115,-0.091796875,0.036804199999999995,-3.0458016,2.0458016,-2.5496182000000003,2019-08-07 09:28:28,8.0
530.0,0.08032226599999999,-0.09265137,0.032836914,1.5877863,4.183206,0.129771,2019-08-07 09:28:28,8.0
531.0,0.085998535,-0.09832764,0.033508300000000005,-3.1145039,2.610687,-4.442748,2019-08-07 09:28:28,8.0
532.0,0.07611084,-0.09118652,0.027648926,-2.6793892,3.6870230000000004,-3.091603,2019-08-07 09:28:28,8.0
533.0,0.08044433599999999,-0.08721924,0.034179688,1.2137405,4.557252,-2.6259542000000002,2019-08-07 09:28:28,8.0
534.0,0.07537842,-0.0871582,0.037231445,0.33587787,3.0,-3.2671757,2019-08-07 09:28:28,8.0
535.0,0.07592773400000001,-0.08953857400000001,0.03778076,3.4961832000000004,1.351145,-2.572519,2019-08-07 09:28:28,8.0
536.0,0.090026855,-0.09686279,0.034484863,2.6793892,2.4122138,0.015267176,2019-08-07 09:28:28,8.0
537.0,0.08117676,-0.091308594,0.035217285,-3.7480917000000002,2.2748091,-2.3816792999999996,2019-08-07 09:28:28,8.0
538.0,0.07360839999999999,-0.08947754,0.028076172000000003,0.5038168,-1.2442749,-4.8778625,2019-08-07 09:28:28,8.0
539.0,0.07464599599999999,-0.09539795,0.03845215,0.35114503,-0.17557251,-4.4351144,2019-08-07 09:28:28,8.0
540.0,0.0836792,-0.08825683599999999,0.03692627,-4.519083999999999,1.4045801000000002,-5.7175574000000005,2019-08-07 09:28:28,8.0
541.0,0.08203125,-0.09338379,0.03765869,-4.259542,3.6870230000000004,-5.4198474999999995,2019-08-07 09:28:28,8.0
542.0,0.0803833,-0.08892822,0.035583496,-3.0152671000000004,0.77099234,-2.091603,2019-08-07 09:28:28,8.0
543.0,0.07727051,-0.0871582,0.031433105,-3.3969467000000004,2.4198472,-4.10687,2019-08-07 09:28:28,8.0
544.0,0.08129883,-0.09417724599999999,0.032043457000000004,1.480916,3.0,-4.152672,2019-08-07 09:28:28,8.0
545.0,0.08044433599999999,-0.08850098,0.040100098,2.2900763,1.0610687,-3.0458016,2019-08-07 09:28:28,8.0
546.0,0.07641601599999999,-0.09216308599999999,0.036865234,1.9007633999999998,2.5954200000000003,-0.6335878,2019-08-07 09:28:28,8.0
547.0,0.07843017599999999,-0.09033203,0.035888672,-2.519084,0.32061067,-2.0076337,2019-08-07 09:28:28,8.0
548.0,0.07189941400000001,-0.09875488,0.027526855,-0.9236641,1.0,-1.2366412,2019-08-07 09:28:28,8.0
549.0,0.08850098,-0.09899902,0.036315917999999996,0.49618322,0.71755725,-0.045801528,2019-08-07 09:28:28,8.0
550.0,0.07196045,-0.08813476599999999,0.03479004,-3.7175572,-0.34351146,-3.2748091,2019-08-07 09:28:28,8.0
551.0,0.074157715,-0.09564209,0.036132812,-4.3893127,-0.16030534,-3.29771,2019-08-07 09:28:28,8.0
552.0,0.080200195,-0.09887695,0.03314209,-12.824428,2.6717557999999997,-3.961832,2019-08-07 09:28:28,8.0
553.0,0.07745361,-0.09326172,0.03125,-19.122137,5.9770994,-4.816794,2019-08-07 09:28:28,8.0
554.0,0.07977295,-0.09295654,0.032470703,-10.496183,1.9007633999999998,-2.8015267999999995,2019-08-07 09:28:28,8.0
555.0,0.07470703,-0.09344482400000001,0.0357666,-10.030535,1.961832,-1.9160305,2019-08-07 09:28:28,8.0
556.0,0.07849121,-0.09643555,0.026123047000000003,-10.755725,5.091603299999999,-1.2290076,2019-08-07 09:28:28,8.0
557.0,0.074157715,-0.08618164,0.034606934,-10.519084,4.557252,1.0458015,2019-08-07 09:28:28,8.0
558.0,0.07678223,-0.09234619,0.03186035,-13.091603,6.0229006,2.3587787000000002,2019-08-07 09:28:28,8.0
559.0,0.077941895,-0.08807373,0.026245117000000002,-15.015267000000001,8.290076,0.29007635,2019-08-07 09:28:28,8.0
560.0,0.06872558599999999,-0.09741211,0.023254395,-13.702291,7.152672,6.671755999999999,2019-08-07 09:28:28,8.0
561.0,0.08520508,-0.09197998,0.027770996000000003,-20.770992,11.328244,1.519084,2019-08-07 09:28:29,8.0
562.0,0.07250976599999999,-0.09832764,0.030517577999999997,-15.022901000000001,17.351145000000002,2.3969467,2019-08-07 09:28:29,8.0
563.0,0.070251465,-0.095703125,0.032592773,-3.4580152,10.694656,2.4885497,2019-08-07 09:28:29,8.0
564.0,0.07720947,-0.09045410000000001,0.03491211,-3.0076337000000004,10.374044999999999,0.8015267,2019-08-07 09:28:29,8.0
565.0,0.08068848,-0.09777832,0.029846191,-4.1679387000000006,10.419847500000001,-2.465649,2019-08-07 09:28:29,8.0
566.0,0.07434082,-0.09509277,0.03881836,19.274809,4.2442746,-3.2824428,2019-08-07 09:28:29,8.0
567.0,0.07543945,-0.10144043,0.03729248,3.2824428,2.908397,-8.938931,2019-08-07 09:28:29,8.0
568.0,0.07659912,-0.09667969,0.03845215,0.32061067,1.5496184,-10.984733,2019-08-07 09:28:29,8.0
569.0,0.07598877,-0.09326172,0.03338623,12.0,-3.59542,-8.419847500000001,2019-08-07 09:28:29,8.0
570.0,0.07354736,-0.09942627,0.031921387,8.473283,-2.6946564,-5.7938933,2019-08-07 09:28:29,8.0
571.0,0.07861328,-0.09375,0.030334472999999997,-4.908396700000001,-0.77862597,-6.053435299999999,2019-08-07 09:28:29,8.0
572.0,0.07495117,-0.08300781,0.0345459,-0.6793893,7.2748094,-3.2366412,2019-08-07 09:28:29,8.0
573.0,0.07879639,-0.07525635,0.03161621,19.664122,-6.8015265,-1.1221374,2019-08-07 09:28:29,8.0
574.0,0.07849121,-0.09155273400000001,0.040405273,27.473282,-3.8015267999999995,0.061068702,2019-08-07 09:28:29,8.0
575.0,0.07672119,-0.09039307,0.03375244,6.396946400000001,-3.7557251000000003,1.9541985,2019-08-07 09:28:29,8.0
576.0,0.08276367,-0.09094238,0.041870117000000005,6.7709923,-7.6412214999999994,4.343511599999999,2019-08-07 09:28:29,8.0
577.0,0.08050537,-0.09533691400000001,0.038024902,14.229007999999999,-7.5038165999999995,5.3816795,2019-08-07 09:28:29,8.0
578.0,0.06817627,-0.09698486,0.038085938,24.053434,-9.954199000000001,2.8015267999999995,2019-08-07 09:28:29,8.0
579.0,0.07220459,-0.1003418,0.029296875,22.366413,-14.916031,3.5877862,2019-08-07 09:28:29,8.0
580.0,0.07763672,-0.09710693,0.035339355,4.671755999999999,-12.435115,2.6183207000000004,2019-08-07 09:28:29,8.0
581.0,0.08050537,-0.09466553,0.03869629,3.70229,-10.679389,-0.06870229,2019-08-07 09:28:29,8.0
582.0,0.06842041,-0.087402344,0.041320800000000005,-6.8702292,-7.4198475,-0.7099236999999999,2019-08-07 09:28:29,8.0
583.0,0.07409668,-0.093688965,0.025146484,-6.145038,-4.4198474999999995,4.114504,2019-08-07 09:28:29,8.0
584.0,0.08618164,-0.083496094,0.02746582,-17.076335999999998,-4.7862597000000004,-0.60305345,2019-08-07 09:28:29,8.0
585.0,0.08203125,-0.09216308599999999,0.015075683999999999,27.259542,-5.2061067,8.206107000000001,2019-08-07 09:28:29,8.0
586.0,0.078186035,-0.10321045,0.02557373,1.5114504,-3.1145039,7.259542,2019-08-07 09:28:29,8.0
587.0,0.07189941400000001,-0.10144043,0.023986816,-14.946565,2.2900763,3.2442749,2019-08-07 09:28:29,8.0
588.0,0.06872558599999999,-0.08697510000000001,0.02947998,-24.328245000000003,-1.7709924,6.5343513,2019-08-07 09:28:29,8.0
589.0,0.08465576,-0.09466553,0.026123047000000003,11.687023,0.55725193,12.977099,2019-08-07 09:28:29,8.0
590.0,0.06573486,-0.10583496,0.037475586,-17.160304999999997,-2.0,10.755725,2019-08-07 09:28:29,8.0
591.0,0.07702637,-0.09832764,0.031921387,-30.656488,-0.015267176,8.954199000000001,2019-08-07 09:28:29,8.0
592.0,0.07879639,-0.10809326,0.0234375,-43.778625,-7.335878,0.114503816,2019-08-07 09:28:29,8.0
593.0,0.07397461,-0.099731445,0.03265381,-52.541985,-2.9923662999999996,-3.9847328999999996,2019-08-07 09:28:29,8.0
594.0,0.06958008,-0.10644531,0.010314941,-41.9771,-2.9770992,-5.221374,2019-08-07 09:28:29,8.0
595.0,0.06011963,-0.09686279,0.016296387,-66.35878000000001,3.2671757,-5.2137402999999996,2019-08-07 09:28:29,8.0
596.0,0.06579589999999999,-0.09436035,0.008056641,-52.358779999999996,1.2366412,-4.3587785000000006,2019-08-07 09:28:30,8.0
597.0,0.07043457,-0.09753418,0.0033569335999999996,-32.328243,0.48854962,-4.5648856,2019-08-07 09:28:30,8.0
598.0,0.07476807,-0.10784912,0.016235351999999998,-20.229008,3.9389312000000007,-4.9694657,2019-08-07 09:28:30,8.0
599.0,0.07366943,-0.11035156,0.017944336,-8.603053,1.1679389999999998,-0.9312976999999999,2019-08-07 09:28:30,8.0
600.0,0.07635498,-0.09765625,0.012573242,-9.267176,0.8167939000000001,-5.236641400000001,2019-08-07 09:28:30,8.0
601.0,0.06842041,-0.08862305,0.016357422,-2.129771,4.587786,-4.038168,2019-08-07 09:28:30,8.0
602.0,0.074035645,-0.09924316400000001,0.0032348633000000003,-10.816792999999999,10.198473,-4.259542,2019-08-07 09:28:30,8.0
603.0,0.06390381,-0.09875488,0.02545166,-24.91603,0.8015267,-5.091603299999999,2019-08-07 09:28:30,8.0
604.0,0.06793213,-0.09545898400000001,0.013000488000000001,-19.358778,-1.2442749,-8.251908,2019-08-07 09:28:30,8.0
605.0,0.07409668,-0.10473633,0.0095825195,-12.404580000000001,0.2977099,-5.8015265,2019-08-07 09:28:30,8.0
606.0,0.067871094,-0.10577392599999999,0.008422852,-28.847328000000005,-0.26717559,-5.3816795,2019-08-07 09:28:30,8.0
607.0,0.07421875,-0.10620117,0.013916016000000002,-37.572517,4.221374,-3.053435,2019-08-07 09:28:30,8.0
608.0,0.07092285,-0.09716797,-0.00042724610000000003,-14.114504,-1.3587786,-6.6106872999999995,2019-08-07 09:28:30,8.0
609.0,0.0769043,-0.10498047,0.008483886999999999,5.908396700000001,0.48854962,-3.7404580000000003,2019-08-07 09:28:30,8.0
610.0,0.06512451,-0.099121094,0.008850098,-11.702291,-0.22137405,-5.6488547,2019-08-07 09:28:30,8.0
611.0,0.07788086,-0.10131836,0.0029296875,5.10687,1.5496184,-2.908397,2019-08-07 09:28:30,8.0
612.0,0.074279785,-0.09722900400000001,0.010681152,-1.8778626,3.3435113,-3.183206,2019-08-07 09:28:30,8.0
613.0,0.074401855,-0.093566895,0.0068359375,10.312977,3.0305343,-3.4580152,2019-08-07 09:28:30,8.0
614.0,0.06951904,-0.09643555,0.0064697266000000005,30.534351,-0.70229006,-5.7557254,2019-08-07 09:28:30,8.0
615.0,0.08142089999999999,-0.097839355,0.00390625,38.664124,1.3816794,-5.4503818,2019-08-07 09:28:30,8.0
616.0,0.08050537,-0.10345459,0.011413574,34.458015,2.8015267999999995,-8.015267,2019-08-07 09:28:30,8.0
617.0,0.07208252,-0.09729004,0.016052246000000003,32.76336,4.6870227,-7.671755999999999,2019-08-07 09:28:30,8.0
618.0,0.071777344,-0.09082031,0.015258788999999998,32.992367,9.916031,-7.206106699999999,2019-08-07 09:28:30,8.0
619.0,0.07183838,-0.09729004,0.013183594,22.961832,9.145039,-6.114504,2019-08-07 09:28:30,8.0
620.0,0.08148193,-0.09552002,0.019470215,20.91603,6.145038,-6.5496182,2019-08-07 09:28:30,8.0
621.0,0.07952881,-0.09338379,0.011962891000000002,19.076335999999998,8.679389,-7.1221375,2019-08-07 09:28:30,8.0
622.0,0.08953857400000001,-0.0914917,0.012939453,16.969465,8.366412,-4.8396945,2019-08-07 09:28:30,8.0
623.0,0.07385254,-0.09375,0.023132324,16.305344,8.9007635,-1.3053435,2019-08-07 09:28:30,8.0
624.0,0.08697510000000001,-0.100097656,0.026916503999999997,14.679389000000002,6.221374,0.57251906,2019-08-07 09:28:30,8.0
625.0,0.07452392599999999,-0.09808349599999999,0.027526855,-13.328244,1.5114504,2.2748091,2019-08-07 09:28:30,8.0
626.0,0.07073974599999999,-0.09484863,0.01586914,-19.419847,2.1145039,-0.45038167,2019-08-07 09:28:30,8.0
627.0,0.07788086,-0.09899902,0.021606445,-16.358778,0.86259544,4.2824425999999995,2019-08-07 09:28:30,8.0
628.0,0.06762695,-0.09222412,0.01373291,-11.534351,-0.5648854999999999,3.0687022,2019-08-07 09:28:30,8.0
629.0,0.074279785,-0.0993042,0.015930176,2.0687022,4.221374,4.343511599999999,2019-08-07 09:28:30,8.0
630.0,0.08142089999999999,-0.093688965,0.015930176,-4.5801525000000005,0.8396947,2.3511450000000003,2019-08-07 09:28:30,8.0
631.0,0.07855224599999999,-0.09887695,0.012878418,2.2442749,-0.20610687,2.1755726,2019-08-07 09:28:31,8.0
632.0,0.06945801,-0.09442139,0.016906738,-7.0534353,1.9312977,2.6641220000000003,2019-08-07 09:28:31,8.0
633.0,0.07128906,-0.10247803,0.01373291,-4.8015265,1.2366412,2.870229,2019-08-07 09:28:31,8.0
634.0,0.06469726599999999,-0.09967041,0.01751709,-4.908396700000001,4.9160304,-1.1145038999999999,2019-08-07 09:28:31,8.0
635.0,0.07641601599999999,-0.095581055,0.0138549805,7.3587785000000006,-0.43511450000000007,-2.442748,2019-08-07 09:28:31,8.0
636.0,0.078186035,-0.10827637,0.0138549805,6.0839696,0.43511450000000007,-1.6946564999999998,2019-08-07 09:28:31,8.0
637.0,0.07482910000000001,-0.09454346,0.014953613000000001,5.4274807,2.9160306,-5.236641400000001,2019-08-07 09:28:31,8.0
638.0,0.072387695,-0.09643555,0.012512207,31.648854999999998,5.0229006,-3.8167940000000002,2019-08-07 09:28:31,8.0
639.0,0.07397461,-0.09826660000000001,0.020263672,37.717556,6.1603055,-6.145038,2019-08-07 09:28:31,8.0
640.0,0.07489014,-0.100097656,0.01373291,61.83969499999999,8.083969,-6.6335880000000005,2019-08-07 09:28:31,8.0
641.0,0.078063965,-0.095214844,0.021911621000000003,61.893130000000006,10.572519,-4.5648856,2019-08-07 09:28:31,8.0
642.0,0.07647705,-0.08953857400000001,0.039001465,52.08397,9.511451,-3.3435113,2019-08-07 09:28:31,8.0
643.0,0.07293701,-0.08947754,0.04425049,49.320609999999995,5.259542,-0.49618322,2019-08-07 09:28:31,8.0
644.0,0.07897949,-0.092285156,0.040161132999999995,42.519085,0.54198474,-1.5419847,2019-08-07 09:28:31,8.0
645.0,0.07098389,-0.09741211,0.031677246,42.46565,0.39694658,-0.79389316,2019-08-07 09:28:31,8.0
646.0,0.07580566400000001,-0.0914917,0.03643799,58.030533,2.5801528,-0.4427481,2019-08-07 09:28:31,8.0
647.0,0.07110596,-0.103637695,0.049072265999999996,55.748093000000004,2.1984732000000005,2.1603053,2019-08-07 09:28:31,8.0
648.0,0.08160400400000001,-0.095581055,0.04498291,18.343512,4.068702,-5.015267400000001,2019-08-07 09:28:31,8.0
649.0,0.07922363,-0.08764648400000001,0.043945312,28.557251,7.236641400000001,-8.137404,2019-08-07 09:28:31,8.0
650.0,0.06994629,-0.09246826,0.049560547,61.32824300000001,5.0992365,-6.8015265,2019-08-07 09:28:31,8.0
651.0,0.07861328,-0.09008789,0.06005859400000001,44.46565,4.4961834000000005,-6.908396700000001,2019-08-07 09:28:31,8.0
652.0,0.07183838,-0.07623291,0.048217773,39.992367,6.0305343,-8.671756,2019-08-07 09:28:31,8.0
653.0,0.078125,-0.0859375,0.059814453,55.954197,5.3129773,-5.053435299999999,2019-08-07 09:28:31,8.0
654.0,0.07232666,-0.08331299,0.05657959,37.320609999999995,6.1221375,-4.0458016,2019-08-07 09:28:31,8.0
655.0,0.07897949,-0.08624267599999999,0.062683105,6.557252,5.6106873,-10.656488000000001,2019-08-07 09:28:31,8.0
656.0,0.07708739999999999,-0.08093262,0.05517578,16.984734,5.1755724,-6.816794,2019-08-07 09:28:31,8.0
657.0,0.07104492,-0.08679199,0.053100586,15.664123000000002,5.7938933,-4.236641400000001,2019-08-07 09:28:31,8.0
658.0,0.08502197,-0.084472656,0.062561035,-23.51145,4.3053436,-6.6183205,2019-08-07 09:28:31,8.0
659.0,0.070129395,-0.08154297,0.06427002,-8.610686999999999,4.6106873,-2.687023,2019-08-07 09:28:31,8.0
660.0,0.07952881,-0.08294678,0.06964111,-4.2900763,0.16793893,-2.5267177000000003,2019-08-07 09:28:31,8.0
661.0,0.08282471,-0.08642578,0.061645507999999995,7.0534353,0.29007635,0.45801526,2019-08-07 09:28:31,8.0
662.0,0.07891846,-0.09704589999999999,0.06213379,-19.366413,-3.40458,-0.55725193,2019-08-07 09:28:31,8.0
663.0,0.07366943,-0.09649658,0.05883789,-55.87786,-0.9541985000000001,-4.4274807,2019-08-07 09:28:31,8.0
664.0,0.08276367,-0.08868408,0.051086426,-60.396946,2.0992367,-5.40458,2019-08-07 09:28:31,8.0
665.0,0.08392334,-0.08685303,0.05078125,-48.290077000000004,2.9389312000000003,-5.0992365,2019-08-07 09:28:31,8.0
666.0,0.06713867,-0.08929443,0.042907715,-57.862595,5.587786,1.351145,2019-08-07 09:28:31,8.0
667.0,0.07385254,-0.088012695,0.043029785,-62.053436,10.198473,-1.2366412,2019-08-07 09:28:32,8.0
668.0,0.079589844,-0.078308105,0.04559326,-25.389313,3.40458,2.3740457999999998,2019-08-07 09:28:32,8.0
669.0,0.08380127,-0.08203125,0.05444336,-19.954199,3.2748091,-0.06870229,2019-08-07 09:28:32,8.0
670.0,0.07220459,-0.09106445,0.05444336,-31.76336,2.480916,-1.8015267,2019-08-07 09:28:32,8.0
671.0,0.06915283,-0.08312988,0.052856445,-36.450382,0.015267176,-2.687023,2019-08-07 09:28:32,8.0
672.0,0.07678223,-0.08666992,0.040100098,-12.038167999999999,-0.9312976999999999,-0.099236645,2019-08-07 09:28:32,8.0
673.0,0.07006836,-0.08831787,0.040039062,-9.145039,-4.3587785000000006,-0.3053435,2019-08-07 09:28:32,8.0
674.0,0.07727051,-0.09753418,0.041137695,4.0839696000000005,0.061068702,0.5038168,2019-08-07 09:28:32,8.0
675.0,0.07635498,-0.09625244,0.042785645,-2.908397,-0.6259541999999999,3.2366412,2019-08-07 09:28:32,8.0
676.0,0.07269287,-0.09466553,0.040527344,-1.5877863,-1.5419847,1.4198473999999999,2019-08-07 09:28:32,8.0
677.0,0.08172607400000001,-0.09765625,0.040283203,-4.664122,-1.0687023,-5.5801525000000005,2019-08-07 09:28:32,8.0
678.0,0.07061767599999999,-0.09875488,0.03375244,3.0839694,0.099236645,-5.9541984,2019-08-07 09:28:32,8.0
679.0,0.07702637,-0.09991455,0.036254882999999995,18.221375,2.534351,-6.6335880000000005,2019-08-07 09:28:32,8.0
680.0,0.07684326,-0.09765625,0.044616699999999995,10.175572,-0.89312977,-8.358779,2019-08-07 09:28:32,8.0
681.0,0.07470703,-0.08496094,0.041503906,17.038168,3.053435,-11.419847500000001,2019-08-07 09:28:32,8.0
682.0,0.070129395,-0.09265137,0.042236328,27.480916999999998,0.9160305000000001,-9.21374,2019-08-07 09:28:32,8.0
683.0,0.074035645,-0.09124756,0.044067382999999995,23.534351,1.4427481000000002,-6.236641400000001,2019-08-07 09:28:32,8.0
684.0,0.072753906,-0.08923339999999999,0.04650879,25.022902,4.1603055,-4.9160304,2019-08-07 09:28:32,8.0
685.0,0.07684326,-0.08380127,0.046691895,22.564885999999998,4.328244000000001,-0.099236645,2019-08-07 09:28:32,8.0
686.0,0.07391357400000001,-0.09722900400000001,0.044311523,13.885496,0.9389313,1.5419847,2019-08-07 09:28:32,8.0
687.0,0.07708739999999999,-0.0960083,0.04541015599999999,13.465648999999999,2.7099237,1.0305344,2019-08-07 09:28:32,8.0
688.0,0.06451416,-0.096191406,0.050476074,9.664123,1.7862595000000001,0.122137405,2019-08-07 09:28:32,8.0
689.0,0.06671142599999999,-0.08886719,0.049865723,3.4198472,3.3969467000000004,-2.2595419999999997,2019-08-07 09:28:32,8.0
690.0,0.07458496,-0.09283447,0.053100586,-0.099236645,5.0229006,-3.5190839999999994,2019-08-07 09:28:32,8.0
691.0,0.07720947,-0.08660889,0.050109863,7.9847326,2.480916,0.740458,2019-08-07 09:28:32,8.0
692.0,0.07836914,-0.08923339999999999,0.05218506,9.603053,3.2748091,0.8549618,2019-08-07 09:28:32,8.0
693.0,0.07910156,-0.09405517599999999,0.051574707000000004,6.259542,2.129771,-0.38931298,2019-08-07 09:28:32,8.0
694.0,0.070251465,-0.08825683599999999,0.05065918,6.4656487,4.0229006,-0.23664123,2019-08-07 09:28:32,8.0
695.0,0.07318115,-0.09271239999999999,0.055725098,10.816792999999999,0.38931298,-1.5648855,2019-08-07 09:28:32,8.0
696.0,0.07379150400000001,-0.08807373,0.049804688,16.190839999999998,1.389313,-0.97709924,2019-08-07 09:28:32,8.0
697.0,0.07922363,-0.09375,0.053588867000000005,0.129771,0.6793893,-2.091603,2019-08-07 09:28:32,8.0
698.0,0.07391357400000001,-0.093566895,0.054382324,-7.8702292,0.49618322,-4.442748,2019-08-07 09:28:32,8.0
699.0,0.07574463,-0.08764648400000001,0.05419922,-2.038168,-0.9389313,-3.9694656999999998,2019-08-07 09:28:32,8.0
700.0,0.072387695,-0.08728027,0.051574707000000004,0.78625953,-0.73282444,-5.4503818,2019-08-07 09:28:32,8.0
701.0,0.07055664,-0.09222412,0.052734375,6.2671757,3.1526718,-4.9923663000000005,2019-08-07 09:28:32,8.0
702.0,0.08172607400000001,-0.09106445,0.044921875,8.129771,3.2290077,-4.6106873,2019-08-07 09:28:32,8.0
703.0,0.07312012,-0.08734131,0.051452637,4.0229006,4.809159999999999,-4.335878,2019-08-07 09:28:32,8.0
704.0,0.078125,-0.09301758,0.047058105,-9.938931,6.0,-2.793893,2019-08-07 09:28:33,8.0
705.0,0.082092285,-0.09197998,0.052490234000000004,-10.083969,6.473282299999999,0.70229006,2019-08-07 09:28:33,8.0
706.0,0.08337402,-0.08679199,0.051452637,-10.167939,2.480916,-3.221374,2019-08-07 09:28:33,8.0
707.0,0.07086182,-0.09069824,0.051574707000000004,-14.061069,1.9389313000000001,0.07633588,2019-08-07 09:28:33,8.0
708.0,0.08825683599999999,-0.09045410000000001,0.051818848,-23.152672,-1.5801526000000001,0.07633588,2019-08-07 09:28:33,8.0
709.0,0.07507324,-0.08880615,0.05694580000000001,-27.89313,0.89312977,-0.34351146,2019-08-07 09:28:33,8.0
710.0,0.08270264,-0.089660645,0.051086426,-33.297709999999995,-4.740458,-1.8244275,2019-08-07 09:28:33,8.0
711.0,0.07379150400000001,-0.0960083,0.05419922,-30.374046000000003,-5.8702292,-5.9389315,2019-08-07 09:28:33,8.0
712.0,0.06817627,-0.09350586,0.051879882999999995,-45.954197,-3.6564887,-6.0839696,2019-08-07 09:28:33,8.0
713.0,0.07470703,-0.09136963,0.037902832000000004,-65.137405,-5.1374044,-7.038167999999999,2019-08-07 09:28:33,8.0
714.0,0.08245849599999999,-0.09332275400000001,0.04284668,-60.12214,-6.839694500000001,-3.0076337000000004,2019-08-07 09:28:33,8.0
715.0,0.07482910000000001,-0.09259033,0.042053223,-66.52672,-6.8778625,-2.6793892,2019-08-07 09:28:33,8.0
716.0,0.07354736,-0.09045410000000001,0.026916503999999997,-72.35878000000001,-10.610686999999999,-7.7175574000000005,2019-08-07 09:28:33,8.0
717.0,0.08770752,-0.09710693,0.028137207,-39.251907,-5.5038165999999995,-5.1603055,2019-08-07 09:28:33,8.0
718.0,0.07086182,-0.09710693,0.025817871000000003,-25.763360000000002,-13.832060999999998,-8.908397,2019-08-07 09:28:33,8.0
719.0,0.07391357400000001,-0.10870361,0.017211914,-20.519083,-5.946564700000001,-12.854961,2019-08-07 09:28:33,8.0
720.0,0.074401855,-0.09857178,0.01159668,-4.633588,-0.007633588,-12.083969,2019-08-07 09:28:33,8.0
721.0,0.08026123,-0.10809326,0.027832031,20.442749,-4.2977099999999995,-10.534351,2019-08-07 09:28:33,8.0
722.0,0.06970215,-0.09936523400000001,0.029785156,-23.198473,3.2290077,-10.267176,2019-08-07 09:28:33,8.0
723.0,0.08044433599999999,-0.08935547,0.018249512,-30.122137,4.1603055,-8.328244,2019-08-07 09:28:33,8.0
724.0,0.082214355,-0.0881958,0.022216797000000003,13.610686999999999,-4.2748094000000005,-5.343511599999999,2019-08-07 09:28:33,8.0
725.0,0.07708739999999999,-0.10095215,0.0178833,11.2213745,-0.16793893,-4.374046,2019-08-07 09:28:33,8.0
726.0,0.07470703,-0.09362793,0.0211792,-13.267176000000001,4.847328,-5.8396945,2019-08-07 09:28:33,8.0
727.0,0.078125,-0.08178711,0.023010253999999997,-21.61832,7.1450380000000004,-6.4885497,2019-08-07 09:28:33,8.0
728.0,0.07043457,-0.08728027,0.020690918,8.572519,-0.65648854,1.2748091000000001,2019-08-07 09:28:33,8.0
729.0,0.08459473,-0.08923339999999999,0.017211914,3.6946564,6.5725193,2.3435113,2019-08-07 09:28:33,8.0
730.0,0.08520508,-0.090026855,0.018310547,4.335878,4.923664,0.740458,2019-08-07 09:28:33,8.0
731.0,0.07446289,-0.09375,0.018737793,18.564885999999998,3.076336,6.778625999999999,2019-08-07 09:28:33,8.0
732.0,0.07714844,-0.10473633,0.02746582,11.458015,4.8778625,6.2671757,2019-08-07 09:28:33,8.0
733.0,0.07611084,-0.10089111,0.02947998,-14.229007999999999,2.1908397999999996,8.145039,2019-08-07 09:28:33,8.0
734.0,0.08203125,-0.09698486,0.016113281,-14.396947,2.3435113,8.78626,2019-08-07 09:28:33,8.0
735.0,0.07165527,-0.0949707,0.01928711,-0.48091602,3.3969467000000004,10.0,2019-08-07 09:28:33,8.0
736.0,0.08770752,-0.1015625,0.025024414,4.908396700000001,3.3435113,8.603053,2019-08-07 09:28:33,8.0
737.0,0.07733154,-0.1038208,0.026123047000000003,-0.40458015,3.7404580000000003,4.6870227,2019-08-07 09:28:33,8.0
738.0,0.07556152,-0.10052489999999999,0.015258788999999998,3.3129769999999996,0.8244275,5.0229006,2019-08-07 09:28:34,8.0
739.0,0.07702637,-0.09704589999999999,0.02532959,9.549619,2.167939,5.0992365,2019-08-07 09:28:34,8.0
740.0,0.07110596,-0.09271239999999999,0.022766112999999998,-4.664122,1.1984733,-0.091603056,2019-08-07 09:28:34,8.0
741.0,0.076293945,-0.09881592,0.025634766,-1.6259542,-0.66412216,4.2137402999999996,2019-08-07 09:28:34,8.0
742.0,0.07391357400000001,-0.09851074,0.022216797000000003,-12.595419999999999,2.0610688,2.1908397999999996,2019-08-07 09:28:34,8.0
743.0,0.07720947,-0.09936523400000001,0.0154418945,-0.7557252,2.3740457999999998,1.3664121999999999,2019-08-07 09:28:34,8.0
744.0,0.07678223,-0.10119629,0.022094727,2.3435113,0.114503816,2.29771,2019-08-07 09:28:34,8.0
745.0,0.07769775400000001,-0.10906982400000001,0.02368164,-16.717558,2.946565,2.0687022,2019-08-07 09:28:34,8.0
746.0,0.07434082,-0.10308838,0.013000488000000001,-14.145039,6.793893300000001,-7.2824425999999995,2019-08-07 09:28:34,8.0
747.0,0.06768799,-0.10272217,0.022521972999999997,5.763358599999999,6.114504,-3.0229008,2019-08-07 09:28:34,8.0
748.0,0.083496094,-0.10198974599999999,0.032104492000000005,-35.748093,1.4274809,-1.6717557,2019-08-07 09:28:34,8.0
749.0,0.07379150400000001,-0.09112549,0.019165039,-51.244274,2.5038167999999996,-1.7633588,2019-08-07 09:28:34,8.0
750.0,0.06817627,-0.093688965,0.018188476999999998,-29.38168,-1.4198473999999999,-0.33587787,2019-08-07 09:28:34,8.0
751.0,0.08093262,-0.09173584,0.01361084,-11.267176,-6.152672,-2.1526718,2019-08-07 09:28:34,8.0
752.0,0.07989502,-0.10986328,0.010986328,32.687022999999996,2.1068702,0.79389316,2019-08-07 09:28:34,8.0
753.0,0.06420898400000001,-0.101623535,0.013549805,9.893129,-4.1221375,-2.3969467,2019-08-07 09:28:34,8.0
754.0,0.07464599599999999,-0.10076904,0.008422852,21.549618,1.3053435,0.38167940000000006,2019-08-07 09:28:34,8.0
755.0,0.06842041,-0.10467529,0.016113281,14.160305,3.0229008,-4.2061067,2019-08-07 09:28:34,8.0
756.0,0.07720947,-0.0960083,0.017944336,27.099237,4.0992365,-4.1297708,2019-08-07 09:28:34,8.0
757.0,0.07867432,-0.10510254,0.020385742,27.847328000000005,6.442748,-6.473282299999999,2019-08-07 09:28:34,8.0
758.0,0.07232666,-0.10418701,0.020324707,20.526718,6.2290077,-11.137404,2019-08-07 09:28:34,8.0
759.0,0.07336426,-0.099609375,0.030639648,34.526720000000005,5.1297708,-6.038168,2019-08-07 09:28:34,8.0
760.0,0.07128906,-0.10424805,0.026977539,6.763358599999999,5.2671757,-9.732824,2019-08-07 09:28:34,8.0
761.0,0.07299805,-0.10113525400000001,0.028320312,-1.3129771000000001,1.7938931,-8.122137,2019-08-07 09:28:34,8.0
762.0,0.07904053,-0.09613037,0.02331543,-3.5725190000000002,3.1984732000000005,-2.6793892,2019-08-07 09:28:34,8.0
763.0,0.07464599599999999,-0.09790039,0.026367188,-2.8778627,-0.29007635,-3.221374,2019-08-07 09:28:34,8.0
764.0,0.07458496,-0.09375,0.02557373,-13.435115,-3.7175572,-5.5725193,2019-08-07 09:28:34,8.0
765.0,0.07122803,-0.09277344,0.028381347999999997,3.2519082999999998,-4.4961834000000005,-4.931298,2019-08-07 09:28:34,8.0
766.0,0.07531738,-0.10058594,0.013671875,8.007633,-8.80916,-5.625954,2019-08-07 09:28:34,8.0
767.0,0.07086182,-0.11193848,0.031799316,-4.152672,-4.236641400000001,-7.076336,2019-08-07 09:28:34,8.0
768.0,0.08258057,-0.10864258,0.03186035,-42.381679999999996,-12.167939,-12.053435,2019-08-07 09:28:34,8.0
769.0,0.07922363,-0.09869385,0.025878906,-36.83206,-17.274809,-12.297709,2019-08-07 09:28:34,8.0
770.0,0.07928467,-0.10504150400000001,0.02331543,-49.351147,-19.816793,-21.42748,2019-08-07 09:28:34,8.0
771.0,0.08392334,-0.10717773400000001,0.022521972999999997,-53.702290000000005,-25.038168,-23.740458,2019-08-07 09:28:34,8.0
772.0,0.07659912,-0.10614014,0.009643555,-59.702290000000005,-31.412214000000002,-22.51145,2019-08-07 09:28:34,8.0
773.0,0.07397461,-0.09899902,0.004028320300000001,-65.89313,-29.526718,-27.992366999999998,2019-08-07 09:28:34,8.0
774.0,0.07897949,-0.099487305,0.0032958984000000004,-68.62595,-29.244274,-25.51145,2019-08-07 09:28:34,8.0
775.0,0.07788086,-0.08648682,-0.011047363000000001,-63.061069999999994,-24.664122,-18.526718,2019-08-07 09:28:35,8.0
776.0,0.08502197,-0.08453369,-0.012634277,-39.282444,-13.320610999999998,-16.595419,2019-08-07 09:28:35,8.0
777.0,0.08300781,-0.08728027,-0.008117675999999999,-26.549618,4.6870227,-15.816792999999999,2019-08-07 09:28:35,8.0
778.0,0.079589844,-0.08050537,-0.012023926,-23.320610000000002,-10.114504,-14.458015,2019-08-07 09:28:35,8.0
779.0,0.07763672,-0.081848145,-0.01928711,-5.778626,-18.374046,-12.244275,2019-08-07 09:28:35,8.0
780.0,0.08374023400000001,-0.09020996,-0.012329102,-5.5496182,-13.076336,-14.137404,2019-08-07 09:28:35,8.0
781.0,0.07897949,-0.09423828,-0.004638672,-7.931298,-16.0,-15.274809,2019-08-07 09:28:35,8.0
782.0,0.088012695,-0.09423828,-0.01586914,-11.389313000000001,-29.931296999999997,-12.480916,2019-08-07 09:28:35,8.0
783.0,0.078125,-0.09234619,-0.018066406,-16.824427,-25.404581,-14.564885,2019-08-07 09:28:35,8.0
784.0,0.089904785,-0.08435058599999999,-0.013122558999999999,-12.473283,-25.10687,-15.206107000000001,2019-08-07 09:28:35,8.0
785.0,0.080566406,-0.080566406,-0.027770996000000003,3.2442749,-28.519083000000002,-13.78626,2019-08-07 09:28:35,8.0
786.0,0.081848145,-0.085998535,-0.025695799999999998,7.9160304,-17.137404999999998,-10.709924,2019-08-07 09:28:35,8.0
787.0,0.07641601599999999,-0.08325195,-0.026916503999999997,6.671755999999999,-4.8396945,-8.854961,2019-08-07 09:28:35,8.0
788.0,0.092285156,-0.08526611,-0.03173828,10.541985,-12.931297,-9.145039,2019-08-07 09:28:35,8.0
789.0,0.086120605,-0.08392334,-0.031799316,23.564885999999998,-4.2671757,-5.1984735,2019-08-07 09:28:35,8.0
790.0,0.083984375,-0.09210205,-0.022705077999999997,16.656488,3.076336,-5.7022900000000005,2019-08-07 09:28:35,8.0
791.0,0.09387207,-0.09155273400000001,-0.018188476999999998,-8.435115,-5.4885497,-8.183207000000001,2019-08-07 09:28:35,8.0
792.0,0.08764648400000001,-0.08355713,-0.017822266,-2.465649,-3.1755726,-7.465648700000001,2019-08-07 09:28:35,8.0
793.0,0.09313965,-0.08489989999999999,-0.018981934,5.763358599999999,0.9541985000000001,-8.312977,2019-08-07 09:28:35,8.0
794.0,0.09014892599999999,-0.07952881,-0.018798828,8.274809,-5.0076336999999995,-2.3358779999999997,2019-08-07 09:28:35,8.0
795.0,0.08099365,-0.07202148400000001,-0.024291992000000002,-9.519084,0.5954198,-0.18320611,2019-08-07 09:28:35,8.0
796.0,0.087890625,-0.07348633,-0.03363037,16.389313,21.832062,4.740458,2019-08-07 09:28:35,8.0
797.0,0.09014892599999999,-0.09936523400000001,-0.011169433999999999,44.931297,23.328245000000003,6.625953999999999,2019-08-07 09:28:35,8.0
798.0,0.101379395,-0.09893799,-0.010009766,-11.679389,-3.5572519999999996,-3.7099237,2019-08-07 09:28:35,8.0
799.0,0.08929443,-0.08276367,-0.019592285,5.519083999999999,2.3511450000000003,-0.5801527,2019-08-07 09:28:35,8.0
800.0,0.08691406,-0.08300781,-0.017822266,3.0305343,8.473283,-3.0992367,2019-08-07 09:28:35,8.0
801.0,0.08270264,-0.08123779,-0.025817871000000003,9.511451,7.374046000000001,0.48854962,2019-08-07 09:28:35,8.0
802.0,0.0859375,-0.09564209,-0.010803223,14.526717000000001,7.7251906,1.5877863,2019-08-07 09:28:35,8.0
803.0,0.08679199,-0.08947754,-0.016540527,0.6488550000000001,8.2213745,0.08396947,2019-08-07 09:28:35,8.0
804.0,0.08868408,-0.08294678,-0.01574707,-4.412214,14.587786999999999,-0.45038167,2019-08-07 09:28:35,8.0
805.0,0.08874512,-0.08203125,-0.01739502,2.038168,8.083969,-1.5343511,2019-08-07 09:28:35,8.0
806.0,0.09375,-0.08935547,-0.00793457,11.022901,7.664122,3.2290077,2019-08-07 09:28:35,8.0
807.0,0.07543945,-0.08764648400000001,-0.012634277,-14.78626,9.389313000000001,0.5038168,2019-08-07 09:28:35,8.0
808.0,0.07891846,-0.08062744,-0.014465332,-0.73282444,2.816794,-1.6870228999999999,2019-08-07 09:28:35,8.0
809.0,0.088012695,-0.09063721,-0.014282227,-1.351145,5.8702292,-1.6259542,2019-08-07 09:28:35,8.0
810.0,0.08050537,-0.08605957,-0.011657715,-1.8015267,3.3740457999999998,-1.6793894,2019-08-07 09:28:36,8.0
811.0,0.08563232400000001,-0.093811035,-0.014221191000000001,1.8625953999999998,-0.8091603,-2.4885497,2019-08-07 09:28:36,8.0
812.0,0.07641601599999999,-0.09106445,-0.015319824,-13.2213745,3.4274809999999998,-3.0229008,2019-08-07 09:28:36,8.0
813.0,0.08697510000000001,-0.08825683599999999,-0.018005371000000003,-5.908396700000001,7.6793895,-1.8854961,2019-08-07 09:28:36,8.0
814.0,0.08422851599999999,-0.09155273400000001,-0.021362305,5.2900763,-0.6335878,4.0610685,2019-08-07 09:28:36,8.0
815.0,0.09234619,-0.09326172,-0.012145996000000001,1.6564884999999998,13.61832,1.9160305,2019-08-07 09:28:36,8.0
816.0,0.084106445,-0.089782715,-0.0037231445,-5.152672,-0.4427481,-4.3587785000000006,2019-08-07 09:28:36,8.0
817.0,0.07922363,-0.08758545,-0.007446289,4.59542,0.97709924,0.71755725,2019-08-07 09:28:36,8.0
818.0,0.08551025400000001,-0.087768555,-0.014709473,0.8702290000000001,6.862595599999999,-1.9236640999999999,2019-08-07 09:28:36,8.0
819.0,0.08691406,-0.09216308599999999,-0.015136719,0.6183206,3.4961832000000004,0.6259541999999999,2019-08-07 09:28:36,8.0
820.0,0.08496094,-0.08441162,-0.013061523,5.4961834000000005,6.366412,1.3435115,2019-08-07 09:28:36,8.0
821.0,0.08459473,-0.085998535,-0.010437011999999999,3.8167940000000002,1.6412214,1.961832,2019-08-07 09:28:36,8.0
822.0,0.083496094,-0.09045410000000001,-0.009033203,9.648855000000001,8.656488000000001,1.3664121999999999,2019-08-07 09:28:36,8.0
823.0,0.08258057,-0.08746338,-0.009460449000000001,9.442748,7.7251906,3.183206,2019-08-07 09:28:36,8.0
824.0,0.088378906,-0.090026855,-0.010009766,19.603054,11.465649,5.4198474999999995,2019-08-07 09:28:36,8.0
825.0,0.08325195,-0.09533691400000001,-0.002746582,13.732823999999999,10.427481,4.1984735,2019-08-07 09:28:36,8.0
826.0,0.085754395,-0.09735107400000001,-0.009338379,-6.0839696,4.0458016,-2.1374047000000003,2019-08-07 09:28:36,8.0
827.0,0.080078125,-0.088012695,-0.009277344,20.183207,4.5419846,3.961832,2019-08-07 09:28:36,8.0
828.0,0.07867432,-0.08648682,-0.0052490233999999995,22.809160000000002,6.259542,4.3206105,2019-08-07 09:28:36,8.0
829.0,0.07702637,-0.09320068,-0.005493164,14.961832000000001,0.31297709999999995,4.4656487,2019-08-07 09:28:36,8.0
830.0,0.07476807,-0.09503174,-0.008544922,3.206107,3.7404580000000003,2.557252,2019-08-07 09:28:36,8.0
831.0,0.0871582,-0.08862305,-0.0034179688000000002,13.442748000000002,5.8244276,2.29771,2019-08-07 09:28:36,8.0
832.0,0.08441162,-0.09893799,-0.0051879883,12.122137,0.07633588,1.6335878000000001,2019-08-07 09:28:36,8.0
833.0,0.08093262,-0.09173584,-0.008483886999999999,-1.7633588,0.45038167,-1.1755725000000001,2019-08-07 09:28:36,8.0
834.0,0.07611084,-0.10235596,0.0010986328,4.7557254,6.6412214999999994,-2.465649,2019-08-07 09:28:36,8.0
835.0,0.08001709,-0.09240723,0.0025024414000000004,-1.1679389999999998,1.8549619,-1.3129771000000001,2019-08-07 09:28:36,8.0
836.0,0.08496094,-0.08947754,-0.006164551,-10.885496,-0.54198474,-2.0229008,2019-08-07 09:28:36,8.0
837.0,0.07647705,-0.093566895,-0.0013427734,8.656488000000001,13.824428,0.5496183000000001,2019-08-07 09:28:36,8.0
838.0,0.08081055,-0.04046631,-0.03753662,7.3893127000000005,17.91603,4.068702,2019-08-07 09:28:36,8.0
839.0,0.08215332,-0.105285645,-0.009460449000000001,135.57253,20.396946,25.763360000000002,2019-08-07 09:28:36,8.0
840.0,0.08251953,-0.11090088,0.012084961000000002,-24.625954,14.473282999999999,10.053435,2019-08-07 09:28:36,8.0
841.0,0.08355713,-0.10284424,0.009460449000000001,13.129771,21.93893,5.6870227,2019-08-07 09:28:36,8.0
842.0,0.08258057,-0.101501465,0.009765625,12.679389,9.122137,5.4885497,2019-08-07 09:28:36,8.0
843.0,0.072265625,-0.09185791,0.003540039,18.717558,9.167939,0.39694658,2019-08-07 09:28:36,8.0
844.0,0.07489014,-0.09899902,0.008605957,12.412213000000001,5.473282299999999,0.8778626,2019-08-07 09:28:36,8.0
845.0,0.07580566400000001,-0.103027344,0.008972168,-3.2442749,6.0076336999999995,-1.8320610000000002,2019-08-07 09:28:36,8.0
846.0,0.076293945,-0.10028076,0.010986328,-8.106871,8.564885,-4.5801525000000005,2019-08-07 09:28:37,8.0
847.0,0.0769043,-0.097595215,0.015625,-4.59542,5.068702,-6.7557254,2019-08-07 09:28:37,8.0
848.0,0.07476807,-0.09643555,0.007873535,-1.1297709999999999,3.6717557999999997,-7.908396700000001,2019-08-07 09:28:37,8.0
849.0,0.07781982400000001,-0.10113525400000001,0.0026245116999999997,-4.328244000000001,3.5190839999999994,-7.923664,2019-08-07 09:28:37,8.0
850.0,0.07562256,-0.09851074,0.01373291,-7.59542,5.3206105,-6.89313,2019-08-07 09:28:37,8.0
851.0,0.07495117,-0.09320068,0.0073242188,-4.4656487,4.7022900000000005,-7.6946563999999995,2019-08-07 09:28:37,8.0
852.0,0.07757568,-0.08850098,0.009155273,-5.396946400000001,7.0839696,-6.9847326,2019-08-07 09:28:37,8.0
853.0,0.07965088,-0.09851074,0.0033569335999999996,-1.7480916000000002,7.10687,-5.8320612999999994,2019-08-07 09:28:37,8.0
854.0,0.07946777,-0.0960083,0.013061523,-3.648855,9.923664,-5.8778625,2019-08-07 09:28:37,8.0
855.0,0.07977295,-0.09918213,0.009155273,-4.0458016,10.9007635,-7.9923663000000005,2019-08-07 09:28:37,8.0
856.0,0.08258057,-0.09088135,0.005737304699999999,-2.923664,9.167939,-9.488549,2019-08-07 09:28:37,8.0
857.0,0.0769043,-0.10083008,0.007446289,-2.427481,10.091603,-8.343511999999999,2019-08-07 09:28:37,8.0
858.0,0.083496094,-0.09075928,0.008850098,-6.862595599999999,11.229008,-9.679389,2019-08-07 09:28:37,8.0
859.0,0.08282471,-0.092285156,0.0079956055,-1.8091604,10.076336,-10.770992,2019-08-07 09:28:37,8.0
860.0,0.07965088,-0.09313965,0.010437011999999999,3.2366412,11.992367,-7.290076299999999,2019-08-07 09:28:37,8.0
861.0,0.07739258,-0.09429932,0.0138549805,-0.9236641,9.625955000000001,-9.648855000000001,2019-08-07 09:28:37,8.0
862.0,0.08215332,-0.08923339999999999,0.007629394499999999,2.4503817999999997,6.603053599999999,-7.236641400000001,2019-08-07 09:28:37,8.0
863.0,0.083496094,-0.09472656,0.0056152343999999995,4.0305343,6.847328,-3.4351146,2019-08-07 09:28:37,8.0
864.0,0.08374023400000001,-0.08087158,0.012023926,-4.2671757,10.801527,-3.3664122000000005,2019-08-07 09:28:37,8.0
865.0,0.08880615,-0.08392334,0.01574707,2.3435113,5.908396700000001,-2.0458016,2019-08-07 09:28:37,8.0
866.0,0.08374023400000001,-0.09539795,0.014221191000000001,6.664122,4.961832,-0.23664123,2019-08-07 09:28:37,8.0
867.0,0.087890625,-0.08703613,0.021057128999999997,3.351145,7.7480917,0.46564886,2019-08-07 09:28:37,8.0
868.0,0.07873535,-0.09027099599999999,0.01953125,5.2671757,4.3053436,0.79389316,2019-08-07 09:28:37,8.0
869.0,0.08117676,-0.09661865,0.010864258,8.625955000000001,1.648855,3.2748091,2019-08-07 09:28:37,8.0
870.0,0.08380127,-0.10235596,0.013183594,2.3587787000000002,4.5343513,4.473282299999999,2019-08-07 09:28:37,8.0
871.0,0.08325195,-0.09375,0.0154418945,0.9312976999999999,1.2137405,2.4732822999999997,2019-08-07 09:28:37,8.0
872.0,0.08264160000000001,-0.09289551,0.011352538999999998,3.7557251000000003,0.8015267,1.9923664,2019-08-07 09:28:37,8.0
873.0,0.08477783,-0.105285645,0.013549805,2.519084,3.465649,0.5038168,2019-08-07 09:28:37,8.0
874.0,0.07745361,-0.09039307,0.009887695,0.6946565,1.1755725000000001,-1.9236640999999999,2019-08-07 09:28:37,8.0
875.0,0.08306885,-0.09753418,0.011291503999999999,6.7175574000000005,1.091603,-2.687023,2019-08-07 09:28:37,8.0
876.0,0.085754395,-0.09735107400000001,0.014404297,4.1984735,3.7328242999999994,-1.6870228999999999,2019-08-07 09:28:37,8.0
877.0,0.08282471,-0.08813476599999999,0.015563965,-0.48854962,4.4274807,-2.7328243,2019-08-07 09:28:37,8.0
878.0,0.077941895,-0.09539795,0.013305663999999998,2.3053436,1.0992366000000002,-2.3664122000000005,2019-08-07 09:28:37,8.0
879.0,0.0758667,-0.10119629,0.0178833,3.9847328999999996,5.2137402999999996,-0.10687023,2019-08-07 09:28:37,8.0
880.0,0.0836792,-0.09082031,0.016235351999999998,-0.86259544,4.7251905999999995,-2.2290077,2019-08-07 09:28:37,8.0
881.0,0.08160400400000001,-0.09954834,0.013366699,4.4656487,3.4274809999999998,-3.2595419999999997,2019-08-07 09:28:37,8.0
882.0,0.08325195,-0.09539795,0.016418457,3.9541983999999997,2.5648854,-0.07633588,2019-08-07 09:28:38,8.0
883.0,0.07708739999999999,-0.101379395,0.018432617,0.77099234,4.8244276,-1.0229008,2019-08-07 09:28:38,8.0
884.0,0.076171875,-0.095214844,0.016357422,-1.9465648999999998,2.9312978,-1.6641221000000002,2019-08-07 09:28:38,8.0
885.0,0.07775879,-0.09204101599999999,0.0099487305,-2.4351146,-0.28244275,-2.687023,2019-08-07 09:28:38,8.0
886.0,0.07684326,-0.09051514,0.018737793,0.519084,0.35877863,-4.221374,2019-08-07 09:28:38,8.0
887.0,0.07598877,-0.09863281,0.022766112999999998,-0.8854962,2.793893,-6.4885497,2019-08-07 09:28:38,8.0
888.0,0.082092285,-0.095703125,0.0099487305,-1.0992366000000002,2.0152671000000004,-4.4274807,2019-08-07 09:28:38,8.0
889.0,0.078063965,-0.09332275400000001,0.0095825195,-0.21374045,2.6259542000000002,-4.1297708,2019-08-07 09:28:38,8.0
890.0,0.07073974599999999,-0.09008789,0.021728516,0.39694658,5.3053436,-4.4351144,2019-08-07 09:28:38,8.0
891.0,0.078308105,-0.10046387,0.012084961000000002,-2.465649,3.8778627,-5.557252,2019-08-07 09:28:38,8.0
892.0,0.09014892599999999,-0.09161377,0.012390136999999999,0.07633588,1.7557251,-5.5419846,2019-08-07 09:28:38,8.0
893.0,0.08142089999999999,-0.09094238,0.010253906,-0.5648854999999999,5.4503818,-6.6335880000000005,2019-08-07 09:28:38,8.0
894.0,0.07452392599999999,-0.09307861,0.015014648,1.8702290000000001,4.4656487,-5.664122,2019-08-07 09:28:38,8.0
895.0,0.08483887,-0.08843994,0.01184082,0.5801527,2.7328243,-6.625953999999999,2019-08-07 09:28:38,8.0
896.0,0.07641601599999999,-0.09826660000000001,0.01751709,-1.2748091000000001,4.59542,-8.885496,2019-08-07 09:28:38,8.0
897.0,0.09039307,-0.08996582,0.018493652,-1.5496184,4.221374,-6.1603055,2019-08-07 09:28:38,8.0
898.0,0.08496094,-0.09063721,0.008056641,-1.8244275,3.4427480000000004,-7.1297708,2019-08-07 09:28:38,8.0
899.0,0.07989502,-0.084106445,0.016052246000000003,-1.4122137,2.816794,-5.0839696,2019-08-07 09:28:38,8.0
900.0,0.0859375,-0.08929443,0.025390625,0.259542,2.3282442000000003,-4.7862597000000004,2019-08-07 09:28:38,8.0
901.0,0.081848145,-0.09277344,0.021362305,-0.9694656999999999,1.9312977,-3.221374,2019-08-07 09:28:38,8.0
902.0,0.08312988,-0.08941650400000001,0.0154418945,-1.3358778999999998,3.1908397999999996,-4.114504,2019-08-07 09:28:38,8.0
903.0,0.08654785,-0.09332275400000001,0.012573242,3.6335877999999995,0.19083970000000003,-0.2977099,2019-08-07 09:28:38,8.0
904.0,0.078125,-0.09136963,0.020629883,0.5496183000000001,2.1984732000000005,-2.9923662999999996,2019-08-07 09:28:38,8.0
905.0,0.07366943,-0.09924316400000001,0.017333984,1.6870228999999999,-0.66412216,-1.6564884999999998,2019-08-07 09:28:38,8.0
906.0,0.07366943,-0.09210205,0.010864258,1.7404580000000003,-0.8396947,-1.5343511,2019-08-07 09:28:38,8.0
907.0,0.082214355,-0.09667969,0.017150878999999997,0.31297709999999995,2.2442749,-3.7557251000000003,2019-08-07 09:28:38,8.0
908.0,0.0758667,-0.097717285,0.019958496000000003,-2.3587787000000002,1.8167938999999997,-4.0,2019-08-07 09:28:38,8.0
909.0,0.088012695,-0.0914917,0.018310547,2.816794,2.2824428,-5.587786,2019-08-07 09:28:38,8.0
910.0,0.083984375,-0.09576416,0.012817383,-0.53435117,1.4427481000000002,-4.2137402999999996,2019-08-07 09:28:38,8.0
911.0,0.08709717,-0.08947754,0.012207031,0.10687023,0.27480915,-1.7175573,2019-08-07 09:28:38,8.0
912.0,0.08099365,-0.08862305,0.022216797000000003,-2.7557251,2.183206,-1.9007633999999998,2019-08-07 09:28:38,8.0
913.0,0.08862305,-0.08215332,0.015014648,0.13740458,1.4580153,-1.6717557,2019-08-07 09:28:38,8.0
914.0,0.08233642599999999,-0.09045410000000001,0.013549805,3.2290077,-0.7251908,-2.29771,2019-08-07 09:28:38,8.0
915.0,0.08526611,-0.095703125,0.014587402,2.0992367,-2.4351146,-1.5496184,2019-08-07 09:28:38,8.0
916.0,0.07574463,-0.09185791,0.01751709,-4.4656487,-0.65648854,-0.610687,2019-08-07 09:28:38,8.0
917.0,0.08551025400000001,-0.09503174,0.014465332,-6.3053436,-1.3664121999999999,-1.351145,2019-08-07 09:28:38,8.0
918.0,0.08874512,-0.09375,0.018676758,-6.3893127,-0.86259544,-1.1526718,2019-08-07 09:28:39,8.0
919.0,0.09466553,-0.09259033,0.014404297,-0.28244275,2.1068702,-3.8473281999999998,2019-08-07 09:28:39,8.0
920.0,0.07647705,-0.09173584,0.015625,2.3740457999999998,2.1908397999999996,-2.1374047000000003,2019-08-07 09:28:39,8.0
921.0,0.080078125,-0.091796875,0.013122558999999999,1.2061069,2.2519082999999998,-2.465649,2019-08-07 09:28:39,8.0
922.0,0.07611084,-0.09637451,0.012756348,-2.4580152,4.2137402999999996,-2.9694657,2019-08-07 09:28:39,8.0
923.0,0.09020996,-0.09295654,0.013793945,-0.9389313,3.6793892,-3.8931297999999996,2019-08-07 09:28:39,8.0
924.0,0.08166504,-0.09692383,0.014160156,-0.40458015,2.687023,-4.1221375,2019-08-07 09:28:39,8.0
925.0,0.08532715,-0.09033203,0.017211914,-1.5343511,1.0992366000000002,-2.3969467,2019-08-07 09:28:39,8.0
926.0,0.08795166,-0.09881592,0.013000488000000001,-2.0687022,3.2748091,-4.2137402999999996,2019-08-07 09:28:39,8.0
927.0,0.07867432,-0.09594726599999999,0.020141601999999998,-0.8167939000000001,2.2366412,-3.5648854,2019-08-07 09:28:39,8.0
928.0,0.09802246,-0.09222412,0.017211914,1.519084,2.1755726,-2.9694657,2019-08-07 09:28:39,8.0
929.0,0.07751465,-0.09185791,0.012023926,-1.5038168,2.0992367,-3.4122138,2019-08-07 09:28:39,8.0
930.0,0.08654785,-0.09338379,0.017089844,0.08396947,1.1450381,-0.90839696,2019-08-07 09:28:39,8.0
931.0,0.09136963,-0.08923339999999999,0.014465332,1.6030535,4.0152674,-2.923664,2019-08-07 09:28:39,8.0
932.0,0.087402344,-0.09869385,0.016662598,-1.2824427,0.70229006,-2.8015267999999995,2019-08-07 09:28:39,8.0
933.0,0.07983398400000001,-0.09326172,0.01184082,-1.4045801000000002,2.5114503,-3.70229,2019-08-07 09:28:39,8.0
934.0,0.08843994,-0.09606933599999999,0.01361084,-2.442748,1.2290076,-4.0076336999999995,2019-08-07 09:28:39,8.0
935.0,0.09020996,-0.091674805,0.010864258,-0.8549618,2.480916,-4.5725193,2019-08-07 09:28:39,8.0
936.0,0.080200195,-0.08648682,0.012756348,0.29007635,2.0229008,-4.0305343,2019-08-07 09:28:39,8.0
937.0,0.07775879,-0.09082031,0.020874023000000002,-0.53435117,1.7099236,-2.2900763,2019-08-07 09:28:39,8.0
938.0,0.08203125,-0.09307861,0.016296387,-0.86259544,2.1908397999999996,-3.7633588,2019-08-07 09:28:39,8.0
939.0,0.08697510000000001,-0.08563232400000001,0.016174316,-1.4503816,2.7709923,-4.2671757,2019-08-07 09:28:39,8.0
940.0,0.08081055,-0.09222412,0.00970459,0.8015267,1.8625953999999998,-1.6870228999999999,2019-08-07 09:28:39,8.0
941.0,0.08099365,-0.10052489999999999,0.018005371000000003,1.4732825,1.4045801000000002,-0.48854962,2019-08-07 09:28:39,8.0
942.0,0.082214355,-0.09405517599999999,0.013916016000000002,-1.0,1.5038168,-1.7404580000000003,2019-08-07 09:28:39,8.0
943.0,0.08563232400000001,-0.09387207,0.014160156,-0.22137405,2.832061,-1.2519083999999998,2019-08-07 09:28:39,8.0
944.0,0.082092285,-0.09069824,0.014221191000000001,0.21374045,1.0687023,-3.1984732000000005,2019-08-07 09:28:39,8.0
945.0,0.081848145,-0.09271239999999999,0.021057128999999997,-0.7633588000000001,2.1526718,-1.2824427,2019-08-07 09:28:39,8.0
946.0,0.08154297,-0.08831787,0.01727295,0.099236645,1.7328244,-2.3816792999999996,2019-08-07 09:28:39,8.0
947.0,0.07556152,-0.09088135,0.008605957,1.1297709999999999,1.5648855,-1.3664121999999999,2019-08-07 09:28:39,8.0
948.0,0.08288574,-0.09069824,0.016845703,0.07633588,3.0458016,-3.0,2019-08-07 09:28:39,8.0
949.0,0.07916260000000001,-0.08654785,0.015991211,0.29007635,2.167939,-3.8778627,2019-08-07 09:28:39,8.0
950.0,0.08465576,-0.10247803,0.022460938,0.8167939000000001,1.5954198999999998,-4.0305343,2019-08-07 09:28:39,8.0
951.0,0.08337402,-0.093933105,0.016784668,-0.14503817,4.114504,-2.5419848,2019-08-07 09:28:39,8.0
952.0,0.08282471,-0.09423828,0.015014648,0.32061067,4.183206,-3.091603,2019-08-07 09:28:39,8.0
953.0,0.083496094,-0.09539795,0.015563965,3.1068702,1.7633588,-1.389313,2019-08-07 09:28:40,8.0
954.0,0.08337402,-0.087402344,0.01159668,-1.7633588,2.5648854,-0.091603056,2019-08-07 09:28:40,8.0
955.0,0.09197998,-0.09173584,0.0211792,-1.3282443000000002,1.7480916000000002,-1.7862595000000001,2019-08-07 09:28:40,8.0
956.0,0.08178711,-0.09289551,0.010375977,3.4427480000000004,1.0839695,-1.4961832,2019-08-07 09:28:40,8.0
957.0,0.08465576,-0.09399414,0.011169433999999999,-0.9160305000000001,3.2137403,-2.2137403,2019-08-07 09:28:40,8.0
958.0,0.07989502,-0.09661865,0.015930176,2.312977,3.206107,-2.832061,2019-08-07 09:28:40,8.0
959.0,0.070373535,-0.09753418,0.018554688,4.519083999999999,2.610687,-2.908397,2019-08-07 09:28:40,8.0
960.0,0.08544922,-0.09796142599999999,0.020263672,1.1679389999999998,3.8244274,-1.7862595000000001,2019-08-07 09:28:40,8.0
961.0,0.074279785,-0.09344482400000001,0.015258788999999998,-1.4198473999999999,2.5038167999999996,-2.557252,2019-08-07 09:28:40,8.0
962.0,0.0871582,-0.09014892599999999,0.016540527,-0.015267176,3.3969467000000004,-3.3969467000000004,2019-08-07 09:28:40,8.0
963.0,0.07464599599999999,-0.08959961,0.016174316,2.4580152,2.1221373,-2.0,2019-08-07 09:28:40,8.0
964.0,0.077941895,-0.09051514,0.017211914,-3.3740457999999998,1.9465648999999998,-3.129771,2019-08-07 09:28:40,8.0
965.0,0.08135986,-0.09240723,0.014099121000000001,-0.5038168,2.1908397999999996,-4.190840000000001,2019-08-07 09:28:40,8.0
966.0,0.08892822,-0.08691406,0.018249512,0.31297709999999995,0.5801527,-1.9541985,2019-08-07 09:28:40,8.0
967.0,0.07745361,-0.08935547,0.0178833,-0.9236641,1.7175573,-2.7099237,2019-08-07 09:28:40,8.0
968.0,0.08172607400000001,-0.09503174,0.018981934,-0.52671754,1.8473282,-3.0152671000000004,2019-08-07 09:28:40,8.0
969.0,0.07891846,-0.095581055,0.019042969,-1.2366412,1.5648855,-3.7557251000000003,2019-08-07 09:28:40,8.0
970.0,0.08697510000000001,-0.091796875,0.018127441,-1.5725191,1.9694656000000004,-2.7099237,2019-08-07 09:28:40,8.0
971.0,0.07843017599999999,-0.08905029,0.009094238000000001,-0.35877863,2.0152671000000004,-3.351145,2019-08-07 09:28:40,8.0
972.0,0.08685303,-0.09094238,0.016906738,1.4274809,1.519084,-2.8015267999999995,2019-08-07 09:28:40,8.0
973.0,0.08258057,-0.09320068,0.01727295,0.28244275,2.0,-2.0458016,2019-08-07 09:28:40,8.0
974.0,0.09008789,-0.08807373,0.010437011999999999,1.7099236,0.45038167,-2.8473282,2019-08-07 09:28:40,8.0
975.0,0.07354736,-0.08544922,0.017028809,-1.8854961,1.0610687,-1.1221374,2019-08-07 09:28:40,8.0
976.0,0.071777344,-0.0960083,0.014099121000000001,3.206107,-0.36641222,-1.1145038999999999,2019-08-07 09:28:40,8.0
977.0,0.078125,-0.09539795,0.018188476999999998,-0.45038167,1.1221374,-1.9389313000000001,2019-08-07 09:28:40,8.0
978.0,0.07769775400000001,-0.090026855,0.014282227,-2.0,0.97709924,-2.0305343000000002,2019-08-07 09:28:40,8.0
979.0,0.08703613,-0.09216308599999999,0.014221191000000001,0.6793893,1.3969465,-1.9541985,2019-08-07 09:28:40,8.0
980.0,0.09039307,-0.099487305,0.014953613000000001,0.22900763,0.740458,-2.29771,2019-08-07 09:28:40,8.0
981.0,0.08227539,-0.08898926,0.013977051,-0.6793893,1.6946564999999998,-4.366412,2019-08-07 09:28:40,8.0
982.0,0.0847168,-0.091796875,0.018066406,0.84732825,0.28244275,-1.7709924,2019-08-07 09:28:40,8.0
983.0,0.09045410000000001,-0.083496094,0.013244628999999999,0.83206105,0.38167940000000006,-1.1297709999999999,2019-08-07 09:28:40,8.0
984.0,0.08483887,-0.08959961,0.021484375,-1.1984733,0.18320611,-1.5572518999999998,2019-08-07 09:28:40,8.0
985.0,0.07928467,-0.09008789,0.014221191000000001,0.28244275,1.0229008,-0.57251906,2019-08-07 09:28:40,8.0
986.0,0.08679199,-0.09680176,0.014526367,1.6030535,0.8702290000000001,-1.3740458,2019-08-07 09:28:40,8.0
987.0,0.08300781,-0.09588623,0.01727295,0.129771,1.9465648999999998,-2.3206108,2019-08-07 09:28:40,8.0
988.0,0.0769043,-0.09057617,0.016052246000000003,-0.89312977,0.73282444,-2.534351,2019-08-07 09:28:41,8.0
989.0,0.07751465,-0.09594726599999999,0.012084961000000002,1.6412214,1.5725191,-3.6106870000000004,2019-08-07 09:28:41,8.0
990.0,0.08721924,-0.09222412,0.011352538999999998,-1.0839695,1.8167938999999997,-2.9312978,2019-08-07 09:28:41,8.0
991.0,0.08618164,-0.09094238,0.01776123,-1.9694656000000004,0.58778626,-0.48091602,2019-08-07 09:28:41,8.0
992.0,0.08190918,-0.09338379,0.01574707,1.1145038999999999,0.52671754,-1.038168,2019-08-07 09:28:41,8.0
993.0,0.07598877,-0.09014892599999999,0.015319824,-0.6793893,0.9694656999999999,-1.5954198999999998,2019-08-07 09:28:41,8.0
994.0,0.07360839999999999,-0.09967041,0.019470215,-0.6335878,1.0534351,-1.5725191,2019-08-07 09:28:41,8.0
995.0,0.07708739999999999,-0.08892822,0.021484375,-1.0305344,2.5038167999999996,-1.5496184,2019-08-07 09:28:41,8.0
996.0,0.08502197,-0.09942627,0.013549805,-0.41221374,1.8396946,-1.3129771000000001,2019-08-07 09:28:41,8.0
997.0,0.07769775400000001,-0.09484863,0.012207031,-0.47328246,1.9007633999999998,-0.60305345,2019-08-07 09:28:41,8.0
998.0,0.08758545,-0.09289551,0.015625,0.52671754,2.091603,-1.0839695,2019-08-07 09:28:41,8.0
999.0,0.086120605,-0.09118652,0.013916016000000002,0.55725193,1.3282443000000002,-1.5496184,2019-08-07 09:28:41,8.0
1000.0,0.07128906,-0.09020996,0.019470215,1.0458015,0.5496183000000001,-1.3053435,2019-08-07 09:28:41,8.0
1001.0,0.08477783,-0.08953857400000001,0.017700195,-0.091603056,0.8015267,-0.9236641,2019-08-07 09:28:41,8.0
1002.0,0.085998535,-0.09332275400000001,0.016784668,-1.8015267,0.8167939000000001,-3.053435,2019-08-07 09:28:41,8.0
1003.0,0.07580566400000001,-0.08807373,0.010803223,-0.9312976999999999,1.1374046,-2.7557251,2019-08-07 09:28:41,8.0
1004.0,0.085998535,-0.08880615,0.015625,0.45038167,3.2824428,-2.1374047000000003,2019-08-07 09:28:41,8.0
1005.0,0.07983398400000001,-0.08673096,0.015380858999999998,1.2748091000000001,-0.36641222,-2.6564887,2019-08-07 09:28:41,8.0
1006.0,0.080566406,-0.09533691400000001,0.014160156,-2.1603053,1.6183206,-2.687023,2019-08-07 09:28:41,8.0
1007.0,0.08361816400000001,-0.08697510000000001,0.023864746000000003,-2.5419848,0.73282444,-2.7328243,2019-08-07 09:28:41,8.0
1008.0,0.082092285,-0.09417724599999999,0.013793945,-0.8244275,0.6793893,-1.8854961,2019-08-07 09:28:41,8.0
1009.0,0.07507324,-0.09588623,0.014831543,1.519084,0.8396947,-1.1297709999999999,2019-08-07 09:28:41,8.0
1010.0,0.08288574,-0.09790039,0.0154418945,-2.0152671000000004,1.1832061000000003,-2.6030533,2019-08-07 09:28:41,8.0
1011.0,0.0803833,-0.09118652,0.016784668,0.3053435,0.86259544,-3.4274809999999998,2019-08-07 09:28:41,8.0
1012.0,0.0725708,-0.09100342,0.01751709,-1.5648855,1.8244275,-2.5648854,2019-08-07 09:28:41,8.0
1013.0,0.08477783,-0.09442139,0.01373291,0.58778626,-0.53435117,-4.0076336999999995,2019-08-07 09:28:41,8.0
1014.0,0.08984375,-0.09527588,0.018066406,0.19083970000000003,0.27480915,-1.7328244,2019-08-07 09:28:41,8.0
1015.0,0.08441162,-0.0914917,0.016113281,-3.6717557999999997,1.4656489,-2.816794,2019-08-07 09:28:41,8.0
1016.0,0.08953857400000001,-0.09301758,0.016235351999999998,2.6564887,0.7099236999999999,-0.36641222,2019-08-07 09:28:41,8.0
1017.0,0.07781982400000001,-0.09484863,0.01184082,1.1374046,1.0534351,-1.7557251,2019-08-07 09:28:41,8.0
1018.0,0.07763672,-0.09460449,0.016113281,-2.5954200000000003,1.961832,-3.0687022,2019-08-07 09:28:41,8.0
1019.0,0.08416748,-0.09667969,0.012512207,-0.34351146,1.6412214,-3.9389312000000007,2019-08-07 09:28:41,8.0
1020.0,0.07385254,-0.09674072,0.017578125,-0.9694656999999999,3.1755726,-4.4503818,2019-08-07 09:28:41,8.0
1021.0,0.08618164,-0.08673096,0.010437011999999999,-1.5877863,2.4122138,-4.587786,2019-08-07 09:28:41,8.0
1022.0,0.08105469,-0.09277344,0.014953613000000001,-2.1068702,2.8854961,-3.8015267999999995,2019-08-07 09:28:41,8.0
1023.0,0.087890625,-0.08825683599999999,0.016601562,0.49618322,1.5419847,-3.0687022,2019-08-07 09:28:41,8.0
1024.0,0.08282471,-0.09533691400000001,0.015625,-0.259542,3.5725190000000002,-3.5114503,2019-08-07 09:28:41,8.0
1025.0,0.08361816400000001,-0.0949707,0.016723633,0.70229006,1.5114504,-2.5496182000000003,2019-08-07 09:28:42,8.0
1026.0,0.08013916,-0.09246826,0.01763916,0.41984734,0.8244275,-2.1908397999999996,2019-08-07 09:28:42,8.0
1027.0,0.07922363,-0.08923339999999999,0.015075683999999999,-0.77862597,0.22137405,-1.6335878000000001,2019-08-07 09:28:42,8.0
1028.0,0.08508301,-0.08898926,0.0115356445,-0.2977099,0.67175573,-2.778626,2019-08-07 09:28:42,8.0
1029.0,0.08276367,-0.09576416,0.013671875,2.206107,1.4045801000000002,-2.1755726,2019-08-07 09:28:42,8.0
1030.0,0.08477783,-0.09448242,0.016479492,0.259542,1.2366412,-2.4885497,2019-08-07 09:28:42,8.0
1031.0,0.07287598,-0.093933105,0.011230469,0.84732825,1.1221374,-4.3053436,2019-08-07 09:28:42,8.0
1032.0,0.08361816400000001,-0.09289551,0.010009766,1.259542,1.8244275,-2.961832,2019-08-07 09:28:42,8.0
1033.0,0.08392334,-0.09320068,0.016357422,1.3053435,2.7404580000000003,0.58778626,2019-08-07 09:28:42,8.0
1034.0,0.08532715,-0.090026855,0.020812988,-2.1984732000000005,2.870229,-2.038168,2019-08-07 09:28:42,8.0
1035.0,0.0803833,-0.09277344,0.013305663999999998,-0.091603056,4.1679387000000006,-2.0152671000000004,2019-08-07 09:28:42,8.0
1036.0,0.08441162,-0.09027099599999999,0.015197753999999999,-0.030534351,2.4503817999999997,-3.0,2019-08-07 09:28:42,8.0
1037.0,0.084106445,-0.091674805,0.014709473,2.167939,0.33587787,-2.8549618999999997,2019-08-07 09:28:42,8.0
1038.0,0.08105469,-0.091796875,0.013916016000000002,-0.90076333,0.22900763,-4.1297708,2019-08-07 09:28:42,8.0
1039.0,0.08050537,-0.087890625,0.011657715,-1.2442749,0.740458,-1.2519083999999998,2019-08-07 09:28:42,8.0
1040.0,0.07348633,-0.09722900400000001,0.016662598,-1.0763359,-1.1068702,-2.9770992,2019-08-07 09:28:42,8.0
1041.0,0.08477783,-0.09234619,0.0115356445,-1.3053435,1.7404580000000003,-3.053435,2019-08-07 09:28:42,8.0
1042.0,0.08001709,-0.09143066400000001,0.012451172,-1.2900764,1.5496184,-3.7099237,2019-08-07 09:28:42,8.0
1043.0,0.087890625,-0.09362793,0.0107421875,-0.16030534,3.053435,-2.8091602000000004,2019-08-07 09:28:42,8.0
1044.0,0.08270264,-0.09271239999999999,0.011962891000000002,0.29007635,3.3969467000000004,-2.519084,2019-08-07 09:28:42,8.0
1045.0,0.07836914,-0.10003662,0.019714355,-0.7251908,1.9160305,-3.3358779999999997,2019-08-07 09:28:42,8.0
1046.0,0.07855224599999999,-0.09075928,0.016052246000000003,1.2671756,2.5954200000000003,-2.5419848,2019-08-07 09:28:42,8.0
1047.0,0.07745361,-0.09527588,0.015991211,2.519084,-0.33587787,-1.9007633999999998,2019-08-07 09:28:42,8.0
1048.0,0.07879639,-0.09246826,0.020996094,1.0610687,-0.007633588,-0.83206105,2019-08-07 09:28:42,8.0
1049.0,0.08502197,-0.09606933599999999,0.016296387,-0.6793893,0.6793893,-1.038168,2019-08-07 09:28:42,8.0
1050.0,0.08758545,-0.100097656,0.016052246000000003,1.9465648999999998,1.389313,0.06870229,2019-08-07 09:28:42,8.0
1051.0,0.08203125,-0.09405517599999999,0.016601562,-1.8549619,0.67175573,-3.0,2019-08-07 09:28:42,8.0
1052.0,0.09387207,-0.08917236,0.018859863,-0.79389316,2.0152671000000004,-4.0839696000000005,2019-08-07 09:28:42,8.0
1053.0,0.08514404,-0.09088135,0.016784668,-0.030534351,2.7251909,-3.4503817999999997,2019-08-07 09:28:42,8.0
1054.0,0.08569336,-0.08374023400000001,0.018127441,-0.9389313,3.3435113,-3.3282442000000003,2019-08-07 09:28:42,8.0
1055.0,0.07910156,-0.09051514,0.020996094,1.4122137,0.73282444,-3.2595419999999997,2019-08-07 09:28:42,8.0
1056.0,0.07196045,-0.08343506,0.016967773000000002,-0.13740458,1.0305344,-2.9312978,2019-08-07 09:28:42,8.0
1057.0,0.09545898400000001,-0.09344482400000001,0.021972656,-1.5038168,1.5496184,-1.8854961,2019-08-07 09:28:42,8.0
1058.0,0.083496094,-0.09045410000000001,0.020385742,-0.8549618,0.129771,-1.1832061000000003,2019-08-07 09:28:42,8.0
1059.0,0.08129883,-0.09124756,0.012145996000000001,2.793893,1.8473282,-1.7404580000000003,2019-08-07 09:28:42,8.0
1060.0,0.07324219,-0.09655762,0.014465332,0.9236641,0.8167939000000001,-2.8396947,2019-08-07 09:28:42,8.0
1061.0,0.08282471,-0.09045410000000001,0.020141601999999998,-0.8244275,2.206107,-2.8091602000000004,2019-08-07 09:28:43,8.0
1062.0,0.07946777,-0.09387207,0.0178833,0.31297709999999995,2.3053436,-2.5801528,2019-08-07 09:28:43,8.0
1063.0,0.07507324,-0.093811035,0.017150878999999997,-0.96183205,2.091603,-3.29771,2019-08-07 09:28:43,8.0
1064.0,0.08001709,-0.0949707,0.010192871,1.8396946,1.9312977,-4.809159999999999,2019-08-07 09:28:43,8.0
1065.0,0.08325195,-0.09552002,0.009338379,2.793893,1.9083970000000001,-4.3206105,2019-08-07 09:28:43,8.0
1066.0,0.07751465,-0.09460449,0.017150878999999997,-2.2290077,1.1221374,-2.1908397999999996,2019-08-07 09:28:43,8.0
1067.0,0.08154297,-0.09509277,0.015014648,-2.167939,0.9541985000000001,-3.7251909,2019-08-07 09:28:43,8.0
1068.0,0.08758545,-0.08526611,0.018615723,2.610687,1.5419847,-0.5954198,2019-08-07 09:28:43,8.0
1069.0,0.07855224599999999,-0.09100342,0.013183594,0.6946565,3.2366412,-1.3053435,2019-08-07 09:28:43,8.0
1070.0,0.08795166,-0.09466553,0.018371582,-0.27480915,2.870229,-3.946565,2019-08-07 09:28:43,8.0
1071.0,0.08331299,-0.09014892599999999,0.016479492,2.2824428,1.8702290000000001,-1.9312977,2019-08-07 09:28:43,8.0
1072.0,0.08081055,-0.08709717,0.027526855,-1.0534351,1.2061069,-1.9541985,2019-08-07 09:28:43,8.0
1073.0,0.08654785,-0.09680176,0.015136719,-0.4274809,1.0305344,-3.2290077,2019-08-07 09:28:43,8.0
1074.0,0.08483887,-0.08813476599999999,0.014099121000000001,0.36641222,1.221374,-2.6183207000000004,2019-08-07 09:28:43,8.0
1075.0,0.08917236,-0.09320068,0.011657715,3.183206,0.35114503,-2.221374,2019-08-07 09:28:43,8.0
1076.0,0.08142089999999999,-0.08673096,0.020385742,-0.8167939000000001,0.66412216,-3.7633588,2019-08-07 09:28:43,8.0
1077.0,0.07543945,-0.09271239999999999,0.015625,0.015267176,2.0229008,-4.2137402999999996,2019-08-07 09:28:43,8.0
1078.0,0.07910156,-0.090026855,0.019165039,1.2519083999999998,2.7328243,-1.5801526000000001,2019-08-07 09:28:43,8.0
1079.0,0.0871582,-0.08825683599999999,0.012390136999999999,-1.519084,2.1603053,-2.3358779999999997,2019-08-07 09:28:43,8.0
1080.0,0.08581543,-0.09283447,0.018066406,1.0992366000000002,2.8244274,-1.7786259999999998,2019-08-07 09:28:43,8.0
1081.0,0.08483887,-0.09515381,0.020751953,1.2137405,0.5648854999999999,-0.9847328000000002,2019-08-07 09:28:43,8.0
1082.0,0.07623291,-0.089782715,0.012329102,-0.67175573,1.8320610000000002,-0.610687,2019-08-07 09:28:43,8.0
1083.0,0.08886719,-0.09649658,0.020446777,0.16793893,2.3816792999999996,-1.9847328999999998,2019-08-07 09:28:43,8.0
1084.0,0.09271239999999999,-0.08618164,0.023010253999999997,1.4045801000000002,0.55725193,-1.5038168,2019-08-07 09:28:43,8.0
1085.0,0.07977295,-0.09478760000000001,0.014160156,0.55725193,1.0152671,-1.2671756,2019-08-07 09:28:43,8.0
1086.0,0.07543945,-0.088012695,0.018981934,-2.9770992,2.5801528,-2.6030533,2019-08-07 09:28:43,8.0
1087.0,0.08166504,-0.08947754,0.018859863,-0.47328246,2.1450381000000003,-3.2824428,2019-08-07 09:28:43,8.0
1088.0,0.08526611,-0.08734131,0.018127441,0.045801528,1.038168,-2.1450381000000003,2019-08-07 09:28:43,8.0
1089.0,0.078186035,-0.093688965,0.013427733999999998,-1.1603054,2.5496182000000003,-2.6717557999999997,2019-08-07 09:28:43,8.0
1090.0,0.07971191400000001,-0.08984375,0.012634277,-0.099236645,0.8244275,-2.29771,2019-08-07 09:28:43,8.0
1091.0,0.07678223,-0.09307861,0.013549805,0.4427481,1.1297709999999999,-2.8015267999999995,2019-08-07 09:28:43,8.0
1092.0,0.08129883,-0.0914917,0.017700195,0.091603056,0.39694658,-2.1068702,2019-08-07 09:28:43,8.0
1093.0,0.088378906,-0.09387207,0.016784668,-0.39694658,1.2977100000000001,-3.3129769999999996,2019-08-07 09:28:43,8.0
1094.0,0.08416748,-0.09832764,0.016723633,-0.96183205,0.17557251,-0.64122134,2019-08-07 09:28:43,8.0
1095.0,0.08636474599999999,-0.08917236,0.023925781,0.7251908,1.7328244,-3.832061,2019-08-07 09:28:43,8.0
1096.0,0.0871582,-0.08862305,0.019104003999999997,-1.0152671,1.9847328999999998,-3.6259542000000002,2019-08-07 09:28:44,8.0
1097.0,0.07635498,-0.09442139,0.018188476999999998,0.90076333,0.99236643,-2.8549618999999997,2019-08-07 09:28:44,8.0
1098.0,0.07879639,-0.085998535,0.016662598,0.16030534,3.1908397999999996,-0.17557251,2019-08-07 09:28:44,8.0
1099.0,0.07824707,-0.08685303,0.018493652,-1.9847328999999998,0.41221374,-2.0458016,2019-08-07 09:28:44,8.0
1100.0,0.08251953,-0.09265137,0.012939453,2.183206,0.2977099,-1.1755725000000001,2019-08-07 09:28:44,8.0
1101.0,0.08325195,-0.09088135,0.014953613000000001,-0.07633588,-0.19083970000000003,-3.2595419999999997,2019-08-07 09:28:44,8.0
