measurement,Acc_X,Acc_Y,Acc_Z,Gyr_X,Gyr_Y,Gyr_Z,Time(hh:mm:ss),Label
0.0,0.0005493164,-0.00592041,-0.121276855,-0.22137405,2.2290077,-3.6946564,2019-08-05 11:08:29,
1.0,-0.0020141601999999997,-6.1035155999999994e-05,-0.12249756,0.091603056,3.2748091,-0.9694656999999999,2019-08-05 11:08:29,
2.0,-0.008117675999999999,0.002746582,-0.12469482400000001,0.7099236999999999,1.9389313000000001,-2.778626,2019-08-05 11:08:29,
3.0,0.0026855469,0.002319336,-0.12207031,-1.1984733,2.3282442000000003,-1.0992366000000002,2019-08-05 11:08:29,
4.0,-0.0028076171999999997,0.006713866999999999,-0.12536621,-1.0992366000000002,0.79389316,-2.6183207000000004,2019-08-05 11:08:29,
5.0,0.009887695,0.0024414061999999998,-0.12164307,-0.8702290000000001,1.8931297999999999,-2.5648854,2019-08-05 11:08:29,
6.0,-0.005737304699999999,-0.008361816,-0.12213135,0.053435113,1.4656489,-4.8015265,2019-08-05 11:08:29,
7.0,0.0007934570299999999,-0.0061035156000000005,-0.12164307,0.35114503,2.8854961,-3.221374,2019-08-05 11:08:29,
8.0,-0.0016479492000000002,-0.0016479492000000002,-0.12377930000000001,-0.7480916,3.0839694,-4.0076336999999995,2019-08-05 11:08:29,
9.0,0.003967285,0.0,-0.12329101599999999,0.40458015,1.9312977,-0.53435117,2019-08-05 11:08:29,
10.0,-0.0018310547,-0.0005493164,-0.12561035,-1.1145038999999999,2.9847328999999996,-2.1908397999999996,2019-08-05 11:08:29,
11.0,-0.0007324219,0.0040893555,-0.12573242,-0.33587787,1.5114504,-0.41221374,2019-08-05 11:08:29,
12.0,0.00036621094,0.0014038085999999999,-0.12469482400000001,-0.6946565,2.1068702,-2.465649,2019-08-05 11:08:29,
13.0,0.0006713867,-0.0008544922000000001,-0.124938965,0.8854962,2.1450381000000003,-4.1755724,2019-08-05 11:08:29,
14.0,0.0017089844000000001,0.004638672,-0.12310791,0.36641222,1.9083970000000001,-2.442748,2019-08-05 11:08:29,
15.0,0.0018920898,0.0021972656,-0.12359619,-0.091603056,2.465649,-4.8396945,2019-08-05 11:08:29,
16.0,0.005737304699999999,-0.0021362305,-0.12176514,-1.6641221000000002,2.1984732000000005,-2.3969467,2019-08-05 11:08:29,
17.0,0.0026245116999999997,-0.0015258789000000001,-0.12420654,-0.740458,2.793893,-2.206107,2019-08-05 11:08:29,
18.0,-0.0010986328,-0.007019043000000001,-0.12567139,-0.9847328000000002,2.923664,-3.3587787000000002,2019-08-05 11:08:29,
19.0,0.0034179688000000002,0.0064086914,-0.11883545,0.053435113,3.038168,-1.0610687,2019-08-05 11:08:29,
20.0,-0.010498047,-0.00048828125,-0.12225342,0.6793893,2.3816792999999996,-1.5877863,2019-08-05 11:08:29,
21.0,0.009338379,0.0032958984000000004,-0.12365723,-0.9160305000000001,1.1068702,-3.7099237,2019-08-05 11:08:30,
22.0,-0.0034790040000000004,0.0032958984000000004,-0.12530518,0.2977099,0.33587787,-1.1450381,2019-08-05 11:08:30,
23.0,0.005676269499999999,-0.0030517578000000003,-0.12426758,-0.259542,3.1603053,-2.206107,2019-08-05 11:08:30,
24.0,-0.0028686523,-0.006042480500000001,-0.123535156,-0.053435113,2.3206108,-2.9847328999999996,2019-08-05 11:08:30,
25.0,0.0016479492000000002,-0.002319336,-0.12225342,-1.7480916000000002,1.8854961,-2.1603053,2019-08-05 11:08:30,
26.0,-0.003540039,-0.0037841796999999997,-0.1270752,-0.39694658,3.0076337000000004,-2.4351146,2019-08-05 11:08:30,
27.0,0.00048828125,-0.0038452148,-0.123046875,-1.9694656000000004,1.351145,-2.5954200000000003,2019-08-05 11:08:30,
28.0,-0.008728027,0.0033569335999999996,-0.11859131,-1.0076336,2.4122138,-3.1908397999999996,2019-08-05 11:08:30,
29.0,0.0045776367,-0.0063476562,-0.12683105,-0.31297709999999995,2.480916,-4.0610685,2019-08-05 11:08:30,
30.0,0.0029907227,0.0071411133,-0.121032715,0.015267176,3.2366412,-2.8396947,2019-08-05 11:08:30,
31.0,0.0016479492000000002,0.004028320300000001,-0.12243652,-0.5801527,3.3893129999999996,-3.0229008,2019-08-05 11:08:30,
32.0,-0.0052490233999999995,-0.0020141601999999997,-0.12322998,-0.6946565,1.0610687,-3.1526718,2019-08-05 11:08:30,
33.0,0.003967285,-0.0014038085999999999,-0.120910645,-0.2977099,2.687023,-2.053435,2019-08-05 11:08:30,
34.0,-0.0020141601999999997,0.0067749023,-0.123535156,-0.28244275,1.9465648999999998,-2.2671757,2019-08-05 11:08:30,
35.0,0.0018310547,0.0041503906,-0.12280273400000001,-0.64122134,2.1603053,-4.9007635,2019-08-05 11:08:30,
36.0,-0.002319336,0.002319336,-0.12261963,-0.34351146,3.129771,-2.7633588,2019-08-05 11:08:30,
37.0,0.00024414062000000002,0.0026245116999999997,-0.12615967,-0.52671754,0.610687,-2.5419848,2019-08-05 11:08:30,
38.0,-0.001159668,0.003967285,-0.12371826,-0.38931298,2.0229008,-5.152672,2019-08-05 11:08:30,
39.0,-0.0017700195,0.0025634766,-0.12670898,-1.6793894,1.8778626,-1.8702290000000001,2019-08-05 11:08:30,
40.0,0.00048828125,-0.0017089844000000001,-0.12231445,0.015267176,2.2748091,-2.8778627,2019-08-05 11:08:30,
41.0,-0.0015258789000000001,-0.006225586,-0.12182617,-0.9312976999999999,2.4732822999999997,-3.4885497,2019-08-05 11:08:30,
42.0,-0.0036010741999999997,-0.0079956055,-0.12438965,-1.5114504,2.038168,-1.6412214,2019-08-05 11:08:30,
43.0,-0.016967773000000002,-0.0037231445,-0.12701416,-0.32061067,2.3053436,-3.3129769999999996,2019-08-05 11:08:30,
44.0,-0.008728027,-0.001159668,-0.12487793,-0.41984734,2.2442749,-2.6259542000000002,2019-08-05 11:08:30,
45.0,0.005432129,0.0032958984000000004,-0.12738037,-1.3664121999999999,1.9923664,-3.221374,2019-08-05 11:08:30,
46.0,-0.0018310547,-0.005676269499999999,-0.12866211,-0.48091602,2.534351,-5.59542,2019-08-05 11:08:30,
47.0,-0.0020141601999999997,0.00042724610000000003,-0.12341308599999999,-0.14503817,3.167939,-1.7251908999999999,2019-08-05 11:08:30,
48.0,0.0012817383,0.0028076171999999997,-0.12371826,-0.8167939000000001,2.5267177000000003,-6.343511599999999,2019-08-05 11:08:30,
49.0,-0.0006713867,0.00018310547,-0.12084961,-2.3206108,2.9007633,-3.206107,2019-08-05 11:08:30,
50.0,0.0072631836,-0.00024414062000000002,-0.12341308599999999,-0.519084,2.465649,-4.740458,2019-08-05 11:08:30,
51.0,0.004272461,-0.0018920898,-0.12176514,-0.64122134,2.076336,-4.526717700000001,2019-08-05 11:08:30,
52.0,0.009521484,0.004333496,-0.117248535,-0.23664123,3.0,-3.8396947,2019-08-05 11:08:30,
53.0,0.0021362305,-0.003967285,-0.12030029,-0.6793893,1.8854961,-5.7938933,2019-08-05 11:08:30,
54.0,-0.0008544922000000001,-0.0008544922000000001,-0.12219238,1.6564884999999998,0.35114503,-6.2977099999999995,2019-08-05 11:08:30,
55.0,0.0017089844000000001,-0.0015258789000000001,-0.12432861,-1.5801526000000001,1.3587786,-2.4732822999999997,2019-08-05 11:08:30,
56.0,0.0028686523,-0.0072631836,-0.12652588,-0.8396947,1.2671756,-2.3206108,2019-08-05 11:08:31,
57.0,0.004760742,-0.0041503906,-0.12280273400000001,0.122137405,3.6259542000000002,-3.534351,2019-08-05 11:08:31,
58.0,-0.0021972656,0.0,-0.12579346,-1.5114504,1.9541985,-4.152672,2019-08-05 11:08:31,
59.0,0.003112793,-0.004272461,-0.12072754,-1.3587786,1.091603,-5.519083999999999,2019-08-05 11:08:31,
60.0,0.0006103515599999999,-0.0014038085999999999,-0.12219238,-0.16793893,1.8625953999999998,-3.793893,2019-08-05 11:08:31,
61.0,0.006591797,-0.0045776367,-0.12567139,-0.9694656999999999,1.4961832,-2.2824428,2019-08-05 11:08:31,
62.0,-0.0017700195,-0.001953125,-0.12347412,0.47328246,2.0152671000000004,-3.8625953,2019-08-05 11:08:31,
63.0,0.00390625,6.1035155999999994e-05,-0.11859131,-0.10687023,0.9236641,-1.9007633999999998,2019-08-05 11:08:31,
64.0,-0.009887695,-0.0017089844000000001,-0.12097168,-1.70229,1.8091604,-5.587786,2019-08-05 11:08:31,
65.0,0.006652831999999999,-0.0037231445,-0.12451172,-0.8244275,2.1908397999999996,-2.4045799999999997,2019-08-05 11:08:31,
66.0,0.011047363000000001,0.0034790040000000004,-0.12487793,1.0152671,2.908397,-3.4580152,2019-08-05 11:08:31,
67.0,-0.0049438477,-0.004272461,-0.12530518,0.07633588,1.6717557,-6.2824425999999995,2019-08-05 11:08:31,
68.0,-0.005676269499999999,-0.0026855469,-0.12512207,-0.7251908,2.5877862,-2.70229,2019-08-05 11:08:31,
69.0,0.0064086914,-6.1035155999999994e-05,-0.1227417,-0.045801528,1.3206106000000002,-1.5496184,2019-08-05 11:08:31,
70.0,-0.004760742,-0.0026855469,-0.12548828,-0.9160305000000001,3.183206,-4.2137402999999996,2019-08-05 11:08:31,
71.0,-0.0018310547,0.0014648438,-0.123535156,0.46564886,1.8396946,-2.4198472,2019-08-05 11:08:31,
72.0,-0.0013427734,0.0012207030999999999,-0.12695312,0.89312977,2.70229,-4.9389315,2019-08-05 11:08:31,
73.0,0.0005493164,0.002380371,-0.12298584,-1.1908396,2.7328243,-1.5648855,2019-08-05 11:08:31,
74.0,0.010009766,-0.0007324219,-0.12542725,-1.1297709999999999,1.7480916000000002,-0.9389313,2019-08-05 11:08:31,
75.0,-0.0012817383,-0.0010375977,-0.12750244,0.19083970000000003,1.6335878000000001,-4.9541984,2019-08-05 11:08:31,
76.0,0.00091552734,-0.004211426,-0.12249756,-0.54198474,0.610687,-5.0839696,2019-08-05 11:08:31,
77.0,0.0036621094,-0.004272461,-0.12005615,3.7709922999999996,2.0687022,-3.2748091,2019-08-05 11:08:31,
78.0,-0.0045166016,-0.0021972656,-0.12554932,-0.77099234,1.6564884999999998,-3.7633588,2019-08-05 11:08:31,
79.0,-0.0010986328,-0.0005493164,-0.12261963,-2.389313,0.7633588000000001,-3.2137403,2019-08-05 11:08:31,
80.0,0.006652831999999999,-0.004333496,-0.12121582,0.8244275,3.2595419999999997,-6.3511453,2019-08-05 11:08:31,
81.0,-0.0053100586,0.007629394499999999,-0.12658691,-0.47328246,1.6946564999999998,-4.236641400000001,2019-08-05 11:08:31,
82.0,-0.0012207030999999999,0.003112793,-0.12438965,-1.0534351,1.8167938999999997,-2.7251909,2019-08-05 11:08:31,
83.0,0.0021362305,0.0017700195,-0.11853027,-0.90839696,1.8854961,-2.832061,2019-08-05 11:08:31,
84.0,0.0009765625,-0.002746582,-0.12432861,-1.091603,2.2824428,-4.633588,2019-08-05 11:08:31,
85.0,0.004699707,-0.0020141601999999997,-0.12084961,-0.52671754,3.0229008,-4.809159999999999,2019-08-05 11:08:31,
86.0,-0.0099487305,-0.0037231445,-0.12078857400000001,-1.1603054,2.053435,-3.3358779999999997,2019-08-05 11:08:31,
87.0,0.0012817383,0.0044555664,-0.12017822,-1.8167938999999997,1.9465648999999998,-4.633588,2019-08-05 11:08:31,
88.0,0.0048217773,0.0006713867,-0.12384033,-0.22900763,1.8015267,-3.4503817999999997,2019-08-05 11:08:31,
89.0,0.00018310547,0.003112793,-0.12219238,0.38931298,1.6641221000000002,-3.1526718,2019-08-05 11:08:31,
90.0,0.001953125,0.001159668,-0.11987305,-0.8167939000000001,2.6030533,-3.206107,2019-08-05 11:08:31,
91.0,-0.011230469,-0.0015869141,-0.12719727,-1.8320610000000002,2.2366412,-4.9541984,2019-08-05 11:08:32,
92.0,6.1035155999999994e-05,-0.0008544922000000001,-0.12207031,-0.18320611,1.9694656000000004,-3.9160306000000005,2019-08-05 11:08:32,
93.0,-0.0036621094,-0.0017089844000000001,-0.12084961,-0.2977099,1.5496184,-5.343511599999999,2019-08-05 11:08:32,
94.0,-0.0010375977,-0.0006713867,-0.12298584,0.97709924,2.6488549999999997,-3.2442749,2019-08-05 11:08:32,
95.0,-0.00018310547,-0.00042724610000000003,-0.120910645,0.13740458,2.221374,-2.221374,2019-08-05 11:08:32,
96.0,-0.0007934570299999999,-0.009033203,-0.12329101599999999,-0.122137405,2.3206108,-4.0229006,2019-08-05 11:08:32,
97.0,0.0063476562,-0.0006103515599999999,-0.12579346,-0.9541985000000001,3.7557251000000003,-4.59542,2019-08-05 11:08:32,
98.0,0.0067749023,-0.0006103515599999999,-0.12298584,0.06870229,2.312977,-4.4503818,2019-08-05 11:08:32,
99.0,0.005676269499999999,0.0007934570299999999,-0.12432861,0.6183206,4.1221375,-3.1526718,2019-08-05 11:08:32,
100.0,0.0026245116999999997,-0.0044555664,-0.12402344,-1.7251908999999999,1.6335878000000001,-3.0229008,2019-08-05 11:08:32,
101.0,0.009887695,0.0032348633000000003,-0.12176514,0.86259544,1.8931297999999999,-0.7099236999999999,2019-08-05 11:08:32,
102.0,-0.001159668,-0.002746582,-0.12231445,0.7480916,2.1526718,-4.076336,2019-08-05 11:08:32,
103.0,0.006958008000000001,0.0013427734,-0.12066650400000001,-0.8854962,4.3587785000000006,-1.2671756,2019-08-05 11:08:32,
104.0,0.008605957,-0.0034179688000000002,-0.12249756,-0.18320611,0.7480916,-4.1679387000000006,2019-08-05 11:08:32,
105.0,0.0028076171999999997,-0.0015258789000000001,-0.12414551,-1.1984733,2.70229,-3.5114503,2019-08-05 11:08:32,
106.0,0.0044555664,-0.001159668,-0.12347412,-0.08396947,1.259542,-4.5801525000000005,2019-08-05 11:08:32,
107.0,0.00018310547,0.0045166016,-0.11987305,-0.23664123,1.6183206,-2.3511450000000003,2019-08-05 11:08:32,
108.0,-0.0022583008,0.001159668,-0.12359619,-0.6793893,1.7862595000000001,-1.4198473999999999,2019-08-05 11:08:32,
109.0,-0.0007934570299999999,-0.0025634766,-0.12225342,-1.5954198999999998,2.465649,-4.9389315,2019-08-05 11:08:32,
110.0,-0.0030517578000000003,0.0021362305,-0.123046875,-1.389313,1.7175573,-2.5267177000000003,2019-08-05 11:08:32,
111.0,0.013183594,-0.0008544922000000001,-0.11828613,1.259542,2.0076337,-3.5801528,2019-08-05 11:08:32,
112.0,0.0014648438,0.0030517578000000003,-0.12677002,0.6259541999999999,2.6183207000000004,-5.480916000000001,2019-08-05 11:08:32,
113.0,-0.001159668,0.0010375977,-0.12921143,-1.3282443000000002,2.572519,-3.2366412,2019-08-05 11:08:32,
114.0,0.0020751953,0.00042724610000000003,-0.12286377,-0.8091603,1.4732825,-5.8320612999999994,2019-08-05 11:08:32,
115.0,-0.0015869141,-0.0022583008,-0.12475586,0.19083970000000003,1.9389313000000001,-5.145038,2019-08-05 11:08:32,
116.0,0.0022583008,0.0064697266000000005,-0.12841797,-0.26717559,1.5114504,-3.1526718,2019-08-05 11:08:32,
117.0,-0.003967285,0.0010986328,-0.11987305,-1.2290076,2.4961832000000004,-4.3587785000000006,2019-08-05 11:08:32,
118.0,-0.0005493164,-0.0018310547,-0.11993408,0.114503816,0.9160305000000001,-3.0152671000000004,2019-08-05 11:08:32,
119.0,0.0015258789000000001,-0.0018920898,-0.12414551,-0.27480915,0.39694658,-6.3053436,2019-08-05 11:08:32,
120.0,0.003540039,0.0032958984000000004,-0.12634277,-0.18320611,2.2366412,-1.480916,2019-08-05 11:08:32,
121.0,-0.00970459,-0.0040893555,-0.12414551,-0.19083970000000003,1.9160305,-2.7404580000000003,2019-08-05 11:08:32,
122.0,0.0018920898,-0.0016479492000000002,-0.12640381,-0.35877863,2.8244274,-1.7633588,2019-08-05 11:08:32,
123.0,0.001159668,-0.005981445300000001,-0.12298584,-0.5496183000000001,2.221374,-4.236641400000001,2019-08-05 11:08:32,
124.0,-0.001159668,-0.0036621094,-0.12249756,-1.7557251,2.2595419999999997,-4.923664,2019-08-05 11:08:32,
125.0,0.0026245116999999997,0.004211426,-0.1239624,-0.26717559,2.167939,-2.6946564,2019-08-05 11:08:32,
126.0,-0.0022583008,-0.001953125,-0.1194458,-0.55725193,0.86259544,-2.9007633,2019-08-05 11:08:32,
127.0,0.0017089844000000001,0.00042724610000000003,-0.12335205,1.2900764,2.5114503,-2.9847328999999996,2019-08-05 11:08:33,
128.0,0.004333496,-0.0026245116999999997,-0.12469482400000001,0.15267175,3.053435,-2.7404580000000003,2019-08-05 11:08:33,
129.0,0.0017700195,0.0030517578000000003,-0.12200928,-1.4656489,1.091603,-4.2519083,2019-08-05 11:08:33,
130.0,-0.007080078,-0.0068359375,-0.121154785,-0.53435117,1.5419847,-2.8625952999999997,2019-08-05 11:08:33,
131.0,0.0009765625,-0.00036621094,-0.12384033,0.8167939000000001,2.923664,-3.5496182000000003,2019-08-05 11:08:33,
132.0,0.005493164,-0.005432129,-0.12371826,-0.2977099,1.2061069,-1.4580153,2019-08-05 11:08:33,
133.0,0.00048828125,-0.0031738281,-0.117248535,-0.9847328000000002,2.0839694,-3.5038167999999996,2019-08-05 11:08:33,
134.0,0.0031738281,-0.00012207031000000001,-0.12597656,-0.99236643,0.8167939000000001,-3.351145,2019-08-05 11:08:33,
135.0,-0.0010986328,0.0015869141,-0.12463379,-0.007633588,2.480916,-2.3664122000000005,2019-08-05 11:08:33,
136.0,0.0040893555,0.0008544922000000001,-0.12402344,-1.4503816,1.7938931,-2.1755726,2019-08-05 11:08:33,
137.0,0.0063476562,-0.005554199,-0.12335205,0.55725193,3.3664122000000005,-2.7328243,2019-08-05 11:08:33,
138.0,-0.0075683593999999995,-0.00018310547,-0.11859131,-1.8091604,3.4503817999999997,-2.9160306,2019-08-05 11:08:33,
139.0,0.0036621094,-0.0009765625,-0.12487793,-0.70229006,2.908397,-5.2900763,2019-08-05 11:08:33,
140.0,0.0020751953,-0.0036621094,-0.12805176,-1.3740458,2.4351146,-2.2366412,2019-08-05 11:08:33,
141.0,-0.0071411133,0.0049438477,-0.12298584,-0.31297709999999995,2.9770992,-4.5114503,2019-08-05 11:08:33,
142.0,0.006042480500000001,-0.006225586,-0.12249756,-1.259542,0.57251906,-2.5648854,2019-08-05 11:08:33,
143.0,0.001159668,-6.1035155999999994e-05,-0.12365723,-1.7557251,1.4274809,-5.8778625,2019-08-05 11:08:33,
144.0,-0.0075683593999999995,0.0028076171999999997,-0.1194458,-0.27480915,1.7251908999999999,-2.9770992,2019-08-05 11:08:33,
145.0,0.0018920898,-0.0040893555,-0.1239624,-1.7175573,3.0305343,-3.3664122000000005,2019-08-05 11:08:33,
146.0,0.009460449000000001,-0.005554199,-0.13079834,-1.1221374,2.2137403,-4.0610685,2019-08-05 11:08:33,
147.0,-0.002319336,-0.0034179688000000002,-0.12463379,0.70229006,2.778626,-3.1526718,2019-08-05 11:08:33,
148.0,0.0010986328,-0.0048217773,-0.12774658,-0.9694656999999999,2.5419848,-3.4732822999999997,2019-08-05 11:08:33,
149.0,-0.004638672,0.00030517577999999995,-0.12066650400000001,-0.99236643,2.5114503,-4.7328243,2019-08-05 11:08:33,
150.0,-0.007629394499999999,-0.0025634766,-0.12750244,-0.48091602,2.6793892,-2.8091602000000004,2019-08-05 11:08:33,
151.0,-0.001159668,-0.0009765625,-0.12310791,0.129771,1.7099236,-3.0687022,2019-08-05 11:08:33,
152.0,0.0048828125,-0.0034790040000000004,-0.12249756,-1.0458015,2.778626,-5.5648856,2019-08-05 11:08:33,
153.0,-0.0033569335999999996,-0.002380371,-0.12567139,0.610687,2.3511450000000003,-2.2366412,2019-08-05 11:08:33,
154.0,-0.0041503906,0.0045776367,-0.12536621,0.22900763,2.6183207000000004,-2.3511450000000003,2019-08-05 11:08:33,
155.0,-0.0028076171999999997,-0.0030517578000000003,-0.12377930000000001,-0.32824427,2.3053436,-3.8549618999999997,2019-08-05 11:08:33,
156.0,-0.003540039,0.00091552734,-0.11938476599999999,-0.35877863,2.1068702,-5.10687,2019-08-05 11:08:33,
157.0,0.0036010741999999997,-0.0025024414000000004,-0.123168945,0.21374045,0.8244275,-4.5114503,2019-08-05 11:08:33,
158.0,-0.0045166016,-0.00018310547,-0.12487793,-0.29007635,2.465649,-2.6412212999999998,2019-08-05 11:08:33,
159.0,0.0036010741999999997,-0.0007324219,-0.12176514,1.1145038999999999,2.557252,-4.603053599999999,2019-08-05 11:08:33,
160.0,0.00030517577999999995,-0.0017089844000000001,-0.12231445,0.06870229,2.1145039,-3.2595419999999997,2019-08-05 11:08:33,
161.0,0.00793457,-0.0052490233999999995,-0.125,-2.1526718,2.8244274,-3.9389312000000007,2019-08-05 11:08:33,
162.0,-0.006164551,-0.004211426,-0.12207031,-0.9694656999999999,2.2442749,-2.7633588,2019-08-05 11:08:33,
163.0,-0.0041503906,0.0037231445,-0.12554932,-0.41984734,1.7938931,-5.145038,2019-08-05 11:08:33,
164.0,0.0032958984000000004,-0.0017700195,-0.12176514,-1.4503816,0.9541985000000001,-3.8244274,2019-08-05 11:08:34,
165.0,0.008361816,-0.008239746,-0.12152099599999999,0.17557251,1.8473282,-4.091603299999999,2019-08-05 11:08:34,
166.0,-0.0006713867,-0.0036621094,-0.12231445,-0.79389316,1.4656489,-4.343511599999999,2019-08-05 11:08:34,
167.0,0.0032348633000000003,0.0014038085999999999,-0.12207031,-0.8702290000000001,0.9541985000000001,-4.7938933,2019-08-05 11:08:34,
168.0,0.0067749023,-0.0013427734,-0.124816895,-0.67175573,1.5725191,-2.3435113,2019-08-05 11:08:34,
169.0,-0.0014648438,0.0036621094,-0.12341308599999999,-0.18320611,2.5496182000000003,-3.5877862,2019-08-05 11:08:34,
170.0,0.009887695,-0.0065307617,-0.12268066400000001,-0.6183206,1.7786259999999998,-4.068702,2019-08-05 11:08:34,
171.0,0.0028686523,0.0056152343999999995,-0.12261963,0.22137405,3.1374047000000003,-2.6488549999999997,2019-08-05 11:08:34,
172.0,-0.006958008000000001,0.0051879883,-0.13085938,-1.9694656000000004,1.8320610000000002,-3.091603,2019-08-05 11:08:34,
173.0,0.00024414062000000002,-0.004028320300000001,-0.12457275400000001,-1.4198473999999999,1.1679389999999998,-1.9465648999999998,2019-08-05 11:08:34,
174.0,0.0017700195,0.002319336,-0.119018555,-1.5801526000000001,3.183206,-3.3358779999999997,2019-08-05 11:08:34,
175.0,0.004638672,-0.0018920898,-0.12628174,0.9312976999999999,1.0534351,-4.0458016,2019-08-05 11:08:34,
176.0,0.004638672,0.001159668,-0.12445068,-1.0229008,2.8778627,-2.1374047000000003,2019-08-05 11:08:34,
177.0,0.0018310547,-0.0025634766,-0.12524414,-0.20610687,0.67175573,-2.870229,2019-08-05 11:08:34,
178.0,-0.0067749023,-0.005737304699999999,-0.122558594,0.053435113,1.0076336,-3.9541983999999997,2019-08-05 11:08:34,
179.0,-0.0021362305,-0.00012207031000000001,-0.12213135,0.03816794,1.5954198999999998,-2.7633588,2019-08-05 11:08:34,
180.0,0.0053100586,-0.0041503906,-0.12561035,-0.091603056,2.4961832000000004,-3.778626,2019-08-05 11:08:34,
181.0,0.0030517578000000003,0.002746582,-0.12615967,-0.6946565,2.1068702,-4.396946400000001,2019-08-05 11:08:34,
182.0,0.00024414062000000002,-0.001953125,-0.12152099599999999,0.015267176,1.5419847,-4.3206105,2019-08-05 11:08:34,
183.0,0.006652831999999999,0.0038452148,-0.123535156,0.030534351,1.9694656000000004,-4.0305343,2019-08-05 11:08:34,
184.0,0.0013427734,0.0020751953,-0.11889648400000001,-0.2977099,2.206107,-2.7709923,2019-08-05 11:08:34,
185.0,-0.0020751953,0.003112793,-0.12066650400000001,-0.6335878,1.5114504,-3.053435,2019-08-05 11:08:34,
186.0,-0.0010375977,-0.0021972656,-0.12420654,0.6183206,3.1450381000000003,-4.328244000000001,2019-08-05 11:08:34,
187.0,-0.0014038085999999999,-0.0031738281,-0.12335205,-0.14503817,2.0458016,-4.0,2019-08-05 11:08:34,
188.0,0.0020751953,-0.0010986328,-0.12506104,-0.46564886,2.961832,-4.2977099999999995,2019-08-05 11:08:34,
189.0,-0.005065918,0.00018310547,-0.12530518,-1.480916,1.8167938999999997,-2.7404580000000003,2019-08-05 11:08:34,
190.0,0.005554199,-0.0025634766,-0.12152099599999999,1.4732825,2.4198472,-3.7404580000000003,2019-08-05 11:08:34,
191.0,-0.0012817383,0.003112793,-0.12438965,0.0,2.0992367,-2.167939,2019-08-05 11:08:34,
192.0,-0.002380371,-0.00030517577999999995,-0.11975098,-0.8778626,2.1145039,-3.5038167999999996,2019-08-05 11:08:34,
193.0,0.0052490233999999995,-0.0021362305,-0.11999512,0.06870229,3.1526718,-4.374046,2019-08-05 11:08:34,
194.0,-0.002319336,-0.0008544922000000001,-0.121276855,0.48091602,2.3587787000000002,-2.6030533,2019-08-05 11:08:34,
195.0,-0.0024414061999999998,-0.0014038085999999999,-0.12322998,-0.97709924,0.53435117,-3.923664,2019-08-05 11:08:34,
196.0,-0.0044555664,0.0012817383,-0.122558594,-1.1984733,2.5648854,-2.4503817999999997,2019-08-05 11:08:34,
197.0,0.0006713867,0.0007934570299999999,-0.12249756,0.03816794,1.8702290000000001,-3.9007633000000004,2019-08-05 11:08:34,
198.0,-0.011047363000000001,-0.008361816,-0.12066650400000001,-1.2290076,1.0763359,-3.8015267999999995,2019-08-05 11:08:34,
199.0,-0.0044555664,0.0028076171999999997,-0.12200928,-1.610687,2.4732822999999997,-4.6793895,2019-08-05 11:08:35,
200.0,-0.00018310547,-0.00579834,-0.12176514,0.27480915,1.2061069,-2.8244274,2019-08-05 11:08:35,
201.0,0.0044555664,-0.005432129,-0.12548828,-0.36641222,2.832061,-2.9007633,2019-08-05 11:08:35,
202.0,0.0007324219,-0.00042724610000000003,-0.11987305,0.28244275,1.2519083999999998,-3.0229008,2019-08-05 11:08:35,
203.0,-0.0061035156000000005,-0.004760742,-0.122558594,-0.03816794,3.1145039,-2.9312978,2019-08-05 11:08:35,
204.0,-0.004028320300000001,-0.0037841796999999997,-0.1239624,0.43511450000000007,2.7404580000000003,-0.38167940000000006,2019-08-05 11:08:35,
205.0,0.0028076171999999997,0.0034790040000000004,-0.12322998,-0.13740458,2.6793892,-4.038168,2019-08-05 11:08:35,
206.0,0.00036621094,-0.00030517577999999995,-0.12005615,-1.2137405,2.7175572,-4.8015265,2019-08-05 11:08:35,
207.0,0.0013427734,-0.002319336,-0.12298584,-0.86259544,1.9312977,-2.8778627,2019-08-05 11:08:35,
208.0,0.0065307617,0.0020751953,-0.12652588,-0.8702290000000001,2.5114503,-3.534351,2019-08-05 11:08:35,
209.0,0.0033569335999999996,-0.00048828125,-0.1239624,-0.6488550000000001,2.4198472,-5.6946564,2019-08-05 11:08:35,
210.0,0.0045776367,0.0006713867,-0.12322998,-0.60305345,2.816794,-3.1145039,2019-08-05 11:08:35,
211.0,0.0020141601999999997,-0.0012207030999999999,-0.12469482400000001,-0.015267176,2.9923662999999996,-3.3282442000000003,2019-08-05 11:08:35,
212.0,-0.004028320300000001,-6.1035155999999994e-05,-0.12799072,-1.4427481000000002,1.2900764,-3.4580152,2019-08-05 11:08:35,
213.0,-0.00579834,-0.0032348633000000003,-0.12408447,-0.36641222,2.0839694,-3.5190839999999994,2019-08-05 11:08:35,
214.0,0.0010986328,-0.005004883,-0.12530518,-0.41984734,3.9541983999999997,-3.4503817999999997,2019-08-05 11:08:35,
215.0,-0.0015869141,0.00018310547,-0.1281128,-2.4885497,2.389313,-4.2824425999999995,2019-08-05 11:08:35,
216.0,-0.0010375977,0.0006103515599999999,-0.12225342,1.3282443000000002,2.2137403,-2.3282442000000003,2019-08-05 11:08:35,
217.0,0.002746582,-0.0029907227,-0.12121582,-0.6488550000000001,2.0610688,-3.465649,2019-08-05 11:08:35,
218.0,-0.004272461,-0.0007934570299999999,-0.12524414,0.23664123,3.2595419999999997,-1.4580153,2019-08-05 11:08:35,
219.0,-0.003540039,0.0009765625,-0.12438965,-0.015267176,2.2900763,-2.6259542000000002,2019-08-05 11:08:35,
220.0,-0.004333496,0.0034179688000000002,-0.1239624,-0.129771,1.6030535,-1.7557251,2019-08-05 11:08:35,
221.0,0.005126953,-0.0016479492000000002,-0.12506104,-0.099236645,2.442748,-3.6183207000000004,2019-08-05 11:08:35,
222.0,-6.1035155999999994e-05,-0.0024414061999999998,-0.12286377,0.091603056,2.6641220000000003,-2.8854961,2019-08-05 11:08:35,
223.0,-0.0032348633000000003,0.0007324219,-0.12347412,-0.015267176,1.9312977,-4.625954,2019-08-05 11:08:35,
224.0,-0.004760742,0.0010986328,-0.12384033,0.8854962,2.793893,-2.4045799999999997,2019-08-05 11:08:35,
225.0,0.00030517577999999995,0.0008544922000000001,-0.122924805,1.2977100000000001,1.3435115,-3.2137403,2019-08-05 11:08:35,
226.0,0.0073242188,0.0043945312,-0.12329101599999999,-0.35877863,2.129771,-3.7328242999999994,2019-08-05 11:08:35,
227.0,-0.005432129,-0.009094238000000001,-0.12121582,-0.7633588000000001,2.076336,-2.312977,2019-08-05 11:08:35,
228.0,-0.0048217773,-0.0014648438,-0.12341308599999999,-0.9312976999999999,1.389313,-2.1526718,2019-08-05 11:08:35,
229.0,0.0007324219,0.002746582,-0.12182617,0.13740458,1.8702290000000001,-4.3816795,2019-08-05 11:08:35,
230.0,-0.0006103515599999999,0.00091552734,-0.121032715,0.26717559,2.1603053,-2.5877862,2019-08-05 11:08:35,
231.0,0.001159668,0.0024414061999999998,-0.11773682,-1.2061069,2.6412212999999998,-1.9312977,2019-08-05 11:08:35,
232.0,0.0026245116999999997,-0.0015258789000000001,-0.12213135,0.022900764,2.4122138,-3.5801528,2019-08-05 11:08:35,
233.0,0.0053100586,-0.00012207031000000001,-0.12487793,0.21374045,1.8396946,-2.4885497,2019-08-05 11:08:35,
234.0,-0.003112793,0.0006103515599999999,-0.12341308599999999,-1.1068702,2.3511450000000003,-4.6183205,2019-08-05 11:08:36,
235.0,-6.1035155999999994e-05,0.005554199,-0.12652588,-0.07633588,0.17557251,-2.6641220000000003,2019-08-05 11:08:36,
236.0,0.0029907227,0.0025634766,-0.12176514,-1.1526718,1.5343511,-3.7709922999999996,2019-08-05 11:08:36,
237.0,0.0012207030999999999,0.0018920898,-0.12652588,-0.7251908,1.9236640999999999,-0.7251908,2019-08-05 11:08:36,
238.0,-0.002746582,-0.005737304699999999,-0.12530518,-0.77099234,1.2900764,-5.59542,2019-08-05 11:08:36,
239.0,-0.005859375,0.001953125,-0.12695312,-0.9389313,1.6717557,-3.2671757,2019-08-05 11:08:36,
240.0,0.0036010741999999997,0.0007324219,-0.119262695,-0.5801527,2.5038167999999996,-3.1145039,2019-08-05 11:08:36,
241.0,0.0049438477,-0.00579834,-0.12487793,-1.0610687,2.572519,-3.6641220000000003,2019-08-05 11:08:36,
242.0,0.0034179688000000002,0.0008544922000000001,-0.1262207,-0.5648854999999999,2.3740457999999998,-3.0229008,2019-08-05 11:08:36,
243.0,-0.0038452148,-0.0010375977,-0.119140625,0.610687,1.389313,-2.8931298,2019-08-05 11:08:36,
244.0,-0.0099487305,-0.0006103515599999999,-0.12487793,-0.053435113,2.5877862,-0.90839696,2019-08-05 11:08:36,
245.0,-0.006591797,-0.00024414062000000002,-0.1227417,-1.0610687,2.534351,-4.625954,2019-08-05 11:08:36,
246.0,-0.012512207,-0.0020751953,-0.12072754,-1.2671756,2.5038167999999996,-3.3893129999999996,2019-08-05 11:08:36,
247.0,-0.0018310547,-0.0012207030999999999,-0.12451172,-1.0229008,3.1145039,-1.7633588,2019-08-05 11:08:36,
248.0,-0.006225586,-0.00036621094,-0.12652588,-0.55725193,1.1068702,-3.7328242999999994,2019-08-05 11:08:36,
249.0,0.0005493164,-0.0067749023,-0.12170410000000002,-0.40458015,2.1908397999999996,-1.7251908999999999,2019-08-05 11:08:36,
250.0,0.006286621,-0.0022583008,-0.12457275400000001,0.022900764,0.7480916,-2.8015267999999995,2019-08-05 11:08:36,
251.0,0.0038452148,-0.003967285,-0.12335205,0.34351146,1.6793894,-5.1984735,2019-08-05 11:08:36,
252.0,-0.0006103515599999999,-0.003112793,-0.12786865,-0.6870229,2.6030533,-3.0,2019-08-05 11:08:36,
253.0,-0.0036621094,-0.0053710938,-0.12048339999999998,0.6183206,1.7786259999999998,-3.0152671000000004,2019-08-05 11:08:36,
254.0,0.0021362305,0.00048828125,-0.11981201,-0.35114503,1.5572518999999998,-2.3587787000000002,2019-08-05 11:08:36,
255.0,-0.0056152343999999995,-0.0034790040000000004,-0.12231445,-0.58778626,2.6183207000000004,-3.3282442000000003,2019-08-05 11:08:36,
256.0,-0.005493164,-0.0038452148,-0.123046875,-1.648855,0.38167940000000006,-3.076336,2019-08-05 11:08:36,
257.0,-0.008911133,-0.00036621094,-0.12298584,-1.1526718,2.480916,-4.343511599999999,2019-08-05 11:08:36,
258.0,-0.0006713867,0.010437011999999999,-0.12725830000000002,-0.9312976999999999,1.3053435,-3.3587787000000002,2019-08-05 11:08:36,
259.0,0.006225586,-0.002746582,-0.12170410000000002,-0.5801527,2.053435,-2.389313,2019-08-05 11:08:36,
260.0,0.0068359375,-0.00579834,-0.12597656,-1.8702290000000001,1.1450381,-2.7328243,2019-08-05 11:08:36,
261.0,-0.0032348633000000003,-0.0032348633000000003,-0.12011719,0.16793893,2.2748091,-2.5801528,2019-08-05 11:08:36,
262.0,-0.0026855469,0.0025634766,-0.11883545,-1.0839695,2.0,-4.664122,2019-08-05 11:08:36,
263.0,-6.1035155999999994e-05,0.0009765625,-0.12701416,-0.030534351,3.1145039,-4.4656487,2019-08-05 11:08:36,
264.0,0.011657715,-0.0030517578000000003,-0.12597656,-1.0229008,2.8473282,-5.091603299999999,2019-08-05 11:08:36,
265.0,0.0014038085999999999,-0.0037231445,-0.120910645,-0.35114503,2.038168,-1.8396946,2019-08-05 11:08:36,
266.0,-0.0038452148,-0.0068969727,-0.12231445,-0.061068702,3.0992367,-5.145038,2019-08-05 11:08:36,
267.0,-0.0028686523,0.00012207031000000001,-0.11938476599999999,-1.4045801000000002,1.6412214,-1.9389313000000001,2019-08-05 11:08:36,
268.0,-0.0063476562,0.0006713867,-0.12261963,-1.2519083999999998,3.6793892,-3.5114503,2019-08-05 11:08:36,
269.0,0.00036621094,0.0025024414000000004,-0.12420654,-1.8167938999999997,0.90839696,-4.442748,2019-08-05 11:08:36,
270.0,0.001159668,-0.0005493164,-0.13024902,-0.9312976999999999,1.1832061000000003,-2.6641220000000003,2019-08-05 11:08:37,
271.0,0.008666992,0.001953125,-0.11370849599999999,-2.0305343000000002,7.412214,-4.2671757,2019-08-05 11:08:37,
272.0,-0.0024414061999999998,-0.0079956055,-0.12518310000000002,-0.259542,-1.4045801000000002,-2.5267177000000003,2019-08-05 11:08:37,
273.0,-0.005432129,0.0056152343999999995,-0.12084961,-1.9389313000000001,5.8015265,-3.70229,2019-08-05 11:08:37,
274.0,-0.0028686523,-0.0010986328,-0.12219238,0.35877863,-1.3358778999999998,-3.1068702,2019-08-05 11:08:37,
275.0,0.0063476562,-0.0006103515599999999,-0.12194824,-0.32824427,4.145038,-3.1068702,2019-08-05 11:08:37,
276.0,-0.004699707,-0.0037231445,-0.12261963,0.27480915,0.8549618,-4.923664,2019-08-05 11:08:37,
277.0,-0.005004883,0.0017700195,-0.12322998,0.061068702,1.8091604,-3.5419848,2019-08-05 11:08:37,
278.0,-0.004699707,-0.0026245116999999997,-0.12542725,0.32061067,3.1984732000000005,-2.5648854,2019-08-05 11:08:37,
279.0,-0.0037841796999999997,-0.0010375977,-0.123046875,-0.86259544,-0.129771,-2.9007633,2019-08-05 11:08:37,
280.0,-0.005737304699999999,-0.0020751953,-0.12261963,-1.9465648999999998,3.70229,-3.206107,2019-08-05 11:08:37,
281.0,-0.0007934570299999999,-0.0049438477,-0.11950683599999999,-1.0229008,0.22137405,-3.6183207000000004,2019-08-05 11:08:37,
282.0,0.0045166016,0.0028076171999999997,-0.12219238,-0.740458,2.2900763,-4.854962,2019-08-05 11:08:37,
283.0,-0.0015258789000000001,0.0,-0.125,-0.21374045,1.5954198999999998,-4.0076336999999995,2019-08-05 11:08:37,
284.0,0.0025634766,-0.0028686523,-0.11682129,1.4503816,3.0610687999999997,-4.8625956,2019-08-05 11:08:37,
285.0,-0.0021972656,-0.0005493164,-0.12634277,-0.27480915,4.0076336999999995,-4.763358599999999,2019-08-05 11:08:37,
286.0,0.0018920898,0.0018920898,-0.12597656,0.54198474,2.5267177000000003,-3.9541983999999997,2019-08-05 11:08:37,
287.0,-0.012145996000000001,-0.0015258789000000001,-0.121032715,-0.38167940000000006,1.9083970000000001,-2.8549618999999997,2019-08-05 11:08:37,
288.0,-0.004699707,-0.00012207031000000001,-0.12365723,0.48854962,1.3053435,-5.656488400000001,2019-08-05 11:08:37,
289.0,0.0006103515599999999,-0.004272461,-0.12170410000000002,-1.1145038999999999,1.4732825,-1.6259542,2019-08-05 11:08:37,
290.0,-0.006164551,-0.0007324219,-0.12335205,-1.0229008,2.5419848,-3.3282442000000003,2019-08-05 11:08:37,
291.0,-0.0040893555,0.005981445300000001,-0.12420654,-1.6412214,1.0687023,-3.2137403,2019-08-05 11:08:37,
292.0,-0.0034179688000000002,-0.004211426,-0.12542725,-1.6412214,2.7862597,-2.572519,2019-08-05 11:08:37,
293.0,0.0005493164,-0.0053100586,-0.12335205,-1.9847328999999998,2.1908397999999996,-3.1908397999999996,2019-08-05 11:08:37,
294.0,0.0006103515599999999,0.0020751953,-0.12408447,-0.57251906,1.6335878000000001,-3.4351146,2019-08-05 11:08:37,
295.0,-0.0028076171999999997,-0.001953125,-0.12530518,-1.351145,2.3969467,-4.259542,2019-08-05 11:08:37,
296.0,0.0032348633000000003,-0.0025634766,-0.12365723,-0.7633588000000001,2.572519,-2.9923662999999996,2019-08-05 11:08:37,
297.0,-0.0068969727,-0.0024414061999999998,-0.11907959,-0.86259544,1.9923664,-1.5343511,2019-08-05 11:08:37,
298.0,0.008300781,0.0065307617,-0.12139892599999999,0.32061067,0.9160305000000001,-2.6717557999999997,2019-08-05 11:08:37,
299.0,-0.012207031,0.0020141601999999997,-0.12384033,0.045801528,0.5648854999999999,-2.8854961,2019-08-05 11:08:37,
300.0,0.0016479492000000002,-0.004699707,-0.12524414,-0.519084,2.6412212999999998,-3.8244274,2019-08-05 11:08:37,
301.0,-0.007019043000000001,0.00048828125,-0.12432861,-1.038168,3.1984732000000005,-3.0687022,2019-08-05 11:08:37,
302.0,0.0064697266000000005,0.002319336,-0.12072754,0.19847329,1.4580153,-2.534351,2019-08-05 11:08:37,
303.0,0.0017089844000000001,0.0014648438,-0.12084961,0.20610687,2.6641220000000003,-3.5190839999999994,2019-08-05 11:08:37,
304.0,0.0045776367,0.0,-0.12030029,-2.0458016,1.8396946,-2.6030533,2019-08-05 11:08:37,
305.0,-0.0037841796999999997,0.002319336,-0.11920166,-0.2519084,2.5267177000000003,-4.7557254,2019-08-05 11:08:37,
306.0,0.012207031,0.0008544922000000001,-0.12188721,0.22137405,1.9236640999999999,-2.5877862,2019-08-05 11:08:38,
307.0,0.0028076171999999997,0.0016479492000000002,-0.12036133,-0.19847329,2.6793892,-2.70229,2019-08-05 11:08:38,
308.0,0.005126953,-0.006591797,-0.12841797,-0.06870229,1.70229,-4.9770994,2019-08-05 11:08:38,
309.0,0.0007324219,0.004211426,-0.12365723,0.6488550000000001,2.1221373,-4.2900763,2019-08-05 11:08:38,
310.0,-0.0061035156000000005,6.1035155999999994e-05,-0.12817383,-1.0305344,1.0992366000000002,-4.1603055,2019-08-05 11:08:38,
311.0,-0.001159668,0.0021362305,-0.12664795,-0.10687023,2.6335877999999995,-3.923664,2019-08-05 11:08:38,
312.0,-0.0018920898,0.005493164,-0.12561035,-1.2977100000000001,3.1603053,-2.610687,2019-08-05 11:08:38,
313.0,0.0064086914,-0.0032348633000000003,-0.12188721,-1.2977100000000001,2.0152671000000004,-4.0,2019-08-05 11:08:38,
314.0,-0.0018920898,0.001953125,-0.12261963,0.43511450000000007,3.2595419999999997,-2.6946564,2019-08-05 11:08:38,
315.0,0.00048828125,-0.002380371,-0.1260376,-0.35114503,2.2748091,-3.7099237,2019-08-05 11:08:38,
316.0,0.0007324219,0.0034179688000000002,-0.12097168,-0.48854962,1.70229,-4.8625956,2019-08-05 11:08:38,
317.0,-0.002746582,0.0021972656,-0.12261963,-0.60305345,3.3206108,-2.4732822999999997,2019-08-05 11:08:38,
318.0,0.0029907227,0.0028076171999999997,-0.12390137,0.41984734,3.1145039,-3.778626,2019-08-05 11:08:38,
319.0,-0.006958008000000001,0.0017089844000000001,-0.12194824,-0.8778626,2.4045799999999997,-4.9007635,2019-08-05 11:08:38,
320.0,0.0030517578000000003,0.005981445300000001,-0.12512207,-0.8015267,1.2824427,-4.3206105,2019-08-05 11:08:38,
321.0,0.005065918,0.00012207031000000001,-0.12731934,-1.8778626,0.519084,-3.6183207000000004,2019-08-05 11:08:38,
322.0,0.0045166016,0.0015258789000000001,-0.123168945,0.0,2.3664122000000005,-4.603053599999999,2019-08-05 11:08:38,
323.0,-0.0048828125,0.0028686523,-0.12200928,-0.17557251,1.0610687,-2.8778627,2019-08-05 11:08:38,
324.0,0.007507324,0.0029296875,-0.12414551,-1.648855,1.8320610000000002,-3.8854961,2019-08-05 11:08:38,
325.0,-0.006958008000000001,-0.0025024414000000004,-0.12371826,-0.2977099,3.4580152,-4.473282299999999,2019-08-05 11:08:38,
326.0,0.0007324219,0.0012817383,-0.11859131,0.14503817,1.9236640999999999,-3.3816792999999996,2019-08-05 11:08:38,
327.0,-0.00042724610000000003,-0.0016479492000000002,-0.124816895,-1.6564884999999998,2.6641220000000003,-4.5648856,2019-08-05 11:08:38,
328.0,0.0017089844000000001,-0.0014038085999999999,-0.12384033,-1.2977100000000001,2.6564887,-2.8931298,2019-08-05 11:08:38,
329.0,0.0009765625,-0.0026855469,-0.11859131,0.08396947,2.832061,-4.5725193,2019-08-05 11:08:38,
330.0,0.0071411133,0.00048828125,-0.12957764,-3.3664122000000005,0.57251906,-4.1679387000000006,2019-08-05 11:08:38,
331.0,-0.0013427734,0.0021362305,-0.11663818,-0.29007635,2.2519082999999998,-4.076336,2019-08-05 11:08:38,
332.0,0.002319336,0.0010986328,-0.12780762,1.2748091000000001,3.9770992,-0.66412216,2019-08-05 11:08:38,
333.0,-0.0012817383,-0.0021362305,-0.12438965,-1.6870228999999999,0.9236641,-2.7557251,2019-08-05 11:08:38,
334.0,0.0048828125,-6.1035155999999994e-05,-0.125,-1.3282443000000002,2.7557251,-3.9541983999999997,2019-08-05 11:08:38,
335.0,-0.003112793,-0.0014038085999999999,-0.12463379,-1.3664121999999999,1.0229008,-3.8167940000000002,2019-08-05 11:08:38,
336.0,0.0007324219,-0.0013427734,-0.119140625,-0.5038168,3.3053436,-4.0076336999999995,2019-08-05 11:08:38,
337.0,-0.006958008000000001,-0.00982666,-0.12286377,-0.5801527,1.9923664,-4.442748,2019-08-05 11:08:38,
338.0,0.00018310547,-0.0007324219,-0.12762451,0.08396947,0.36641222,-3.221374,2019-08-05 11:08:38,
339.0,-0.004699707,0.012573242,-0.12506104,-0.7480916,2.312977,-3.6717557999999997,2019-08-05 11:08:38,
340.0,0.0052490233999999995,-0.0016479492000000002,-0.11993408,0.7480916,1.9236640999999999,-2.5648854,2019-08-05 11:08:38,
341.0,-0.0029296875,0.0008544922000000001,-0.12011719,1.0,2.6259542000000002,-2.221374,2019-08-05 11:08:38,
342.0,-0.00042724610000000003,-0.0073242188,-0.11950683599999999,0.06870229,1.3816794,-3.2595419999999997,2019-08-05 11:08:39,
343.0,0.0037841796999999997,0.0025024414000000004,-0.12329101599999999,-1.4427481000000002,2.0992367,-4.374046,2019-08-05 11:08:39,
344.0,0.0008544922000000001,-0.0016479492000000002,-0.12713623,-0.66412216,1.610687,-3.4274809999999998,2019-08-05 11:08:39,
345.0,0.005065918,0.0022583008,-0.12390137,-1.1679389999999998,1.3129771000000001,-4.152672,2019-08-05 11:08:39,
346.0,-0.0015258789000000001,-0.00390625,-0.12243652,-0.35114503,3.1526718,-3.7251909,2019-08-05 11:08:39,
347.0,-0.0045776367,0.0048217773,-0.12237549,1.091603,1.648855,-2.2137403,2019-08-05 11:08:39,
348.0,-0.0025634766,-0.00042724610000000003,-0.12005615,0.67175573,3.9694656999999998,-2.7557251,2019-08-05 11:08:39,
349.0,0.0038452148,0.007446289,-0.12445068,-0.38167940000000006,2.1603053,-4.664122,2019-08-05 11:08:39,
350.0,-0.0008544922000000001,-0.0065307617,-0.1270752,-0.045801528,2.0076337,-3.5038167999999996,2019-08-05 11:08:39,
351.0,0.0051879883,0.00024414062000000002,-0.12738037,0.122137405,1.9160305,-4.5648856,2019-08-05 11:08:39,
352.0,-0.0052490233999999995,-0.004211426,-0.12780762,-0.259542,1.8778626,-2.3358779999999997,2019-08-05 11:08:39,
353.0,-0.0045166016,0.0063476562,-0.12188721,-0.8167939000000001,3.9923663,-3.5725190000000002,2019-08-05 11:08:39,
354.0,0.008239746,-0.002319336,-0.12689209,-1.1068702,2.4961832000000004,-3.7557251000000003,2019-08-05 11:08:39,
355.0,0.0026245116999999997,0.0036010741999999997,-0.12097168,0.14503817,3.6335877999999995,-2.6641220000000003,2019-08-05 11:08:39,
356.0,0.00579834,-0.005126953,-0.123168945,0.58778626,3.3893129999999996,-3.8091602,2019-08-05 11:08:39,
357.0,-0.0051879883,-0.0051879883,-0.12194824,-1.1068702,1.2519083999999998,-5.0229006,2019-08-05 11:08:39,
358.0,-0.004638672,-0.0025634766,-0.12426758,-0.4274809,1.7862595000000001,-3.4351146,2019-08-05 11:08:39,
359.0,0.0021972656,-0.0015258789000000001,-0.12554932,-0.19083970000000003,1.6259542,-4.2824425999999995,2019-08-05 11:08:39,
360.0,0.0033569335999999996,-0.0073242188,-0.12414551,-0.36641222,0.8244275,-5.236641400000001,2019-08-05 11:08:39,
361.0,0.0012207030999999999,-0.00592041,-0.11730957,-0.519084,3.648855,-3.8854961,2019-08-05 11:08:39,
362.0,-0.0031738281,-0.006958008000000001,-0.12463379,-0.20610687,1.2977100000000001,-2.480916,2019-08-05 11:08:39,
363.0,-0.007080078,-0.005493164,-0.12005615,-1.3206106000000002,3.0839694,-3.9923663,2019-08-05 11:08:39,
364.0,-0.005981445300000001,-0.003967285,-0.1227417,0.0,2.3282442000000003,-3.0152671000000004,2019-08-05 11:08:39,
365.0,0.006225586,-0.0051879883,-0.12194824,0.28244275,1.9465648999999998,-3.7633588,2019-08-05 11:08:39,
366.0,-0.0033569335999999996,-0.001159668,-0.12384033,-0.26717559,0.9847328000000002,-2.4961832000000004,2019-08-05 11:08:39,
367.0,0.0020751953,0.001159668,-0.12512207,-1.0076336,2.1984732000000005,-0.58778626,2019-08-05 11:08:39,
368.0,0.00091552734,-0.0028686523,-0.12139892599999999,-0.22900763,1.3053435,-2.70229,2019-08-05 11:08:39,
369.0,0.0008544922000000001,-0.0006713867,-0.12158203,-0.9694656999999999,1.4274809,-3.3282442000000003,2019-08-05 11:08:39,
370.0,0.0036010741999999997,-0.007629394499999999,-0.11956787,-0.32824427,1.6335878000000001,-2.3816792999999996,2019-08-05 11:08:39,
371.0,-0.0056152343999999995,0.0029296875,-0.12322998,-0.4427481,3.2366412,-3.2595419999999997,2019-08-05 11:08:39,
372.0,-0.009521484,0.006225586,-0.123168945,-0.8702290000000001,3.2366412,-3.29771,2019-08-05 11:08:39,
373.0,0.0037841796999999997,6.1035155999999994e-05,-0.11804199,0.52671754,0.8091603,-3.183206,2019-08-05 11:08:39,
374.0,-0.0012207030999999999,-0.0053100586,-0.12445068,0.07633588,1.0,-2.6030533,2019-08-05 11:08:39,
375.0,0.005554199,0.0045166016,-0.12158203,-1.6870228999999999,0.7099236999999999,-3.3969467000000004,2019-08-05 11:08:39,
376.0,0.005981445300000001,-0.005859375,-0.12677002,-0.18320611,2.2900763,-2.1603053,2019-08-05 11:08:39,
377.0,0.0007934570299999999,0.0009765625,-0.12530518,-1.0076336,1.7328244,-4.59542,2019-08-05 11:08:40,
378.0,0.008605957,0.0029296875,-0.12561035,-1.2442749,1.8625953999999998,-4.114504,2019-08-05 11:08:40,
379.0,0.0014648438,-0.0015258789000000001,-0.12310791,-0.6183206,0.7557252,-4.2290077,2019-08-05 11:08:40,
380.0,0.0012817383,-0.00030517577999999995,-0.12554932,-0.43511450000000007,2.870229,-2.5954200000000003,2019-08-05 11:08:40,
381.0,0.005065918,0.0078125,-0.12445068,1.0458015,1.0687023,-1.1832061000000003,2019-08-05 11:08:40,
382.0,-0.009033203,-0.0017700195,-0.12310791,-0.35877863,1.7557251,-6.1679387000000006,2019-08-05 11:08:40,
383.0,-0.0010986328,0.0013427734,-0.12359619,-0.67175573,2.0076337,-3.6946564,2019-08-05 11:08:40,
384.0,0.009216309,-0.004638672,-0.12805176,-0.5038168,-0.17557251,-2.5419848,2019-08-05 11:08:40,
385.0,-0.00091552734,-0.0007934570299999999,-0.12280273400000001,-1.4732825,1.8244275,-2.2748091,2019-08-05 11:08:40,
386.0,0.001953125,-0.0021362305,-0.12628174,-0.3053435,1.7328244,-3.1908397999999996,2019-08-05 11:08:40,
387.0,0.004272461,0.001159668,-0.11975098,-0.38167940000000006,2.3740457999999998,-2.4045799999999997,2019-08-05 11:08:40,
388.0,-0.0032958984000000004,0.0022583008,-0.12878418,-19.847328,38.51145,3.221374,2019-08-05 11:08:40,
389.0,0.022644043,0.012451172,-0.13336182,-25.992367,129.45038,51.427483,2019-08-05 11:08:40,
390.0,0.006164551,-0.0067749023,-0.14044189999999998,21.274809,-50.954197,-8.2595415,2019-08-05 11:08:40,
391.0,0.003112793,0.0052490233999999995,-0.1116333,2.9541984,4.1984735,-0.64122134,2019-08-05 11:08:40,
392.0,-0.003967285,0.005004883,-0.1383667,1.389313,-0.46564886,-7.70229,2019-08-05 11:08:40,
393.0,0.02532959,-0.013549805,-0.0758667,-12.80916,15.832060999999998,-3.3664122000000005,2019-08-05 11:08:40,
394.0,0.009887695,0.007629394499999999,-0.11364746,-5.473282299999999,21.862595000000002,-2.0610688,2019-08-05 11:08:40,
395.0,0.016845703,0.0018920898,-0.11950683599999999,-1.8320610000000002,5.5496182,-3.3206108,2019-08-05 11:08:40,
396.0,0.010375977,-0.0029296875,-0.117370605,-1.4198473999999999,3.5114503,-1.9770991999999998,2019-08-05 11:08:40,
397.0,-0.00018310547,-0.0079956055,-0.11907959,-0.26717559,6.236641400000001,-13.496182999999998,2019-08-05 11:08:40,
398.0,0.014099121000000001,0.0043945312,-0.12457275400000001,1.7557251,3.6335877999999995,-31.091602,2019-08-05 11:08:40,
399.0,0.013122558999999999,0.0043945312,-0.12158203,2.480916,2.5038167999999996,-28.900763,2019-08-05 11:08:40,
400.0,-0.006164551,0.010131836,-0.12170410000000002,2.427481,-0.35114503,-16.099237,2019-08-05 11:08:40,
401.0,0.009521484,0.0025024414000000004,-0.12457275400000001,0.053435113,0.06870229,-4.809159999999999,2019-08-05 11:08:40,
402.0,0.009521484,0.006042480500000001,-0.12634277,5.8320612999999994,-26.290077,-3.0152671000000004,2019-08-05 11:08:40,
403.0,0.007019043000000001,0.006591797,-0.12298584,4.6412214999999994,-26.076335999999998,-3.6106870000000004,2019-08-05 11:08:40,
404.0,0.0005493164,-0.00592041,-0.12939453,7.557252,-35.549618,-2.6564887,2019-08-05 11:08:40,
405.0,-0.0021972656,-0.0038452148,-0.1262207,11.2213745,-48.190838,-3.206107,2019-08-05 11:08:40,
406.0,-0.0016479492000000002,-0.0040893555,-0.12835693,-2.6717557999999997,9.496183,-2.6717557999999997,2019-08-05 11:08:40,
407.0,0.0032348633000000003,0.0012817383,-0.11968994,-3.1221373,17.977098,-1.7328244,2019-08-05 11:08:40,
408.0,0.0022583008,0.0029296875,-0.12268066400000001,2.2900763,-15.679389000000002,-4.5419846,2019-08-05 11:08:40,
409.0,-0.007019043000000001,0.0064697266000000005,-0.12567139,-1.1526718,10.061069,-2.312977,2019-08-05 11:08:40,
410.0,0.0,0.006164551,-0.12329101599999999,-0.38167940000000006,3.1145039,-3.7557251000000003,2019-08-05 11:08:40,
411.0,0.005004883,-0.0048828125,-0.12145996,-0.6946565,-2.6335877999999995,-2.8244274,2019-08-05 11:08:40,
412.0,0.0012207030999999999,0.0025634766,-0.12805176,-0.48854962,6.969465700000001,-2.816794,2019-08-05 11:08:40,
413.0,0.004333496,-0.0014038085999999999,-0.12554932,0.99236643,-1.2519083999999998,-2.4961832000000004,2019-08-05 11:08:41,
414.0,-0.0036621094,-0.0048828125,-0.1260376,-1.6412214,4.343511599999999,-3.0839694,2019-08-05 11:08:41,
415.0,0.004760742,-0.005981445300000001,-0.121154785,0.49618322,1.5114504,-5.0610685,2019-08-05 11:08:41,
416.0,0.0012207030999999999,-0.006591797,-0.12542725,-0.38167940000000006,1.8778626,-3.7557251000000003,2019-08-05 11:08:41,
417.0,-0.0053710938,0.0017700195,-0.12658691,-0.21374045,2.3664122000000005,-1.8015267,2019-08-05 11:08:41,
418.0,0.011108398,-0.004028320300000001,-0.12036133,0.77862597,-0.39694658,-3.1908397999999996,2019-08-05 11:08:41,
419.0,0.005676269499999999,-0.0048217773,-0.12615967,-0.6946565,3.3740457999999998,-1.6335878000000001,2019-08-05 11:08:41,
420.0,0.009277344,0.0040893555,-0.124816895,-0.13740458,0.4427481,-3.7480917000000002,2019-08-05 11:08:41,
421.0,0.006225586,-0.0021362305,-0.12121582,-1.1068702,5.091603299999999,-3.40458,2019-08-05 11:08:41,
422.0,0.0026855469,0.0025634766,-0.12591553,0.5801527,-1.3740458,-0.67175573,2019-08-05 11:08:41,
423.0,-0.0032348633000000003,0.005493164,-0.121276855,-0.3740458,4.9389315,-3.6641220000000003,2019-08-05 11:08:41,
424.0,0.0006713867,-0.0026245116999999997,-0.12463379,-0.129771,-0.34351146,-2.2290077,2019-08-05 11:08:41,
425.0,-0.0049438477,0.0014648438,-0.12329101599999999,-0.9312976999999999,4.7251905999999995,-3.1374047000000003,2019-08-05 11:08:41,
426.0,-0.0024414061999999998,0.005065918,-0.12109375,0.48091602,2.3816792999999996,-4.0305343,2019-08-05 11:08:41,
427.0,-0.0033569335999999996,0.0064697266000000005,-0.12445068,-0.259542,3.221374,-3.1984732000000005,2019-08-05 11:08:41,
428.0,0.0013427734,-0.0025634766,-0.12280273400000001,1.8244275,2.0992367,-3.923664,2019-08-05 11:08:41,
429.0,0.0072021483999999995,0.0013427734,-0.12341308599999999,0.5038168,1.9083970000000001,-4.0305343,2019-08-05 11:08:41,
430.0,0.005554199,-0.005859375,-0.11968994,-0.4274809,1.1374046,-4.946564700000001,2019-08-05 11:08:41,
431.0,-0.0010986328,-0.004760742,-0.12530518,-0.28244275,2.183206,-2.167939,2019-08-05 11:08:41,
432.0,-0.0033569335999999996,-0.004211426,-0.12145996,-1.2061069,2.480916,-1.5801526000000001,2019-08-05 11:08:41,
433.0,6.1035155999999994e-05,0.0032348633000000003,-0.12506104,-0.21374045,1.8549619,-2.2519082999999998,2019-08-05 11:08:41,
434.0,-0.0012207030999999999,-0.005554199,-0.12506104,-0.55725193,1.7786259999999998,-3.6870230000000004,2019-08-05 11:08:41,
435.0,-0.002746582,-0.0038452148,-0.11779785,-0.6870229,2.442748,-5.091603299999999,2019-08-05 11:08:41,
436.0,0.005126953,-0.0053100586,-0.12194824,-0.45801526,2.8854961,-4.809159999999999,2019-08-05 11:08:41,
437.0,0.0007934570299999999,-0.0037231445,-0.12005615,-1.3282443000000002,1.0076336,-2.9160306,2019-08-05 11:08:41,
438.0,-0.0013427734,-0.0028686523,-0.121032715,-0.73282444,1.2442749,-2.0458016,2019-08-05 11:08:41,
439.0,0.010498047,0.0044555664,-0.11968994,-1.7633588,1.519084,-3.961832,2019-08-05 11:08:41,
440.0,0.0020751953,-0.0020751953,-0.119262695,0.58778626,2.7862597,-4.8625956,2019-08-05 11:08:41,
441.0,-0.0056152343999999995,0.00012207031000000001,-0.122558594,0.6259541999999999,2.946565,-5.6793895,2019-08-05 11:08:41,
442.0,0.006591797,0.007080078,-0.12591553,0.45801526,2.2824428,-2.2366412,2019-08-05 11:08:41,
443.0,0.002319336,-0.0008544922000000001,-0.12371826,-0.55725193,2.427481,-3.3053436,2019-08-05 11:08:41,
444.0,0.0041503906,-0.0043945312,-0.12164307,-0.9160305000000001,2.480916,-2.9312978,2019-08-05 11:08:41,
445.0,-0.007019043000000001,-0.0012817383,-0.119262695,-0.6870229,1.8931297999999999,-2.1145039,2019-08-05 11:08:41,
446.0,0.005859375,-0.0025024414000000004,-0.12286377,0.23664123,2.7251909,-2.9923662999999996,2019-08-05 11:08:42,
447.0,-0.005126953,0.002380371,-0.12573242,0.19083970000000003,1.3664121999999999,-4.854962,2019-08-05 11:08:42,
448.0,0.0045776367,-0.0045776367,-0.12524414,-1.7480916000000002,1.5496184,-3.7328242999999994,2019-08-05 11:08:42,
449.0,0.006652831999999999,-0.0014648438,-0.12054443,0.48091602,1.5877863,-1.5801526000000001,2019-08-05 11:08:42,
450.0,-0.0010986328,-0.0015869141,-0.12615967,-0.41984734,2.427481,-3.091603,2019-08-05 11:08:42,
451.0,0.0024414061999999998,0.004028320300000001,-0.12963867,-0.78625953,2.6259542000000002,-2.557252,2019-08-05 11:08:42,
452.0,0.005554199,-0.0032348633000000003,-0.12188721,0.73282444,3.1450381000000003,-4.068702,2019-08-05 11:08:42,
453.0,-0.0052490233999999995,0.0025634766,-0.12573242,-0.9389313,3.1984732000000005,-4.4961834000000005,2019-08-05 11:08:42,
454.0,0.004272461,0.0038452148,-0.12066650400000001,-0.40458015,2.5038167999999996,-2.2137403,2019-08-05 11:08:42,
455.0,-0.003540039,0.0051879883,-0.11938476599999999,-1.7099236,1.8854961,-2.0076337,2019-08-05 11:08:42,
456.0,0.007751465,0.0079956055,-0.121154785,-1.5648855,2.4122138,-3.206107,2019-08-05 11:08:42,
457.0,0.0026855469,-0.0014038085999999999,-0.12524414,-0.32824427,2.389313,-0.9847328000000002,2019-08-05 11:08:42,
458.0,0.0016479492000000002,-0.0032958984000000004,-0.12237549,-0.519084,2.1068702,-3.0,2019-08-05 11:08:42,
459.0,0.0034179688000000002,0.004760742,-0.12207031,-0.519084,1.5419847,-3.6335877999999995,2019-08-05 11:08:42,
460.0,0.0032348633000000003,0.0025634766,-0.12402344,-0.20610687,2.0076337,-3.59542,2019-08-05 11:08:42,
461.0,0.008666992,0.0045166016,-0.120910645,-0.03816794,2.7404580000000003,-3.8015267999999995,2019-08-05 11:08:42,
462.0,0.0014038085999999999,-0.003540039,-0.12359619,-1.1374046,3.038168,-4.557252,2019-08-05 11:08:42,
463.0,0.0034179688000000002,-0.00030517577999999995,-0.12145996,-0.8854962,0.90839696,-3.167939,2019-08-05 11:08:42,
464.0,0.008239746,0.00030517577999999995,-0.12799072,-0.29007635,2.7557251,-3.70229,2019-08-05 11:08:42,
465.0,0.006225586,0.0007934570299999999,-0.12329101599999999,0.8244275,2.0,-4.4503818,2019-08-05 11:08:42,
466.0,-6.1035155999999994e-05,0.002319336,-0.12213135,0.8091603,1.8015267,-3.1221373,2019-08-05 11:08:42,
467.0,0.005126953,-0.0026245116999999997,-0.12054443,-0.23664123,2.70229,-2.5496182000000003,2019-08-05 11:08:42,
468.0,0.002380371,0.0032348633000000003,-0.12567139,-0.79389316,1.0229008,-3.6030532999999996,2019-08-05 11:08:42,
469.0,-0.0026245116999999997,-0.0053100586,-0.12298584,-0.38167940000000006,2.519084,-3.3129769999999996,2019-08-05 11:08:42,
470.0,0.0028686523,-0.0016479492000000002,-0.12469482400000001,-0.8015267,1.7862595000000001,-3.0305343,2019-08-05 11:08:42,
471.0,0.008300781,-0.002746582,-0.12640381,-0.18320611,2.961832,-2.6717557999999997,2019-08-05 11:08:42,
472.0,0.0012817383,0.0032348633000000003,-0.12243652,0.5648854999999999,2.8244274,-3.1603053,2019-08-05 11:08:42,
473.0,0.0021362305,-0.0006103515599999999,-0.122924805,-0.17557251,0.97709924,-1.7328244,2019-08-05 11:08:42,
474.0,0.005859375,-0.00592041,-0.12231445,0.5496183000000001,1.70229,-3.0229008,2019-08-05 11:08:42,
475.0,0.0048828125,-0.0015258789000000001,-0.12414551,-0.6793893,1.7786259999999998,-2.923664,2019-08-05 11:08:42,
476.0,0.009460449000000001,-0.0010375977,-0.12426758,-0.8702290000000001,2.7480917000000002,-4.5496182,2019-08-05 11:08:42,
477.0,0.0018920898,0.0005493164,-0.12145996,-0.65648854,2.687023,-2.6946564,2019-08-05 11:08:42,
478.0,0.0009765625,0.003967285,-0.12371826,-0.9847328000000002,2.3969467,-2.5267177000000003,2019-08-05 11:08:42,
479.0,-0.002319336,0.00091552734,-0.11956787,-2.1603053,2.053435,-3.9160306000000005,2019-08-05 11:08:42,
480.0,0.004699707,-0.0028686523,-0.12249756,-0.8778626,2.9541984,-3.9389312000000007,2019-08-05 11:08:42,
481.0,0.0005493164,0.0007324219,-0.12335205,-0.96183205,2.3435113,-2.908397,2019-08-05 11:08:42,
482.0,0.005065918,0.005737304699999999,-0.123168945,-1.7251908999999999,1.8778626,-2.1603053,2019-08-05 11:08:42,
483.0,0.003967285,-0.0048828125,-0.12237549,-0.41221374,1.519084,-4.3587785000000006,2019-08-05 11:08:43,
484.0,0.0022583008,0.0008544922000000001,-0.123535156,-0.7480916,2.389313,-4.59542,2019-08-05 11:08:43,
485.0,0.0015258789000000001,-0.0020751953,-0.12738037,0.52671754,1.6183206,-2.076336,2019-08-05 11:08:43,
486.0,-0.0014038085999999999,-0.0006713867,-0.12268066400000001,0.3740458,2.1450381000000003,-2.9694657,2019-08-05 11:08:43,
487.0,0.0012817383,0.0008544922000000001,-0.12371826,-0.7557252,2.3587787000000002,-2.8778627,2019-08-05 11:08:43,
488.0,0.003112793,0.0048217773,-0.11871338,-0.22900763,1.5038168,-4.4274807,2019-08-05 11:08:43,
489.0,0.008422852,-0.0048217773,-0.12463379,-0.9694656999999999,1.4885496,-5.396946400000001,2019-08-05 11:08:43,
490.0,0.005126953,-0.00048828125,-0.12225342,-0.32061067,1.6030535,-3.3358779999999997,2019-08-05 11:08:43,
491.0,0.015625,-0.0045166016,-0.12530518,-1.5114504,3.0229008,-1.9694656000000004,2019-08-05 11:08:43,
492.0,0.002380371,-0.008544922,-0.12286377,0.19083970000000003,0.9236641,-2.8549618999999997,2019-08-05 11:08:43,
493.0,-0.0014038085999999999,0.0016479492000000002,-0.125,-0.19847329,1.2290076,-5.1603055,2019-08-05 11:08:43,
494.0,0.0028686523,-0.008483886999999999,-0.12164307,0.45038167,1.1450381,-2.312977,2019-08-05 11:08:43,
495.0,-0.0038452148,0.004699707,-0.12322998,-0.6259541999999999,1.7404580000000003,-1.0076336,2019-08-05 11:08:43,
496.0,0.001159668,0.0007324219,-0.12194824,-0.091603056,1.221374,-3.0152671000000004,2019-08-05 11:08:43,
497.0,-0.0031738281,-0.0006103515599999999,-0.123168945,-1.7633588,2.1145039,-4.946564700000001,2019-08-05 11:08:43,
498.0,0.006652831999999999,-0.0033569335999999996,-0.12799072,-1.7633588,2.6412212999999998,-3.1526718,2019-08-05 11:08:43,
499.0,0.0044555664,0.0009765625,-0.12121582,-0.71755725,1.1526718,-3.5648854,2019-08-05 11:08:43,
500.0,0.008605957,0.006042480500000001,-0.12347412,-1.0305344,1.221374,-3.1374047000000003,2019-08-05 11:08:43,
501.0,0.0032958984000000004,0.0031738281,-0.12078857400000001,-1.2290076,2.8549618999999997,-3.8931297999999996,2019-08-05 11:08:43,
502.0,0.0005493164,0.00018310547,-0.12280273400000001,-0.17557251,1.4503816,-1.1145038999999999,2019-08-05 11:08:43,
503.0,-0.0018920898,0.0031738281,-0.119628906,1.4045801000000002,1.7099236,-2.3816792999999996,2019-08-05 11:08:43,
504.0,0.0034790040000000004,-0.003112793,-0.12298584,-0.7099236999999999,2.0229008,-2.5954200000000003,2019-08-05 11:08:43,
505.0,0.003112793,0.0045776367,-0.121276855,-0.65648854,2.778626,-3.5114503,2019-08-05 11:08:43,
506.0,0.0007934570299999999,0.0036621094,-0.12408447,0.015267176,2.778626,-4.374046,2019-08-05 11:08:43,
507.0,0.0015869141,0.0006713867,-0.12054443,-0.8702290000000001,1.8473282,-3.2366412,2019-08-05 11:08:43,
508.0,0.0029907227,0.0048217773,-0.123168945,-0.16030534,2.129771,-2.7251909,2019-08-05 11:08:43,
509.0,-0.0041503906,0.0007324219,-0.12237549,-0.519084,2.3664122000000005,-3.1526718,2019-08-05 11:08:43,
510.0,-0.00036621094,0.0,-0.12426758,-0.2977099,2.3435113,-3.3740457999999998,2019-08-05 11:08:43,
511.0,-0.002380371,0.0040893555,-0.12664795,0.5648854999999999,1.8854961,-2.6946564,2019-08-05 11:08:43,
512.0,0.0053100586,0.0015258789000000001,-0.12567139,-0.45038167,1.3053435,-1.6870228999999999,2019-08-05 11:08:43,
513.0,-0.002319336,0.0007324219,-0.12170410000000002,-1.2900764,3.206107,-3.053435,2019-08-05 11:08:43,
514.0,-0.00024414062000000002,0.0007934570299999999,-0.12182617,-0.6946565,1.6564884999999998,-3.206107,2019-08-05 11:08:43,
515.0,0.0014648438,-0.0034790040000000004,-0.12072754,0.8778626,2.389313,-4.7480917,2019-08-05 11:08:43,
516.0,0.008117675999999999,0.004272461,-0.12188721,-0.38167940000000006,2.4503817999999997,-3.167939,2019-08-05 11:08:43,
517.0,-0.0036621094,0.0008544922000000001,-0.12445068,0.57251906,3.2137403,-3.465649,2019-08-05 11:08:43,
518.0,0.0068969727,-0.004211426,-0.1227417,-1.7709924,3.0610687999999997,-3.0076337000000004,2019-08-05 11:08:43,
519.0,0.004333496,0.003540039,-0.12536621,0.53435117,0.78625953,-2.8015267999999995,2019-08-05 11:08:43,
520.0,0.0034790040000000004,-0.0018310547,-0.12414551,0.60305345,1.7480916000000002,-2.9770992,2019-08-05 11:08:44,
521.0,0.0032958984000000004,0.0024414061999999998,-0.12225342,0.41221374,2.7099237,-2.0305343000000002,2019-08-05 11:08:44,
522.0,-0.012573242,-0.00091552734,-0.12548828,0.35877863,3.183206,-3.9694656999999998,2019-08-05 11:08:44,
523.0,0.0012207030999999999,0.006225586,-0.12243652,-0.65648854,2.465649,-2.2366412,2019-08-05 11:08:44,
524.0,-0.0036621094,-6.1035155999999994e-05,-0.12249756,-0.06870229,1.8702290000000001,-4.5801525000000005,2019-08-05 11:08:44,
525.0,-0.0031738281,0.0031738281,-0.12646484,-0.36641222,1.5343511,-3.167939,2019-08-05 11:08:44,
526.0,0.01171875,0.0024414061999999998,-0.11956787,-0.5648854999999999,2.519084,-3.8396947,2019-08-05 11:08:44,
527.0,0.013366699,0.0017089844000000001,-0.12310791,-1.8015267,2.465649,-2.183206,2019-08-05 11:08:44,
528.0,-0.0032348633000000003,0.0036621094,-0.12176514,0.030534351,2.2900763,-3.2290077,2019-08-05 11:08:44,
529.0,0.0045166016,0.0010986328,-0.12152099599999999,1.0763359,1.1603054,-2.4580152,2019-08-05 11:08:44,
530.0,0.0053100586,0.002746582,-0.12335205,-1.9847328999999998,3.6870230000000004,-2.5801528,2019-08-05 11:08:44,
531.0,0.001159668,-0.0034790040000000004,-0.117248535,-0.4274809,2.6641220000000003,-3.9847328999999996,2019-08-05 11:08:44,
532.0,-0.0006103515599999999,0.0007324219,-0.12554932,-1.259542,0.60305345,-2.7633588,2019-08-05 11:08:44,
533.0,6.1035155999999994e-05,0.0045166016,-0.12152099599999999,-0.6793893,2.6793892,-3.8931297999999996,2019-08-05 11:08:44,
534.0,-0.002746582,-0.0041503906,-0.12390137,-0.6488550000000001,2.389313,-3.6030532999999996,2019-08-05 11:08:44,
535.0,0.0078125,-0.0021362305,-0.12512207,-0.34351146,2.3511450000000003,-1.2977100000000001,2019-08-05 11:08:44,
536.0,-0.0010986328,0.0025634766,-0.119262695,-0.31297709999999995,0.54198474,-3.3969467000000004,2019-08-05 11:08:44,
537.0,0.00042724610000000003,-0.0015869141,-0.12249756,-0.89312977,1.8015267,-4.6412214999999994,2019-08-05 11:08:44,
538.0,-0.0005493164,0.0028686523,-0.1227417,0.259542,1.2442749,-3.6335877999999995,2019-08-05 11:08:44,
539.0,-0.0036010741999999997,-0.0025634766,-0.12261963,0.49618322,2.6335877999999995,-4.5419846,2019-08-05 11:08:44,
540.0,-0.00592041,0.0006103515599999999,-0.12042236,-0.40458015,1.7786259999999998,-5.10687,2019-08-05 11:08:44,
541.0,-0.005554199,0.0005493164,-0.11877441400000001,-0.9541985000000001,2.1984732000000005,-2.2519082999999998,2019-08-05 11:08:44,
542.0,0.0012207030999999999,-0.008361816,-0.12591553,-0.9236641,1.038168,-2.6717557999999997,2019-08-05 11:08:44,
543.0,-0.008178711,-0.0009765625,-0.12286377,-0.4274809,1.5954198999999998,-4.2671757,2019-08-05 11:08:44,
544.0,-0.0061035156000000005,-0.0043945312,-0.12554932,-1.1832061000000003,2.9770992,-3.2366412,2019-08-05 11:08:44,
545.0,-0.0026245116999999997,-0.0031738281,-0.12139892599999999,-0.26717559,1.70229,-3.0,2019-08-05 11:08:44,
546.0,-0.0056152343999999995,-0.0020141601999999997,-0.12670898,-1.3206106000000002,2.312977,-3.9541983999999997,2019-08-05 11:08:44,
547.0,0.0052490233999999995,0.0045166016,-0.12335205,-0.38167940000000006,0.8702290000000001,-3.6259542000000002,2019-08-05 11:08:44,
548.0,0.010864258,-0.002319336,-0.12475586,0.2977099,0.99236643,-4.053435299999999,2019-08-05 11:08:44,
549.0,-0.0010986328,0.0033569335999999996,-0.12426758,-0.78625953,1.5496184,-2.7251909,2019-08-05 11:08:44,
550.0,-0.006958008000000001,-0.0012817383,-0.12731934,0.48091602,2.2595419999999997,-3.6412212999999998,2019-08-05 11:08:44,
551.0,0.0030517578000000003,-0.0036010741999999997,-0.12548828,-0.610687,1.3282443000000002,-2.832061,2019-08-05 11:08:44,
552.0,0.0012817383,0.0063476562,-0.122924805,-1.0839695,1.6717557,-3.465649,2019-08-05 11:08:44,
553.0,0.00793457,0.0012207030999999999,-0.12762451,-1.4656489,1.5038168,-4.7251905999999995,2019-08-05 11:08:44,
554.0,0.0026855469,0.005065918,-0.12457275400000001,-1.3358778999999998,2.3511450000000003,-5.1374044,2019-08-05 11:08:44,
555.0,-0.0043945312,-0.0028686523,-0.1239624,0.8244275,1.2366412,-3.29771,2019-08-05 11:08:44,
556.0,-0.0024414061999999998,-0.006286621,-0.12402344,0.9389313,2.3282442000000003,-3.5038167999999996,2019-08-05 11:08:45,
557.0,0.002380371,0.0017700195,-0.12365723,-0.71755725,2.2366412,-3.6793892,2019-08-05 11:08:45,
558.0,-0.0028076171999999997,0.005126953,-0.12384033,-1.7480916000000002,1.9007633999999998,-3.3206108,2019-08-05 11:08:45,
559.0,-0.0025024414000000004,0.007019043000000001,-0.12243652,-0.90076333,1.4656489,-2.5954200000000003,2019-08-05 11:08:45,
560.0,0.0028686523,-0.0032348633000000003,-0.12463379,-1.4198473999999999,2.6641220000000003,-4.931298,2019-08-05 11:08:45,
561.0,0.009643555,-0.0029296875,-0.122558594,-0.31297709999999995,1.8015267,-2.1221373,2019-08-05 11:08:45,
562.0,-0.009521484,0.0053100586,-0.12646484,-0.9389313,1.3587786,-3.3893129999999996,2019-08-05 11:08:45,
563.0,0.0009765625,0.0032958984000000004,-0.12213135,0.16793893,2.3053436,-3.183206,2019-08-05 11:08:45,
564.0,0.006713866999999999,-0.00042724610000000003,-0.12329101599999999,-1.70229,2.3740457999999998,-3.7633588,2019-08-05 11:08:45,
565.0,0.009277344,0.0028686523,-0.12231445,-0.6793893,1.4732825,-4.40458,2019-08-05 11:08:45,
566.0,-0.0016479492000000002,-0.0007934570299999999,-0.12219238,-0.48091602,1.3282443000000002,-4.7175574000000005,2019-08-05 11:08:45,
567.0,0.0015258789000000001,0.006042480500000001,-0.12365723,0.16030534,1.3740458,-2.8396947,2019-08-05 11:08:45,
568.0,0.0028686523,-0.008605957,-0.119140625,-1.4274809,2.9160306,-3.1984732000000005,2019-08-05 11:08:45,
569.0,0.0053100586,0.0031738281,-0.12457275400000001,-1.2061069,2.038168,-1.9465648999999998,2019-08-05 11:08:45,
570.0,0.0095825195,0.0034179688000000002,-0.11950683599999999,-0.32061067,2.687023,-3.351145,2019-08-05 11:08:45,
571.0,0.004211426,-0.0021362305,-0.12225342,-0.8015267,2.221374,-3.3053436,2019-08-05 11:08:45,
572.0,-0.0036621094,0.00012207031000000001,-0.12365723,0.16030534,2.053435,-1.9389313000000001,2019-08-05 11:08:45,
573.0,-0.0005493164,-0.006164551,-0.11877441400000001,-0.9465648999999999,0.9236641,-3.3893129999999996,2019-08-05 11:08:45,
574.0,0.00012207031000000001,0.0005493164,-0.12133789,-0.57251906,1.7328244,-3.0305343,2019-08-05 11:08:45,
575.0,-0.0079956055,0.004699707,-0.121154785,-0.45038167,2.1221373,-4.10687,2019-08-05 11:08:45,
576.0,-0.006164551,-0.0036621094,-0.12164307,-1.1679389999999998,1.8854961,-2.534351,2019-08-05 11:08:45,
577.0,-0.0029296875,0.00024414062000000002,-0.12030029,-2.4580152,2.5877862,-3.7557251000000003,2019-08-05 11:08:45,
578.0,-0.0018920898,-0.0033569335999999996,-0.12786865,-0.7099236999999999,1.1984733,-2.5114503,2019-08-05 11:08:45,
579.0,-0.0040893555,0.0006713867,-0.12384033,-0.7633588000000001,2.9541984,-2.0458016,2019-08-05 11:08:45,
580.0,0.0025634766,-0.0079956055,-0.12786865,-0.22900763,2.2442749,-3.534351,2019-08-05 11:08:45,
581.0,0.0015258789000000001,-6.1035155999999994e-05,-0.123535156,-0.5801527,2.1755726,-3.3969467000000004,2019-08-05 11:08:45,
582.0,-0.00012207031000000001,-0.0034179688000000002,-0.12109375,-0.8549618,2.8854961,-5.8702292,2019-08-05 11:08:45,
583.0,-0.005004883,-0.0067749023,-0.11981201,-2.206107,1.1374046,-4.1374044,2019-08-05 11:08:45,
584.0,0.0049438477,-0.0038452148,-0.11804199,-0.6946565,2.2900763,-4.633588,2019-08-05 11:08:45,
585.0,-0.0032348633000000003,-0.0018920898,-0.12341308599999999,-0.67175573,1.7251908999999999,-1.3129771000000001,2019-08-05 11:08:45,
586.0,0.002746582,0.0010375977,-0.124938965,-0.9465648999999999,1.3282443000000002,-5.0458016,2019-08-05 11:08:45,
587.0,-0.0007934570299999999,-0.00592041,-0.12487793,-0.122137405,0.78625953,-4.6793895,2019-08-05 11:08:45,
588.0,-0.0015258789000000001,-0.0008544922000000001,-0.12554932,0.54198474,3.3893129999999996,-3.7633588,2019-08-05 11:08:45,
589.0,0.0073242188,-0.0015258789000000001,-0.12573242,-0.32061067,2.7709923,-1.7938931,2019-08-05 11:08:45,
590.0,-0.0010375977,-0.0032958984000000004,-0.12335205,-0.8778626,2.7328243,-2.8931298,2019-08-05 11:08:45,
591.0,-6.1035155999999994e-05,0.0078125,-0.12133789,-0.3053435,0.8854962,-3.9541983999999997,2019-08-05 11:08:46,
592.0,-0.006225586,0.00036621094,-0.12310791,-0.31297709999999995,4.625954,-5.374046,2019-08-05 11:08:46,
593.0,-0.0029907227,-0.0013427734,-0.12725830000000002,-0.022900764,0.8549618,-3.8091602,2019-08-05 11:08:46,
594.0,-0.0024414061999999998,-0.0053710938,-0.12030029,-1.1984733,2.3206108,-3.3053436,2019-08-05 11:08:46,
595.0,-0.003112793,-0.0010986328,-0.12261963,-0.17557251,2.221374,-3.7557251000000003,2019-08-05 11:08:46,
596.0,0.0015869141,0.0021362305,-0.12268066400000001,-1.3816794,1.8931297999999999,-4.0229006,2019-08-05 11:08:46,
597.0,-0.0007324219,0.00030517577999999995,-0.123535156,0.610687,1.4427481000000002,-2.2748091,2019-08-05 11:08:46,
598.0,0.00091552734,0.0014038085999999999,-0.12524414,-2.3587787000000002,3.167939,-1.9160305,2019-08-05 11:08:46,
599.0,0.0061035156000000005,0.0010986328,-0.12524414,-1.2748091000000001,1.9694656000000004,-3.5114503,2019-08-05 11:08:46,
600.0,0.0029296875,-0.007385254,-0.12036133,2.1603053,1.3969465,-3.3587787000000002,2019-08-05 11:08:46,
601.0,-0.00042724610000000003,0.003967285,-0.12799072,0.78625953,1.3969465,-1.7557251,2019-08-05 11:08:46,
602.0,0.0034179688000000002,0.0026245116999999997,-0.11853027,-1.091603,2.610687,-4.259542,2019-08-05 11:08:46,
603.0,-0.0051879883,0.002746582,-0.12713623,-0.091603056,0.18320611,-5.1755724,2019-08-05 11:08:46,
604.0,-0.004760742,0.008605957,-0.124816895,3.2824428,3.7175572,-24.267176,2019-08-05 11:08:46,
605.0,0.0087890625,-0.020141601999999998,-0.121032715,3.2519082999999998,-6.900763499999999,-12.763359,2019-08-05 11:08:46,
606.0,-0.0031738281,0.0048828125,-0.123168945,-2.2366412,11.183207000000001,-3.3358779999999997,2019-08-05 11:08:46,
607.0,-0.0005493164,0.00048828125,-0.12280273400000001,1.8625953999999998,-1.8702290000000001,-3.908397,2019-08-05 11:08:46,
608.0,0.0032348633000000003,0.0007324219,-0.12738037,0.31297709999999995,3.4427480000000004,-1.9923664,2019-08-05 11:08:46,
609.0,0.006042480500000001,-0.0015258789000000001,-0.12463379,0.35877863,1.9541985,-0.053435113,2019-08-05 11:08:46,
610.0,-0.0032958984000000004,-0.0049438477,-0.12457275400000001,-3.0458016,1.7251908999999999,-3.8396947,2019-08-05 11:08:46,
611.0,0.0006103515599999999,-0.004028320300000001,-0.12249756,1.6870228999999999,2.2442749,-4.4274807,2019-08-05 11:08:46,
612.0,0.00048828125,0.0013427734,-0.12341308599999999,-0.259542,1.5419847,-4.1679387000000006,2019-08-05 11:08:46,
613.0,0.0015869141,0.0006713867,-0.12548828,-0.8396947,2.29771,-1.1374046,2019-08-05 11:08:46,
614.0,0.006958008000000001,0.005981445300000001,-0.12207031,-1.3053435,2.4580152,-2.70229,2019-08-05 11:08:46,
615.0,-0.0036010741999999997,-0.00018310547,-0.12512207,-1.1984733,1.2977100000000001,-3.6564887,2019-08-05 11:08:46,
616.0,0.007507324,-0.001159668,-0.12609863,0.4427481,2.8396947,-3.3740457999999998,2019-08-05 11:08:46,
617.0,-6.1035155999999994e-05,-0.0005493164,-0.123535156,-1.1603054,2.7251909,-1.6641221000000002,2019-08-05 11:08:46,
618.0,0.003967285,-0.002746582,-0.12438965,-1.1145038999999999,1.3358778999999998,-3.129771,2019-08-05 11:08:46,
619.0,0.00030517577999999995,0.0037231445,-0.12377930000000001,-0.099236645,1.3282443000000002,-3.7099237,2019-08-05 11:08:46,
620.0,-0.0016479492000000002,-0.0065307617,-0.12731934,-0.47328246,2.3816792999999996,-3.4809160000000006,2019-08-05 11:08:46,
621.0,0.0034790040000000004,-0.005676269499999999,-0.12286377,0.061068702,2.0687022,-4.2824425999999995,2019-08-05 11:08:46,
622.0,0.006652831999999999,-0.0012817383,-0.12414551,-1.2137405,2.4961832000000004,-2.6335877999999995,2019-08-05 11:08:46,
623.0,0.0048217773,-0.0005493164,-0.12786865,1.2519083999999998,1.0839695,-4.221374,2019-08-05 11:08:46,
624.0,-0.0020141601999999997,-6.1035155999999994e-05,-0.12402344,-0.22900763,1.9389313000000001,-1.9923664,2019-08-05 11:08:46,
625.0,-0.0020141601999999997,-0.0037841796999999997,-0.12048339999999998,-0.9312976999999999,2.4885497,-4.1679387000000006,2019-08-05 11:08:46,
626.0,-0.00036621094,-6.1035155999999994e-05,-0.1239624,-0.18320611,2.5801528,-2.3435113,2019-08-05 11:08:46,
627.0,0.0034790040000000004,-0.006164551,-0.12463379,-0.46564886,1.5801526000000001,-2.1526718,2019-08-05 11:08:47,
628.0,0.0026245116999999997,-0.0022583008,-0.12487793,-0.77862597,2.778626,-3.961832,2019-08-05 11:08:47,
629.0,0.0030517578000000003,-0.0015869141,-0.12475586,-0.60305345,1.8473282,-4.374046,2019-08-05 11:08:47,
630.0,0.003967285,-0.006958008000000001,-0.12414551,-0.114503816,1.0458015,-2.9389312000000003,2019-08-05 11:08:47,
631.0,-0.0020141601999999997,-0.005859375,-0.12445068,0.07633588,2.2366412,-3.59542,2019-08-05 11:08:47,
632.0,0.004333496,-0.00024414062000000002,-0.12054443,-0.58778626,1.0839695,-5.053435299999999,2019-08-05 11:08:47,
633.0,0.0,-0.0044555664,-0.123046875,-0.48091602,1.8015267,-4.3893127,2019-08-05 11:08:47,
634.0,0.0075683593999999995,-0.001159668,-0.11785889,-0.18320611,2.038168,-3.2137403,2019-08-05 11:08:47,
635.0,-0.004211426,0.0006713867,-0.12542725,-1.2366412,2.0229008,-3.3358779999999997,2019-08-05 11:08:47,
636.0,0.00042724610000000003,0.0029296875,-0.12774658,0.7099236999999999,2.1145039,-2.4351146,2019-08-05 11:08:47,
637.0,0.0064086914,0.0012817383,-0.12609863,-0.20610687,2.8396947,-3.2900763,2019-08-05 11:08:47,
638.0,-0.00018310547,0.0018310547,-0.12310791,0.48091602,2.2595419999999997,-4.6106873,2019-08-05 11:08:47,
639.0,0.005676269499999999,0.001953125,-0.12182617,-0.35114503,2.4122138,-3.3358779999999997,2019-08-05 11:08:47,
640.0,-0.0010986328,0.0010375977,-0.12036133,-0.07633588,1.4656489,-3.4198472,2019-08-05 11:08:47,
641.0,-0.005554199,0.0014038085999999999,-0.12359619,-1.0305344,2.2824428,-3.3206108,2019-08-05 11:08:47,
642.0,0.004638672,0.0020141601999999997,-0.12298584,-0.6870229,1.9083970000000001,-4.885496,2019-08-05 11:08:47,
643.0,0.0025024414000000004,-0.00012207031000000001,-0.12286377,-0.90839696,1.610687,-3.0076337000000004,2019-08-05 11:08:47,
644.0,-0.0026855469,-0.0065307617,-0.12133789,0.6793893,0.8015267,-4.1374044,2019-08-05 11:08:47,
645.0,0.0032348633000000003,-0.0015258789000000001,-0.12249756,1.519084,1.0534351,-5.335878,2019-08-05 11:08:47,
646.0,0.00018310547,-0.0010375977,-0.12402344,1.3664121999999999,1.6717557,-4.2061067,2019-08-05 11:08:47,
647.0,0.007629394499999999,-0.0015869141,-0.12408447,0.03816794,0.47328246,-2.2595419999999997,2019-08-05 11:08:47,
648.0,-0.0021972656,0.0051879883,-0.12390137,1.0687023,1.5419847,-5.335878,2019-08-05 11:08:47,
649.0,-0.0017089844000000001,-0.008361816,-0.12365723,-0.8854962,1.8778626,-3.0305343,2019-08-05 11:08:47,
650.0,-0.0033569335999999996,-0.0009765625,-0.12664795,-0.38167940000000006,2.4732822999999997,-4.183206,2019-08-05 11:08:47,
651.0,0.004699707,-0.0021972656,-0.12139892599999999,-0.31297709999999995,2.0610688,-4.221374,2019-08-05 11:08:47,
652.0,-0.0005493164,0.0032348633000000003,-0.1260376,-1.3969465,3.3206108,-3.1145039,2019-08-05 11:08:47,
653.0,-0.003540039,0.0030517578000000003,-0.12420654,-0.03816794,2.053435,-2.9312978,2019-08-05 11:08:47,
654.0,0.0017700195,-0.00579834,-0.12414551,0.19847329,2.7709923,-3.4580152,2019-08-05 11:08:47,
655.0,-0.010314941,-0.008239746,-0.123168945,-1.0076336,0.53435117,-3.2824428,2019-08-05 11:08:47,
656.0,0.004699707,0.0020141601999999997,-0.12414551,-0.7251908,2.2290077,-2.4732822999999997,2019-08-05 11:08:47,
657.0,-0.005432129,0.002746582,-0.12609863,-0.99236643,1.8702290000000001,-3.6030532999999996,2019-08-05 11:08:47,
658.0,0.005126953,-0.0006713867,-0.124816895,-0.8549618,2.2824428,-2.946565,2019-08-05 11:08:47,
659.0,-6.1035155999999994e-05,-0.0008544922000000001,-0.123168945,0.259542,1.5877863,-2.572519,2019-08-05 11:08:47,
660.0,0.0012817383,-0.0028076171999999997,-0.12597656,-1.4961832,1.5725191,-2.038168,2019-08-05 11:08:47,
661.0,0.0021972656,-0.0053710938,-0.12628174,-0.5648854999999999,2.6183207000000004,-2.2290077,2019-08-05 11:08:47,
662.0,-0.003540039,-0.0008544922000000001,-0.11883545,0.13740458,2.0458016,-2.9007633,2019-08-05 11:08:47,
663.0,0.0017089844000000001,-0.00042724610000000003,-0.12652588,-1.4961832,2.7862597,-3.8091602,2019-08-05 11:08:48,
664.0,0.007690429699999999,0.0036621094,-0.12390137,0.13740458,3.648855,-3.793893,2019-08-05 11:08:48,
665.0,0.0044555664,0.0015869141,-0.12249756,0.35877863,2.7328243,-4.2671757,2019-08-05 11:08:48,
666.0,-0.00042724610000000003,0.0024414061999999998,-0.1227417,0.7251908,2.8549618999999997,-2.816794,2019-08-05 11:08:48,
667.0,-0.010681152,-0.0012817383,-0.12237549,-1.0458015,2.1221373,-3.0076337000000004,2019-08-05 11:08:48,
668.0,-0.00030517577999999995,0.0048828125,-0.12426758,0.22900763,2.6641220000000003,-2.8931298,2019-08-05 11:08:48,
669.0,0.007507324,-0.005004883,-0.12030029,0.6259541999999999,1.4122137,-2.5419848,2019-08-05 11:08:48,
670.0,0.0012207030999999999,-0.006164551,-0.12359619,0.58778626,2.6030533,-2.3969467,2019-08-05 11:08:48,
671.0,0.005004883,0.0007934570299999999,-0.12854004,0.65648854,2.6335877999999995,-2.6641220000000003,2019-08-05 11:08:48,
672.0,-0.004211426,0.003967285,-0.11920166,0.32061067,1.610687,-4.0610685,2019-08-05 11:08:48,
673.0,6.1035155999999994e-05,0.00048828125,-0.12200928,1.0610687,0.86259544,-2.7099237,2019-08-05 11:08:48,
674.0,0.003112793,0.0049438477,-0.12158203,-0.70229006,1.2137405,-4.2442746,2019-08-05 11:08:48,
675.0,-0.0017089844000000001,-0.00091552734,-0.12780762,-0.32824427,3.167939,-3.5190839999999994,2019-08-05 11:08:48,
676.0,-0.00030517577999999995,-0.0034179688000000002,-0.12518310000000002,-1.5877863,1.0763359,-4.091603299999999,2019-08-05 11:08:48,
677.0,0.00390625,0.00091552734,-0.12457275400000001,-0.77099234,2.8473282,-3.053435,2019-08-05 11:08:48,
678.0,-0.0020751953,0.00592041,-0.12322998,-0.5954198,0.6793893,-3.832061,2019-08-05 11:08:48,
679.0,0.010986328,-0.0053710938,-0.12359619,0.54198474,1.6412214,-4.480916000000001,2019-08-05 11:08:48,
680.0,6.1035155999999994e-05,0.003540039,-0.12207031,0.13740458,2.3511450000000003,-3.3358779999999997,2019-08-05 11:08:48,
681.0,0.008728027,-0.004699707,-0.125,-0.129771,1.8778626,-4.2137402999999996,2019-08-05 11:08:48,
682.0,0.0029907227,-0.008178711,-0.12268066400000001,-0.8396947,2.9770992,-2.2900763,2019-08-05 11:08:48,
683.0,-0.006652831999999999,0.0038452148,-0.12585449,-0.38167940000000006,1.4045801000000002,-1.6030535,2019-08-05 11:08:48,
684.0,-0.0037231445,-0.006591797,-0.11987305,-0.17557251,0.9465648999999999,-3.5190839999999994,2019-08-05 11:08:48,
685.0,-0.00042724610000000003,0.0044555664,-0.12463379,-0.7480916,2.3969467,-3.5114503,2019-08-05 11:08:48,
686.0,-0.0045166016,0.0025024414000000004,-0.12139892599999999,-1.1908396,2.0305343000000002,-3.6870230000000004,2019-08-05 11:08:48,
687.0,0.0026855469,-0.0006103515599999999,-0.12219238,-0.77862597,3.221374,-3.6106870000000004,2019-08-05 11:08:48,
688.0,-0.0053710938,-0.0049438477,-0.12414551,-0.5038168,3.167939,-4.3587785000000006,2019-08-05 11:08:48,
689.0,0.007873535,-0.005065918,-0.123168945,0.022900764,1.9083970000000001,-3.129771,2019-08-05 11:08:48,
690.0,-0.0006103515599999999,0.008239746,-0.12347412,-0.45038167,2.2290077,-2.8778627,2019-08-05 11:08:48,
691.0,-0.0018310547,-0.0007324219,-0.12585449,-1.0458015,0.83206105,-2.961832,2019-08-05 11:08:48,
692.0,0.00042724610000000003,-0.004211426,-0.12176514,-0.9694656999999999,1.9389313000000001,-2.3206108,2019-08-05 11:08:48,
693.0,0.0012207030999999999,0.00579834,-0.12310791,-1.4580153,2.3969467,-3.9312977999999994,2019-08-05 11:08:48,
694.0,0.010803223,-0.0036621094,-0.12414551,0.83206105,2.946565,-3.5725190000000002,2019-08-05 11:08:48,
695.0,-0.001953125,0.002319336,-0.12963867,2.1908397999999996,0.77862597,-3.3816792999999996,2019-08-05 11:08:48,
696.0,0.0026245116999999997,0.0029907227,-0.123046875,-1.1374046,1.9389313000000001,-1.8244275,2019-08-05 11:08:48,
697.0,-0.0010375977,-0.0013427734,-0.12182617,0.740458,2.3511450000000003,-4.6488547,2019-08-05 11:08:48,
698.0,-0.003540039,0.0016479492000000002,-0.12359619,-0.20610687,1.8854961,-4.1603055,2019-08-05 11:08:48,
699.0,0.011169433999999999,-0.0017089844000000001,-0.12542725,-1.7709924,2.816794,-3.0229008,2019-08-05 11:08:49,
700.0,0.008361816,-0.004760742,-0.1274414,-1.9389313000000001,1.9541985,-3.648855,2019-08-05 11:08:49,
701.0,-0.002746582,0.0029296875,-0.124816895,0.022900764,1.5343511,-5.2290077,2019-08-05 11:08:49,
702.0,-0.0022583008,0.0017089844000000001,-0.12310791,-1.8244275,2.4351146,-2.038168,2019-08-05 11:08:49,
703.0,-0.002319336,0.0005493164,-0.122558594,-0.29007635,0.52671754,-2.2137403,2019-08-05 11:08:49,
704.0,0.0,0.0032958984000000004,-0.11828613,-0.14503817,2.8473282,-3.648855,2019-08-05 11:08:49,
705.0,0.002746582,6.1035155999999994e-05,-0.12060547,-1.8167938999999997,1.3740458,-4.5343513,2019-08-05 11:08:49,
706.0,0.0026245116999999997,6.1035155999999994e-05,-0.12054443,-0.24427481,2.0839694,-4.259542,2019-08-05 11:08:49,
707.0,-0.0006713867,-0.005126953,-0.12432861,0.26717559,2.9923662999999996,-5.809159999999999,2019-08-05 11:08:49,
708.0,0.0018310547,0.00579834,-0.12469482400000001,-0.9160305000000001,1.1221374,-4.5114503,2019-08-05 11:08:49,
709.0,0.007019043000000001,0.002380371,-0.12518310000000002,-0.97709924,2.6946564,-4.2137402999999996,2019-08-05 11:08:49,
710.0,-0.010375977,0.005004883,-0.12261963,-0.58778626,0.7633588000000001,-4.183206,2019-08-05 11:08:49,
711.0,0.0045776367,0.003112793,-0.12109375,-1.0610687,1.7709924,-3.3740457999999998,2019-08-05 11:08:49,
712.0,-0.006958008000000001,0.0015258789000000001,-0.12286377,0.045801528,2.129771,-1.4732825,2019-08-05 11:08:49,
713.0,0.005126953,-0.0010375977,-0.12536621,-0.83206105,2.5954200000000003,-1.70229,2019-08-05 11:08:49,
714.0,0.0010375977,-0.0006103515599999999,-0.12664795,-0.77862597,2.8854961,-2.8931298,2019-08-05 11:08:49,
715.0,-0.0028686523,-0.0020751953,-0.12225342,-0.54198474,0.97709924,-2.6488549999999997,2019-08-05 11:08:49,
716.0,0.00018310547,0.004211426,-0.12451172,-0.16793893,1.70229,-3.4503817999999997,2019-08-05 11:08:49,
717.0,0.005065918,0.004699707,-0.1239624,-0.40458015,2.6946564,-3.4427480000000004,2019-08-05 11:08:49,
718.0,0.0033569335999999996,0.00390625,-0.12609863,0.9312976999999999,1.8244275,-1.3435115,2019-08-05 11:08:49,
719.0,0.0020141601999999997,0.0006713867,-0.12084961,-0.8702290000000001,2.465649,-4.4885497,2019-08-05 11:08:49,
720.0,0.010375977,-0.0028686523,-0.12152099599999999,-0.4427481,0.9694656999999999,-2.389313,2019-08-05 11:08:49,
721.0,0.00018310547,0.0,-0.12182617,-0.7251908,1.7786259999999998,-2.2671757,2019-08-05 11:08:49,
722.0,0.0053100586,6.1035155999999994e-05,-0.12451172,0.84732825,2.7709923,-2.4122138,2019-08-05 11:08:49,
723.0,0.006164551,-0.0021362305,-0.13018799,0.36641222,1.5114504,-0.6183206,2019-08-05 11:08:49,
724.0,0.001953125,0.0015869141,-0.1227417,-0.7251908,3.2290077,-3.6106870000000004,2019-08-05 11:08:49,
725.0,6.1035155999999994e-05,-0.0012207030999999999,-0.12408447,-0.78625953,2.0458016,-4.259542,2019-08-05 11:08:49,
726.0,0.008911133,-0.0041503906,-0.12384033,0.5038168,1.9694656000000004,-2.6412212999999998,2019-08-05 11:08:49,
727.0,-0.005737304699999999,0.0020141601999999997,-0.12359619,-0.7251908,2.6564887,-2.6564887,2019-08-05 11:08:49,
728.0,0.0024414061999999998,0.00024414062000000002,-0.12469482400000001,-0.007633588,2.038168,-3.793893,2019-08-05 11:08:49,
729.0,0.008544922,0.0053100586,-0.122558594,-0.73282444,1.3664121999999999,-3.2748091,2019-08-05 11:08:49,
730.0,-0.0017700195,-0.005493164,-0.12487793,-0.8091603,2.5954200000000003,-3.8015267999999995,2019-08-05 11:08:49,
731.0,-0.013000488000000001,-0.0018310547,-0.12567139,1.038168,2.3664122000000005,-2.4351146,2019-08-05 11:08:49,
732.0,-0.00042724610000000003,-0.006591797,-0.12457275400000001,-0.015267176,0.97709924,-2.5648854,2019-08-05 11:08:50,
733.0,-0.0015258789000000001,-0.0017700195,-0.12542725,-0.43511450000000007,2.3358779999999997,-2.0839694,2019-08-05 11:08:50,
734.0,-0.009155273,-0.0045166016,-0.12524414,-0.39694658,3.5496182000000003,-2.4122138,2019-08-05 11:08:50,
735.0,0.006713866999999999,0.0015258789000000001,-0.12506104,-1.0458015,1.7404580000000003,-2.091603,2019-08-05 11:08:50,
736.0,0.0025634766,0.0012817383,-0.12524414,-0.6183206,2.7251909,-4.0992365,2019-08-05 11:08:50,
737.0,6.1035155999999994e-05,-0.0031738281,-0.12329101599999999,-0.47328246,2.2366412,-4.3511453,2019-08-05 11:08:50,
738.0,0.006286621,-0.00018310547,-0.12359619,-0.8167939000000001,2.8778627,-4.183206,2019-08-05 11:08:50,
739.0,-0.0007934570299999999,-0.0056152343999999995,-0.123046875,0.28244275,1.0152671,-4.8320612999999994,2019-08-05 11:08:50,
740.0,-0.006958008000000001,-0.005004883,-0.12286377,-0.7557252,2.7175572,-3.7480917000000002,2019-08-05 11:08:50,
741.0,-0.008300781,0.006652831999999999,-0.12133789,0.08396947,2.6946564,-4.068702,2019-08-05 11:08:50,
742.0,-0.005554199,-0.008605957,-0.12615967,0.091603056,2.7709923,-4.152672,2019-08-05 11:08:50,
743.0,-0.0034179688000000002,-0.0028686523,-0.11932373,0.15267175,2.0687022,-3.4732822999999997,2019-08-05 11:08:50,
744.0,0.0030517578000000003,-0.0033569335999999996,-0.11834717,0.31297709999999995,1.3969465,-3.9694656999999998,2019-08-05 11:08:50,
745.0,-0.0010986328,0.0068359375,-0.12219238,-1.7099236,3.0610687999999997,-3.7633588,2019-08-05 11:08:50,
746.0,0.0015258789000000001,-0.00012207031000000001,-0.11828613,0.96183205,2.6793892,-4.603053599999999,2019-08-05 11:08:50,
747.0,0.001953125,0.0007934570299999999,-0.12683105,-1.8778626,3.3664122000000005,-3.0305343,2019-08-05 11:08:50,
748.0,-0.0006103515599999999,0.010192871,-0.12243652,0.0,1.221374,-3.7633588,2019-08-05 11:08:50,
749.0,0.0010986328,0.0028076171999999997,-0.12451172,-0.36641222,2.2519082999999998,-2.6183207000000004,2019-08-05 11:08:50,
750.0,0.00390625,0.00048828125,-0.12390137,-1.3816794,2.1221373,-4.068702,2019-08-05 11:08:50,
751.0,-0.00036621094,-0.00024414062000000002,-0.12194824,0.36641222,2.4885497,-2.687023,2019-08-05 11:08:50,
752.0,0.0012207030999999999,-0.002746582,-0.12518310000000002,-0.061068702,1.389313,-3.3664122000000005,2019-08-05 11:08:50,
753.0,0.0008544922000000001,0.005432129,-0.12054443,-1.3358778999999998,1.2900764,-2.961832,2019-08-05 11:08:50,
754.0,0.0020141601999999997,-0.0014648438,-0.12475586,-2.2671757,1.1145038999999999,-3.9312977999999994,2019-08-05 11:08:50,
755.0,-0.006164551,-0.0036010741999999997,-0.11755371,0.6946565,2.1221373,-3.183206,2019-08-05 11:08:50,
756.0,0.009277344,-0.0037841796999999997,-0.12725830000000002,0.015267176,1.7633588,-3.0839694,2019-08-05 11:08:50,
757.0,-0.0007934570299999999,0.0053710938,-0.12402344,-0.9694656999999999,1.4274809,-1.4961832,2019-08-05 11:08:50,
758.0,0.004333496,-0.00036621094,-0.12225342,-1.2061069,1.5267175,-1.6564884999999998,2019-08-05 11:08:50,
759.0,-0.004211426,0.005554199,-0.12060547,-0.49618322,0.83206105,-2.6717557999999997,2019-08-05 11:08:50,
760.0,0.001159668,0.008666992,-0.12475586,-0.39694658,1.0,-5.6106873,2019-08-05 11:08:50,
761.0,-0.00048828125,0.00024414062000000002,-0.12463379,-2.8778627,1.1603054,-2.2519082999999998,2019-08-05 11:08:50,
762.0,0.005126953,-0.001159668,-0.12371826,-0.22137405,2.442748,-2.9007633,2019-08-05 11:08:50,
763.0,-0.06945801,0.013061523,-0.018432617,-59.137405,85.091606,-27.068703000000003,2019-08-05 11:08:50,
764.0,0.049865723,-0.0052490233999999995,-0.01550293,148.38168000000002,-67.15267,43.44275,2019-08-05 11:08:50,
765.0,0.026855469,-0.012573242,-0.10278319999999999,37.694656,-62.85496,-2.3435113,2019-08-05 11:08:50,
766.0,0.004211426,0.021057128999999997,-0.09136963,12.007633,-16.320610000000002,-15.274809,2019-08-05 11:08:50,
767.0,0.020263672,-0.005004883,-0.12536621,14.824428,-138.15266,-1.9160305,2019-08-05 11:08:50,
768.0,-0.015075683999999999,0.0028686523,-0.14605713,9.305344,-65.31298000000001,-2.8244274,2019-08-05 11:08:50,
769.0,-0.013549805,0.018127441,-0.085998535,34.25954,-250.1374,44.519085,2019-08-05 11:08:51,
770.0,-0.012390136999999999,-0.0049438477,-0.14239502,-10.045800999999999,105.07633,-3.4885497,2019-08-05 11:08:51,
771.0,-0.0099487305,-0.0032958984000000004,-0.12451172,-0.5801527,12.374044999999999,-3.5725190000000002,2019-08-05 11:08:51,
772.0,-0.036132812,-0.030944824,-0.1116333,-14.9007635,92.618324,33.633587,2019-08-05 11:08:51,
773.0,-0.008117675999999999,-0.012817383,-0.12750244,-16.328245000000003,98.59541999999999,88.26717,2019-08-05 11:08:51,
774.0,0.032226562,0.042114257999999995,-0.13897705,-2.3969467,49.48855,40.091602,2019-08-05 11:08:51,
775.0,0.0211792,0.012817383,-0.13342285,-7.5725193,44.053436,48.51145,2019-08-05 11:08:51,
776.0,0.013916016000000002,0.010864258,-0.12298584,-31.900763,46.381679999999996,69.27481,2019-08-05 11:08:51,
777.0,-0.004211426,-0.012145996000000001,-0.109191895,-21.687023,47.755726,93.73283,2019-08-05 11:08:51,
778.0,0.014038086000000002,-0.011230469,-0.11193848,-3.6412212999999998,-27.305344,65.91603,2019-08-05 11:08:51,
779.0,0.031921387,-0.003967285,-0.13397217,-4.221374,-30.70229,66.20611,2019-08-05 11:08:51,
780.0,0.036132812,0.018005371000000003,-0.14605713,-3.2595419999999997,32.610687,176.62596000000002,2019-08-05 11:08:51,
781.0,0.008850098,-0.02319336,-0.10797119,15.053435,72.12214,219.42747000000003,2019-08-05 11:08:51,
782.0,0.0041503906,-0.012573242,-0.10797119,15.854961,11.595419999999999,95.0458,2019-08-05 11:08:51,
783.0,0.010864258,0.0053710938,-0.13134766,-3.3587787000000002,12.282442999999999,90.221375,2019-08-05 11:08:51,
784.0,0.029174805,-0.0014038085999999999,-0.13128662,-16.816793,44.358779999999996,218.54199,2019-08-05 11:08:51,
785.0,0.005004883,-0.028503418,-0.11816406,-10.687023,74.69466,250.12977999999998,2019-08-05 11:08:51,
786.0,0.03112793,-0.03387451,-0.1270752,107.43511000000001,27.603053999999997,208.36641,2019-08-05 11:08:51,
787.0,0.012817383,0.008239746,-0.105407715,-66.25954399999999,22.435114000000002,250.12977999999998,2019-08-05 11:08:51,
788.0,0.019348145,-0.035217285,-0.17645264,-94.03053,-8.419847500000001,250.12977999999998,2019-08-05 11:08:51,
789.0,0.026672362999999998,-0.05895996,-0.20080566,0.8854962,-112.221375,250.12977999999998,2019-08-05 11:08:51,
790.0,0.023376465,-0.033325195,-0.17205810000000002,2.4122138,-189.29771000000002,250.12977999999998,2019-08-05 11:08:51,
791.0,0.006164551,-0.018981934,-0.13262939999999998,34.984734,-87.778625,169.64885,2019-08-05 11:08:51,
792.0,-0.015625,-0.012268066000000001,-0.07910156,-6.89313,-78.99235999999999,119.824425,2019-08-05 11:08:51,
793.0,-0.038146973,0.00390625,-0.03765869,-52.14504,-156.32062,78.96947,2019-08-05 11:08:51,
794.0,-0.04046631,-0.035949707000000004,-0.1071167,-41.748093,-114.84733,39.389313,2019-08-05 11:08:51,
795.0,-0.05706787,-0.06329346,-0.1508789,113.61068999999999,-37.007633,33.549618,2019-08-05 11:08:51,
796.0,-0.11993408,-0.0690918,-0.13342285,178.40458999999998,-94.87023,-8.290076,2019-08-05 11:08:51,
797.0,-0.22521973,-0.12188721,-0.03930664,134.7481,-188.74046,-75.28244000000001,2019-08-05 11:08:51,
798.0,-0.11657715,-0.09020996,-0.04046631,72.0,-91.59541999999999,-182.54199,2019-08-05 11:08:51,
799.0,0.055786132999999995,-0.025024414,0.027160645,61.083969999999994,68.0229,-155.35878,2019-08-05 11:08:51,
800.0,0.03894043,0.051391599999999996,0.10626221,-136.29007,250.12977999999998,-43.435116,2019-08-05 11:08:51,
801.0,0.01940918,0.088378906,0.020019531,-250.1374,250.12977999999998,-168.6565,2019-08-05 11:08:51,
802.0,0.09991455,0.09808349599999999,-0.17919922,-250.1374,250.12977999999998,-80.46565,2019-08-05 11:08:51,
803.0,0.21398926,0.10760498,-0.15338135,-250.1374,250.12977999999998,-91.44275,2019-08-05 11:08:51,
804.0,0.11236572,0.12286377,-0.13024902,-182.8626,43.709922999999996,75.29008,2019-08-05 11:08:51,
805.0,0.010864258,0.08068848,-0.11706543,-61.23664,-27.587785999999998,41.885498,2019-08-05 11:08:51,
806.0,0.008422852,0.050048828,-0.19238281,-0.39694658,-151.57253,-6.8702292,2019-08-05 11:08:52,
807.0,0.061157227,0.059204099999999996,-0.2524414,126.091606,-250.1374,-15.442748000000002,2019-08-05 11:08:52,
808.0,0.054016113,0.040527344,-0.27093506,250.12977999999998,-250.1374,-36.664124,2019-08-05 11:08:52,
809.0,0.060913086,0.07574463,-0.0949707,250.12977999999998,-250.1374,-0.97709924,2019-08-05 11:08:52,
810.0,-0.0014038085999999999,0.00970459,-0.17144775,166.23665,-217.27481,-12.961832000000001,2019-08-05 11:08:52,
811.0,-0.00012207031000000001,0.02166748,-0.060302734000000004,208.17557,-250.1374,-11.0992365,2019-08-05 11:08:52,
812.0,0.039489746,0.041259766,-0.023132324,131.06107,-250.1374,26.526718,2019-08-05 11:08:52,
813.0,-0.0010375977,0.039611816,-0.037902832000000004,-6.8320612999999994,-210.46565,65.47328,2019-08-05 11:08:52,
814.0,-0.07281494,-0.057983400000000004,-0.21759033,79.854965,-227.47328,47.82443,2019-08-05 11:08:52,
815.0,-0.033081055,0.027160645,-0.09057617,216.87787000000003,-244.2519,57.564884,2019-08-05 11:08:52,
816.0,-0.09039307,0.026794434,-0.029174805,168.27481,-157.98473,48.709922999999996,2019-08-05 11:08:52,
817.0,-0.09820557,-0.013061523,-0.12451172,180.57253,-76.1145,61.091602,2019-08-05 11:08:52,
818.0,-0.11553955,0.0006713867,-0.085876465,250.12977999999998,-32.74046,80.10687,2019-08-05 11:08:52,
819.0,-0.14044189999999998,0.008300781,0.021240234,250.12977999999998,-54.50382,64.28244000000001,2019-08-05 11:08:52,
820.0,-0.109436035,-0.014099121000000001,0.055847167999999996,180.91603,-20.221375,69.21374,2019-08-05 11:08:52,
821.0,-0.13122559,-0.023071289,0.05908203,117.71756,89.10687,42.74046,2019-08-05 11:08:52,
822.0,-0.14892578,-0.022033691,0.049133300000000005,52.83206,121.03817,24.076335999999998,2019-08-05 11:08:52,
823.0,-0.13336182,-0.023620605,0.05407715,27.030534999999997,-2.29771,29.374046000000003,2019-08-05 11:08:52,
824.0,-0.10986328,-0.028625487999999998,-0.020446777,-7.480916000000001,26.664121999999995,30.473282,2019-08-05 11:08:52,
825.0,-0.12689209,-0.032226562,-0.03137207,7.3053436000000005,95.57252,18.251910000000002,2019-08-05 11:08:52,
826.0,-0.15734863,-0.03704834,-0.0138549805,6.6183205,60.938930000000006,1.5114504,2019-08-05 11:08:52,
827.0,-0.15197754,-0.034484863,-0.02508545,-3.4580152,-4.5801525000000005,-10.748092,2019-08-05 11:08:52,
828.0,-0.14355469,-0.03277588,-0.020080566,-28.549618,36.351147,-55.78626,2019-08-05 11:08:52,
829.0,-0.13134766,-0.026489257999999998,-0.0017700195,-88.99235999999999,161.24428,-120.45038000000001,2019-08-05 11:08:52,
830.0,-0.08160400400000001,-0.0005493164,-0.0065307617,-181.84734,250.12977999999998,-168.0229,2019-08-05 11:08:52,
831.0,-0.0138549805,-0.01977539,-0.082214355,-249.0458,250.12977999999998,-169.35115,2019-08-05 11:08:52,
832.0,-0.0028686523,0.0087890625,-0.05706787,-240.71756000000002,250.12977999999998,-146.1145,2019-08-05 11:08:52,
833.0,-0.010986328,0.027893066,-0.04083252,-239.85497,250.12977999999998,-149.12213,2019-08-05 11:08:52,
834.0,-0.015258788999999998,0.058532715,-0.06555176,-250.1374,250.12977999999998,-190.2061,2019-08-05 11:08:52,
835.0,0.00390625,-0.014343261999999999,-0.25830078,-110.12213999999999,-47.221375,-58.519085,2019-08-05 11:08:52,
836.0,0.007385254,0.030944824,-0.16290283,68.44275,-30.473282,-53.480915,2019-08-05 11:08:52,
837.0,0.003112793,0.06085205,-0.072753906,-19.045801,127.01527,-93.145035,2019-08-05 11:08:52,
838.0,0.027526855,0.07366943,-0.10461426,-92.72519,186.03816,-89.03817,2019-08-05 11:08:52,
839.0,-0.013671875,-0.006042480500000001,-0.18310547,-72.67175,131.96947,-28.259542,2019-08-05 11:08:52,
840.0,0.0036621094,0.004333496,-0.14654541,-46.648853,124.10687,-72.46565,2019-08-05 11:08:52,
841.0,-0.004638672,0.019470215,-0.072387695,-11.603053,63.0,-73.07633,2019-08-05 11:08:52,
842.0,0.08935547,-0.025268555,-0.12042236,180.59541000000002,152.63359,-103.900764,2019-08-05 11:08:53,
843.0,-0.016723633,-0.017333984,-0.12487793,45.030533,27.786259,-56.30534399999999,2019-08-05 11:08:53,
844.0,0.02935791,-0.0014648438,-0.08026123,47.549618,-13.877863,-71.25954399999999,2019-08-05 11:08:53,
845.0,0.03265381,-0.0008544922000000001,-0.2565918,138.32825,-16.610687,-30.366413,2019-08-05 11:08:53,
846.0,-0.020507812,0.011779785,-0.08905029,50.335876,-86.52672,7.1755724,2019-08-05 11:08:53,
847.0,-0.013000488000000001,0.0048217773,-0.14508057,35.480915,-250.1374,-55.18320500000001,2019-08-05 11:08:53,
848.0,-0.028564452999999997,-0.01159668,-0.13867188,-29.022902000000002,111.64121999999999,3.9923663,2019-08-05 11:08:53,
849.0,0.021606445,-0.0064697266000000005,-0.10638428,-4.366412,94.62595,-1.7328244,2019-08-05 11:08:53,
850.0,0.0034179688000000002,0.0022583008,-0.11682129,14.335876999999998,-119.01527,-8.839694999999999,2019-08-05 11:08:53,
851.0,-0.0036010741999999997,-0.007019043000000001,-0.12731934,-10.381680000000001,34.496179999999995,-1.7786259999999998,2019-08-05 11:08:53,
852.0,0.0079956055,0.0016479492000000002,-0.11425781,-4.8244276,28.709923,-3.3435113,2019-08-05 11:08:53,
853.0,0.00390625,0.006286621,-0.12908936,6.4274807,-41.229008,-2.816794,2019-08-05 11:08:53,
854.0,-0.0012817383,-0.0036621094,-0.12219238,-5.366412,30.595419,-3.9541983999999997,2019-08-05 11:08:53,
855.0,0.0021972656,-0.0018920898,-0.12066650400000001,3.221374,-15.106871,-3.534351,2019-08-05 11:08:53,
856.0,0.0025634766,0.0037841796999999997,-0.12457275400000001,-3.3740457999999998,13.885496,-4.2519083,2019-08-05 11:08:53,
857.0,0.003112793,-0.0045776367,-0.12438965,-0.3053435,-3.59542,-2.5801528,2019-08-05 11:08:53,
858.0,-0.0016479492000000002,-0.011779785,-0.12347412,-0.45801526,4.396946400000001,-2.3282442000000003,2019-08-05 11:08:53,
859.0,-0.004699707,-0.0045776367,-0.12023926,-0.17557251,3.6870230000000004,-3.7099237,2019-08-05 11:08:53,
860.0,-0.0032958984000000004,0.00036621094,-0.12506104,0.114503816,0.17557251,-3.1984732000000005,2019-08-05 11:08:53,
861.0,-0.0030517578000000003,-0.0045166016,-0.12634277,-0.97709924,2.480916,-2.961832,2019-08-05 11:08:53,
862.0,0.0015869141,0.0014648438,-0.12329101599999999,-2.0992367,3.1450381000000003,-2.9923662999999996,2019-08-05 11:08:53,
863.0,-0.0071411133,-0.00091552734,-0.12359619,-0.9389313,0.8167939000000001,-3.9007633000000004,2019-08-05 11:08:53,
864.0,0.014099121000000001,-0.0028686523,-0.12390137,-1.0763359,0.9541985000000001,-2.2595419999999997,2019-08-05 11:08:53,
865.0,-0.00390625,-0.0005493164,-0.12683105,-0.64122134,2.4122138,-4.396946400000001,2019-08-05 11:08:53,
866.0,0.0033569335999999996,0.0014038085999999999,-0.12469482400000001,-0.610687,2.923664,-3.6564887,2019-08-05 11:08:53,
867.0,-0.0009765625,-0.00036621094,-0.12408447,-1.4503816,2.3664122000000005,-3.3053436,2019-08-05 11:08:53,
868.0,-0.0018310547,0.0008544922000000001,-0.12164307,0.18320611,2.3816792999999996,-3.1374047000000003,2019-08-05 11:08:53,
869.0,-0.009521484,-0.003540039,-0.12030029,-1.5114504,1.8931297999999999,-3.4580152,2019-08-05 11:08:53,
870.0,-0.00024414062000000002,0.0033569335999999996,-0.12219238,0.8396947,1.7709924,-2.9694657,2019-08-05 11:08:53,
871.0,-0.0028686523,0.0012207030999999999,-0.12384033,-0.6870229,2.5114503,-3.2900763,2019-08-05 11:08:53,
872.0,-0.005737304699999999,-0.005432129,-0.12231445,0.08396947,1.7099236,-2.7557251,2019-08-05 11:08:53,
873.0,-0.0010986328,0.00042724610000000003,-0.12371826,0.83206105,2.4351146,-3.053435,2019-08-05 11:08:53,
874.0,0.005554199,0.002380371,-0.12371826,0.7099236999999999,2.9389312000000003,-3.7480917000000002,2019-08-05 11:08:53,
875.0,0.0026245116999999997,0.0018310547,-0.12414551,-0.66412216,2.5954200000000003,-2.70229,2019-08-05 11:08:53,
876.0,-0.0032958984000000004,-0.0045776367,-0.12310791,-0.10687023,2.9160306,-3.5877862,2019-08-05 11:08:54,
877.0,0.003112793,0.0007934570299999999,-0.123535156,-0.9312976999999999,2.0229008,-4.1984735,2019-08-05 11:08:54,
878.0,-0.0044555664,-0.0017700195,-0.12286377,0.099236645,0.90076333,-2.816794,2019-08-05 11:08:54,
879.0,-0.00012207031000000001,0.0007934570299999999,-0.12219238,-0.6488550000000001,0.5648854999999999,-3.8015267999999995,2019-08-05 11:08:54,
880.0,0.00091552734,-0.0026245116999999997,-0.12152099599999999,0.114503816,2.129771,-4.6106873,2019-08-05 11:08:54,
881.0,0.0017089844000000001,-6.1035155999999994e-05,-0.11956787,-1.2290076,2.1603053,-2.9923662999999996,2019-08-05 11:08:54,
882.0,-0.00024414062000000002,0.0030517578000000003,-0.12573242,0.015267176,2.442748,-3.7480917000000002,2019-08-05 11:08:54,
883.0,0.0031738281,0.0010375977,-0.12139892599999999,-1.2671756,1.7328244,-6.0229006,2019-08-05 11:08:54,
884.0,0.00390625,-0.0012817383,-0.12261963,0.47328246,2.6488549999999997,-3.8244274,2019-08-05 11:08:54,
885.0,-0.0029296875,0.004699707,-0.12078857400000001,-1.351145,1.2442749,-3.8244274,2019-08-05 11:08:54,
886.0,-0.0022583008,-0.0018310547,-0.12371826,-0.19847329,1.0229008,-4.0229006,2019-08-05 11:08:54,
887.0,-0.0013427734,-0.0036621094,-0.12347412,-0.5114504,2.4351146,-0.8778626,2019-08-05 11:08:54,
888.0,0.0006103515599999999,-6.1035155999999994e-05,-0.12170410000000002,-1.2900764,2.0992367,-1.6030535,2019-08-05 11:08:54,
889.0,-0.0012817383,-0.0007324219,-0.12524414,-2.1374047000000003,2.7480917000000002,-3.534351,2019-08-05 11:08:54,
890.0,-0.0048217773,-0.0010986328,-0.11791992,0.4427481,1.9236640999999999,-3.3206108,2019-08-05 11:08:54,
891.0,0.003967285,-0.0007324219,-0.12591553,0.34351146,1.7404580000000003,-3.167939,2019-08-05 11:08:54,
892.0,-0.0029296875,0.001953125,-0.12866211,-0.5038168,2.4732822999999997,-4.0229006,2019-08-05 11:08:54,
893.0,-0.0037841796999999997,-0.0032348633000000003,-0.121032715,-0.83206105,3.7480917000000002,-3.7480917000000002,2019-08-05 11:08:54,
894.0,0.0017700195,0.0013427734,-0.123168945,0.32824427,1.1297709999999999,-4.114504,2019-08-05 11:08:54,
895.0,-0.004333496,-0.0068359375,-0.11975098,-1.3435115,1.4656489,-2.8396947,2019-08-05 11:08:54,
896.0,-0.0033569335999999996,0.010437011999999999,-0.1227417,0.5648854999999999,1.221374,-4.923664,2019-08-05 11:08:54,
897.0,0.001159668,-0.0021972656,-0.12237549,-0.41221374,2.3816792999999996,-3.0610687999999997,2019-08-05 11:08:54,
898.0,0.00592041,-0.0010375977,-0.12615967,-1.6564884999999998,2.1068702,-2.0152671000000004,2019-08-05 11:08:54,
899.0,-0.0010986328,-0.00048828125,-0.12384033,-0.061068702,1.6183206,-4.4503818,2019-08-05 11:08:54,
900.0,-0.003112793,-0.00012207031000000001,-0.12011719,0.8549618,2.5877862,-1.70229,2019-08-05 11:08:54,
901.0,0.00024414062000000002,-0.0032348633000000003,-0.12023926,-1.8244275,2.2900763,-2.832061,2019-08-05 11:08:54,
902.0,-0.006591797,-0.0045776367,-0.12518310000000002,-0.58778626,1.5648855,-4.9160304,2019-08-05 11:08:54,
903.0,-0.0018920898,-0.0029907227,-0.12249756,-0.16793893,2.2748091,-2.5877862,2019-08-05 11:08:54,
904.0,0.0006713867,-0.0031738281,-0.12573242,-0.030534351,1.6412214,-3.1526718,2019-08-05 11:08:54,
905.0,-0.008422852,-0.003967285,-0.12335205,0.061068702,1.0076336,-5.0458016,2019-08-05 11:08:54,
906.0,0.007446289,-0.0006103515599999999,-0.12420654,-0.77862597,2.0229008,-2.442748,2019-08-05 11:08:54,
907.0,0.0025634766,0.00030517577999999995,-0.12359619,-0.2977099,2.076336,-4.0839696000000005,2019-08-05 11:08:54,
908.0,0.0028686523,-0.0049438477,-0.11999512,-1.1755725000000001,0.8549618,-3.091603,2019-08-05 11:08:54,
909.0,-0.00048828125,0.0048828125,-0.1295166,2.1603053,2.0992367,-2.1755726,2019-08-05 11:08:54,
910.0,0.0036621094,-0.0021362305,-0.12359619,-1.091603,1.7557251,-2.8778627,2019-08-05 11:08:54,
911.0,-0.008483886999999999,-0.0045166016,-0.125,-0.41221374,1.8015267,-1.6641221000000002,2019-08-05 11:08:54,
912.0,0.0012817383,-0.003540039,-0.124938965,-0.6870229,1.7328244,-3.3816792999999996,2019-08-05 11:08:55,
913.0,0.0,0.0020141601999999997,-0.12384033,-1.038168,1.6870228999999999,-4.2290077,2019-08-05 11:08:55,
914.0,-0.010620117,0.00091552734,-0.12536621,-0.16793893,1.5267175,-3.5648854,2019-08-05 11:08:55,
915.0,-0.004211426,-0.003112793,-0.12231445,0.77862597,2.8244274,-3.7633588,2019-08-05 11:08:55,
916.0,0.0007324219,-0.0006103515599999999,-0.12536621,-1.1984733,1.3816794,-2.7175572,2019-08-05 11:08:55,
917.0,-0.0020141601999999997,-0.0021362305,-0.12072754,0.31297709999999995,2.5496182000000003,-4.0076336999999995,2019-08-05 11:08:55,
918.0,-0.0068359375,-0.0006103515599999999,-0.122558594,0.45801526,3.3587787000000002,-2.6564887,2019-08-05 11:08:55,
919.0,0.002380371,-0.0007324219,-0.12377930000000001,-1.3129771000000001,2.6488549999999997,-3.4885497,2019-08-05 11:08:55,
920.0,0.004638672,-0.0043945312,-0.12408447,-1.0,1.1603054,-4.1755724,2019-08-05 11:08:55,
921.0,0.0007324219,0.00024414062000000002,-0.12298584,0.29007635,3.2137403,-2.7251909,2019-08-05 11:08:55,
922.0,-0.004638672,-0.0020141601999999997,-0.12475586,-0.5038168,2.946565,-1.4351145,2019-08-05 11:08:55,
923.0,0.005432129,-0.0018920898,-0.12384033,-0.8854962,3.206107,-3.6335877999999995,2019-08-05 11:08:55,
924.0,-0.00579834,-0.0018920898,-0.12225342,-0.6946565,1.7709924,-3.0305343,2019-08-05 11:08:55,
925.0,-0.011657715,-0.00036621094,-0.12567139,-1.1603054,0.71755725,-2.1603053,2019-08-05 11:08:55,
926.0,0.00091552734,0.006652831999999999,-0.12384033,-0.6488550000000001,2.0839694,-2.206107,2019-08-05 11:08:55,
927.0,0.009887695,-0.0049438477,-0.12268066400000001,-0.19847329,1.8931297999999999,-4.2137402999999996,2019-08-05 11:08:55,
928.0,-0.0040893555,-0.0008544922000000001,-0.11688232400000001,-0.8702290000000001,2.534351,-3.9160306000000005,2019-08-05 11:08:55,
929.0,-0.0036621094,-0.00018310547,-0.12329101599999999,0.5496183000000001,1.5114504,-3.2671757,2019-08-05 11:08:55,
930.0,-0.0056152343999999995,-0.0053100586,-0.12219238,-0.5496183000000001,1.5801526000000001,-3.9770992,2019-08-05 11:08:55,
931.0,0.00042724610000000003,-0.0008544922000000001,-0.12097168,0.06870229,0.6259541999999999,-4.0610685,2019-08-05 11:08:55,
932.0,-0.007751465,-0.0052490233999999995,-0.12377930000000001,-0.48091602,2.4045799999999997,-3.3893129999999996,2019-08-05 11:08:55,
933.0,-0.008605957,0.0013427734,-0.12335205,0.7480916,1.259542,-3.1450381000000003,2019-08-05 11:08:55,
934.0,-0.0025024414000000004,-0.0017700195,-0.12457275400000001,-0.32061067,2.4045799999999997,-2.8473282,2019-08-05 11:08:55,
935.0,0.005859375,-0.007751465,-0.1227417,1.1755725000000001,3.6717557999999997,-4.10687,2019-08-05 11:08:55,
936.0,-0.0049438477,0.0034790040000000004,-0.12506104,-0.35877863,1.9465648999999998,-4.076336,2019-08-05 11:08:55,
937.0,-0.008666992,0.00018310547,-0.125,-0.54198474,2.2137403,-5.3053436,2019-08-05 11:08:55,
938.0,0.0008544922000000001,0.005432129,-0.11853027,0.0,1.5877863,-4.0152674,2019-08-05 11:08:55,
939.0,-0.0007324219,0.0010986328,-0.12054443,-1.2519083999999998,2.167939,-3.9541983999999997,2019-08-05 11:08:55,
940.0,0.0020141601999999997,-0.0038452148,-0.12268066400000001,1.0076336,0.35877863,-4.5648856,2019-08-05 11:08:55,
941.0,0.0015869141,0.00024414062000000002,-0.12207031,0.16793893,1.9160305,-3.961832,2019-08-05 11:08:55,
942.0,0.0009765625,-0.0010375977,-0.12011719,-0.77862597,2.8931298,-3.1984732000000005,2019-08-05 11:08:55,
943.0,0.0018310547,0.0018920898,-0.12628174,-0.022900764,2.4885497,-4.1297708,2019-08-05 11:08:55,
944.0,-0.0029907227,-0.005554199,-0.12530518,0.091603056,1.8473282,-4.374046,2019-08-05 11:08:55,
945.0,0.0033569335999999996,-0.006713866999999999,-0.12280273400000001,0.9694656999999999,2.442748,-2.2137403,2019-08-05 11:08:55,
946.0,-0.004638672,0.001159668,-0.122924805,-0.045801528,2.832061,-3.2442749,2019-08-05 11:08:55,
947.0,0.0036010741999999997,-0.0010986328,-0.1239624,0.7633588000000001,0.9465648999999999,-3.832061,2019-08-05 11:08:55,
948.0,-0.0012817383,-0.001159668,-0.12072754,0.122137405,2.3664122000000005,-2.923664,2019-08-05 11:08:55,
949.0,0.0018920898,-0.0068359375,-0.12542725,0.519084,1.2748091000000001,-2.6946564,2019-08-05 11:08:56,
950.0,-0.006958008000000001,0.0008544922000000001,-0.119628906,-1.2977100000000001,2.7862597,-5.0992365,2019-08-05 11:08:56,
951.0,-0.0029907227,-0.0073242188,-0.12335205,-0.32061067,1.5954198999999998,-1.9770991999999998,2019-08-05 11:08:56,
952.0,0.0026855469,-0.0022583008,-0.11785889,-0.22137405,1.4885496,-4.7862597000000004,2019-08-05 11:08:56,
953.0,-0.009399414,6.1035155999999994e-05,-0.12170410000000002,0.2977099,2.1984732000000005,-3.465649,2019-08-05 11:08:56,
954.0,-0.006042480500000001,-0.0012817383,-0.12860107,-1.519084,3.0687022,-3.2595419999999997,2019-08-05 11:08:56,
955.0,-0.0071411133,-0.004028320300000001,-0.12554932,-0.34351146,0.48091602,-3.1984732000000005,2019-08-05 11:08:56,
956.0,0.0071411133,0.0015258789000000001,-0.12371826,-0.43511450000000007,3.2290077,-1.2519083999999998,2019-08-05 11:08:56,
957.0,-0.004333496,0.0021972656,-0.11975098,-0.89312977,1.1679389999999998,-2.6412212999999998,2019-08-05 11:08:56,
958.0,-0.009521484,0.0045166016,-0.12341308599999999,-1.9465648999999998,2.167939,-3.908397,2019-08-05 11:08:56,
959.0,-0.00030517577999999995,0.005126953,-0.12261963,0.47328246,1.0687023,-3.7251909,2019-08-05 11:08:56,
960.0,0.00030517577999999995,-0.0005493164,-0.12158203,0.5038168,2.4503817999999997,-2.6030533,2019-08-05 11:08:56,
961.0,0.0061035156000000005,-0.0014038085999999999,-0.11987305,-0.90839696,2.2748091,-3.2519082999999998,2019-08-05 11:08:56,
962.0,-0.0040893555,0.00048828125,-0.12408447,0.091603056,1.7480916000000002,-3.9007633000000004,2019-08-05 11:08:56,
963.0,-0.006713866999999999,0.003112793,-0.12322998,1.9694656000000004,2.4198472,-3.5801528,2019-08-05 11:08:56,
964.0,-0.009033203,0.0024414061999999998,-0.12133789,-0.39694658,1.4580153,-1.7480916000000002,2019-08-05 11:08:56,
965.0,0.001953125,-0.008300781,-0.12048339999999998,-0.71755725,2.5954200000000003,-3.8549618999999997,2019-08-05 11:08:56,
966.0,-0.006286621,-0.0018310547,-0.12530518,0.6259541999999999,2.5419848,-4.7099237,2019-08-05 11:08:56,
967.0,0.0021972656,0.0007324219,-0.12408447,0.45801526,2.70229,-2.9694657,2019-08-05 11:08:56,
968.0,-0.0020751953,-0.0095825195,-0.12237549,-0.33587787,2.5496182000000003,-2.8473282,2019-08-05 11:08:56,
969.0,0.0,0.0020141601999999997,-0.11987305,0.114503816,1.9389313000000001,-3.3435113,2019-08-05 11:08:56,
970.0,0.0012817383,-0.0014648438,-0.12542725,0.7251908,1.6335878000000001,-3.4351146,2019-08-05 11:08:56,
971.0,0.0056152343999999995,-0.0018920898,-0.12347412,-0.65648854,1.8931297999999999,-2.2290077,2019-08-05 11:08:56,
972.0,-0.0031738281,0.0007324219,-0.12347412,-1.3587786,1.8702290000000001,-2.8931298,2019-08-05 11:08:56,
973.0,-0.0018310547,-0.0021362305,-0.12347412,-0.5496183000000001,2.3053436,-3.465649,2019-08-05 11:08:56,
974.0,0.007446289,-0.0014038085999999999,-0.12530518,-0.8854962,1.5572518999999998,-3.7480917000000002,2019-08-05 11:08:56,
975.0,-0.0012207030999999999,0.0025634766,-0.12158203,-0.045801528,1.8778626,-3.6641220000000003,2019-08-05 11:08:56,
976.0,-0.004699707,0.0006713867,-0.12213135,0.45038167,2.1603053,-3.038168,2019-08-05 11:08:56,
977.0,0.0014038085999999999,0.0037841796999999997,-0.12072754,-0.53435117,2.8549618999999997,-4.114504,2019-08-05 11:08:56,
978.0,0.005554199,-0.0040893555,-0.12188721,-1.9389313000000001,2.6183207000000004,-3.3664122000000005,2019-08-05 11:08:56,
979.0,0.0072631836,0.0009765625,-0.11920166,0.022900764,2.389313,-2.6335877999999995,2019-08-05 11:08:56,
980.0,0.0044555664,0.0007934570299999999,-0.12268066400000001,-1.2290076,2.480916,-2.70229,2019-08-05 11:08:56,
981.0,-0.0009765625,0.007629394499999999,-0.12176514,-0.79389316,2.6717557999999997,-3.5725190000000002,2019-08-05 11:08:56,
982.0,-0.0025634766,-0.0030517578000000003,-0.12579346,-0.19847329,3.0610687999999997,-3.29771,2019-08-05 11:08:56,
983.0,-0.0021362305,-0.0016479492000000002,-0.12475586,-1.2900764,1.6946564999999998,-2.519084,2019-08-05 11:08:56,
984.0,-0.0010986328,0.0021972656,-0.12298584,-0.99236643,2.7480917000000002,-3.6793892,2019-08-05 11:08:56,
985.0,-0.004760742,-0.0037841796999999997,-0.12652588,-0.015267176,1.7175573,-4.778626,2019-08-05 11:08:57,
986.0,-0.0012207030999999999,-0.0033569335999999996,-0.12487793,-1.1221374,2.816794,-3.9160306000000005,2019-08-05 11:08:57,
987.0,0.0056152343999999995,0.0053100586,-0.12402344,0.89312977,2.1908397999999996,-3.2595419999999997,2019-08-05 11:08:57,
988.0,-0.004272461,0.00048828125,-0.12384033,-0.053435113,1.5572518999999998,-3.3206108,2019-08-05 11:08:57,
989.0,-0.006591797,0.0044555664,-0.12329101599999999,0.78625953,0.84732825,-3.2366412,2019-08-05 11:08:57,
990.0,-0.005126953,-0.006713866999999999,-0.12109375,-0.79389316,1.389313,-2.8854961,2019-08-05 11:08:57,
991.0,-0.0072631836,-0.0034179688000000002,-0.12420654,-1.0610687,1.1297709999999999,-2.0458016,2019-08-05 11:08:57,
992.0,6.1035155999999994e-05,0.00036621094,-0.12487793,-0.23664123,2.2519082999999998,-3.4885497,2019-08-05 11:08:57,
993.0,0.002746582,-0.001953125,-0.12286377,-0.15267175,2.908397,-2.7862597,2019-08-05 11:08:57,
994.0,-0.0020751953,-0.0053710938,-0.12524414,-0.13740458,2.3816792999999996,-4.0305343,2019-08-05 11:08:57,
995.0,-0.004333496,-0.0012817383,-0.121032715,-0.16793893,2.3435113,-3.6259542000000002,2019-08-05 11:08:57,
996.0,0.0078125,-0.0033569335999999996,-0.12139892599999999,0.10687023,1.4122137,-4.8244276,2019-08-05 11:08:57,
997.0,-0.006958008000000001,0.0016479492000000002,-0.12463379,-0.091603056,0.9389313,-3.2595419999999997,2019-08-05 11:08:57,
998.0,-0.0032958984000000004,-0.0040893555,-0.12573242,-1.3969465,2.9923662999999996,-3.7404580000000003,2019-08-05 11:08:57,
999.0,-0.010559082,0.002380371,-0.11651611,0.022900764,1.7709924,-3.9541983999999997,2019-08-05 11:08:57,
1000.0,-0.0052490233999999995,-0.009338379,-0.12854004,0.41221374,2.6335877999999995,-3.0305343,2019-08-05 11:08:57,
1001.0,-0.0033569335999999996,0.0026245116999999997,-0.12145996,0.053435113,2.961832,-2.3740457999999998,2019-08-05 11:08:57,
1002.0,-0.0017700195,-0.0044555664,-0.12438965,-0.9694656999999999,1.8244275,-2.5877862,2019-08-05 11:08:57,
1003.0,-0.0053710938,-0.00012207031000000001,-0.12329101599999999,0.78625953,1.70229,-3.1068702,2019-08-05 11:08:57,
1004.0,0.024536132999999998,-0.027709961,-0.16149902,45.954197,-75.61069,32.793890000000005,2019-08-05 11:08:57,
1005.0,0.05053711,-0.047851562,-0.15026855,55.76336,174.16031,-59.290077000000004,2019-08-05 11:08:57,
1006.0,-0.011779785,0.0013427734,-0.15545654,111.19084,220.23665,-12.396947,2019-08-05 11:08:57,
1007.0,-0.013122558999999999,-0.010070800999999999,-0.1453247,2.0992367,250.12977999999998,68.60305,2019-08-05 11:08:57,
1008.0,0.11102295,-0.04815674,-0.08282471,-45.648853,233.99237000000002,1.038168,2019-08-05 11:08:57,
1009.0,0.08093262,-0.06860351599999999,-0.08483887,-247.93892999999997,-35.82443,-220.99237000000002,2019-08-05 11:08:57,
1010.0,0.026611327999999997,0.045776367000000005,-0.10888672,-18.748089999999998,203.0229,-166.52671999999998,2019-08-05 11:08:57,
1011.0,0.2076416,0.038146973,-0.144104,158.59541000000002,250.12977999999998,-20.458015,2019-08-05 11:08:57,
1012.0,0.0018310547,0.0715332,-0.16546631,222.0229,191.80153,-70.64886,2019-08-05 11:08:57,
1013.0,0.059631348,-0.009033203,-0.1539917,250.12977999999998,178.78625,121.99236,2019-08-05 11:08:57,
1014.0,0.087402344,0.01739502,-0.07122803,250.12977999999998,193.67175,250.12977999999998,2019-08-05 11:08:57,
1015.0,0.059692382999999995,-0.04510498,-0.06933594,250.12977999999998,160.58015,250.12977999999998,2019-08-05 11:08:57,
1016.0,0.15124512,0.0006103515599999999,0.05718994,250.12977999999998,207.32825,144.0916,2019-08-05 11:08:57,
1017.0,0.07366943,-0.07751465,0.003967285,144.89313,70.816795,63.664124,2019-08-05 11:08:57,
1018.0,0.06915283,-0.08679199,0.00091552734,136.77863,-10.114504,118.137405,2019-08-05 11:08:57,
1019.0,0.06567383,-0.081848145,-0.01776123,142.45801,-24.786259,126.29008,2019-08-05 11:08:57,
1020.0,0.06719971,-0.11016846,0.0030517578000000003,30.305344,-4.89313,-1.9465648999999998,2019-08-05 11:08:58,
1021.0,0.057373047,-0.09777832,0.023254395,-75.80915999999999,-124.69466000000001,-99.58015400000001,2019-08-05 11:08:58,
1022.0,0.07977295,-0.101379395,-0.014709473,-120.9771,-137.9542,-94.9542,2019-08-05 11:08:58,
1023.0,0.08050537,-0.08648682,-0.015686035,-73.9542,-139.70228999999998,-65.061066,2019-08-05 11:08:58,
1024.0,0.08734131,-0.10968017599999999,-0.04345703,-38.9771,-97.54961999999999,-152.0229,2019-08-05 11:08:58,
1025.0,0.07513428,-0.08361816400000001,-0.016845703,103.0458,-63.396946,-26.274809,2019-08-05 11:08:58,
1026.0,0.072753906,-0.06500244,-0.032226562,95.900764,-80.0687,27.419846999999997,2019-08-05 11:08:58,
1027.0,0.11242676,-0.11169433599999999,-0.004638672,41.9771,-46.702290000000005,-5.854962,2019-08-05 11:08:58,
1028.0,0.10809326,-0.078308105,-0.012023926,41.129771999999996,-55.48855,-48.351147,2019-08-05 11:08:58,
1029.0,0.06964111,-0.09326172,-0.036376953,-23.328245000000003,-42.06107,-10.587786999999999,2019-08-05 11:08:58,
1030.0,0.08245849599999999,-0.10681152,-0.053771973,-82.091606,-22.725191,-13.732823999999999,2019-08-05 11:08:58,
1031.0,0.07885742,-0.087768555,-0.032592773,-42.114502,-0.46564886,-88.35878000000001,2019-08-05 11:08:58,
1032.0,0.08245849599999999,-0.08117676,-0.037353516,27.183207,4.114504,-50.435116,2019-08-05 11:08:58,
1033.0,0.09259033,-0.0715332,-0.030639648,2.2137403,-17.694656,-18.045801,2019-08-05 11:08:58,
1034.0,0.09417724599999999,-0.0960083,-0.026916503999999997,-32.992367,-34.648853,-41.961834,2019-08-05 11:08:58,
1035.0,0.07385254,-0.059265137,-0.045959473,-36.76336,-47.366413,-50.717556,2019-08-05 11:08:58,
1036.0,0.09020996,-0.07452392599999999,-0.047973632999999995,-31.29771,-35.82443,-22.763360000000002,2019-08-05 11:08:58,
1037.0,0.08941650400000001,-0.07708739999999999,-0.039978027,-30.595419,-26.625953999999997,-6.396946400000001,2019-08-05 11:08:58,
1038.0,0.09234619,-0.06298828,-0.03967285,-20.015266,-17.412214000000002,-10.770992,2019-08-05 11:08:58,
1039.0,0.08331299,-0.06500244,-0.054626465,-34.251907,-9.9007635,-12.526717,2019-08-05 11:08:58,
1040.0,0.09564209,-0.08886719,-0.059692382999999995,-66.47328,-15.030535,1.5419847,2019-08-05 11:08:58,
1041.0,0.09887695,-0.13317871,-0.053466797,-180.26718,-59.83969499999999,6.4274807,2019-08-05 11:08:58,
1042.0,0.061279297,-0.11029053,-0.076171875,-250.1374,-132.77863,-115.03053,2019-08-05 11:08:58,
1043.0,0.03930664,0.020141601999999998,-0.07775879,-250.1374,-71.44275,-250.1374,2019-08-05 11:08:58,
1044.0,-0.014770508,0.18127441,0.037902832000000004,-250.1374,-72.60305,-199.30534,2019-08-05 11:08:58,
1045.0,-0.026733398,0.080078125,0.08312988,-137.8626,-209.80916000000002,-32.900764,2019-08-05 11:08:58,
1046.0,-0.02911377,-0.006652831999999999,-0.014526367,64.63359,-250.1374,51.839695,2019-08-05 11:08:58,
1047.0,0.032165527,-0.0635376,-0.20025635,205.01527,-250.1374,131.43511999999998,2019-08-05 11:08:58,
1048.0,0.025695799999999998,-0.019592285,-0.20446777,-48.412212,-155.30534,40.603054,2019-08-05 11:08:58,
1049.0,0.048034667999999996,-0.017211914,-0.18157959,-250.1374,-213.78625,-147.26718,2019-08-05 11:08:58,
1050.0,0.064575195,-0.016662598,-0.20581055,48.51145,-69.9771,-8.404580000000001,2019-08-05 11:08:58,
1051.0,0.055786132999999995,0.048706055,-0.21252441,133.35878,-56.78626,7.6946563999999995,2019-08-05 11:08:58,
1052.0,-0.002319336,0.041809082000000004,-0.13439941,38.198475,-37.14504,28.435114000000002,2019-08-05 11:08:58,
1053.0,0.014160156,0.0018310547,-0.13391113,-26.10687,1.3816794,-48.06107,2019-08-05 11:08:58,
1054.0,-0.008300781,-0.016296387,-0.11437988,-10.267176,-7.1679387000000006,-54.18320500000001,2019-08-05 11:08:58,
1055.0,-0.022338867000000002,0.023864746000000003,-0.12860107,44.900764,-23.961832,-8.938931,2019-08-05 11:08:58,
1056.0,-0.05041504,0.015258788999999998,-0.1295166,26.717558,4.763358599999999,-34.984734,2019-08-05 11:08:59,
1057.0,-0.03479004,0.061279297,-0.1350708,33.89313,-51.526720000000005,-35.885498,2019-08-05 11:08:59,
1058.0,-0.019226074,0.019165039,-0.08892822,12.236641,-17.557251,-12.519084,2019-08-05 11:08:59,
1059.0,0.0032958984000000004,0.0034790040000000004,-0.16821289,-54.55725,118.10687,-53.396946,2019-08-05 11:08:59,
1060.0,0.029296875,0.011230469,-0.11328125,16.648854999999998,-197.64122,-102.07633,2019-08-05 11:08:59,
1061.0,0.024902344,-0.014404297,-0.10894775400000001,-64.862595,182.41985,-90.9771,2019-08-05 11:08:59,
1062.0,0.06286621,0.0008544922000000001,-0.07464599599999999,44.702290000000005,97.30534,50.030533,2019-08-05 11:08:59,
1063.0,0.007873535,0.025878906,-0.05706787,-56.267174,-78.9313,126.96947,2019-08-05 11:08:59,
1064.0,-0.038269042999999996,0.005554199,-0.14550781,-11.679389,-144.54199,32.290077000000004,2019-08-05 11:08:59,
1065.0,-0.0026245116999999997,0.00579834,-0.14483643,-16.595419,92.12214,0.28244275,2019-08-05 11:08:59,
1066.0,0.014099121000000001,0.023864746000000003,-0.11450195,-0.6793893,66.29771,-3.221374,2019-08-05 11:08:59,
1067.0,0.013671875,0.009277344,-0.11267089999999998,1.3664121999999999,-33.503820000000005,-4.9389315,2019-08-05 11:08:59,
1068.0,0.007873535,0.010925293,-0.13348389,1.5114504,-29.648854999999998,-4.473282299999999,2019-08-05 11:08:59,
1069.0,0.0064086914,0.015625,-0.124938965,-0.2519084,31.282442,-2.0610688,2019-08-05 11:08:59,
1070.0,0.00982666,0.010559082,-0.11682129,-1.2366412,-0.6870229,-1.7862595000000001,2019-08-05 11:08:59,
1071.0,0.010131836,0.012756348,-0.125,0.46564886,-12.694656,-5.3587785000000006,2019-08-05 11:08:59,
1072.0,0.0064697266000000005,0.018066406,-0.12445068,-1.8396946,16.633587,-6.480916000000001,2019-08-05 11:08:59,
1073.0,0.009887695,0.008850098,-0.11828613,0.66412216,-0.86259544,-3.2366412,2019-08-05 11:08:59,
1074.0,0.007446289,0.013305663999999998,-0.12579346,0.52671754,-3.59542,-4.1755724,2019-08-05 11:08:59,
1075.0,0.005126953,0.009765625,-0.12573242,-1.2366412,8.061069,-3.9312977999999994,2019-08-05 11:08:59,
1076.0,0.015686035,0.009643555,-0.12194824,1.0229008,-4.3129773,-4.4885497,2019-08-05 11:08:59,
1077.0,0.007019043000000001,0.011413574,-0.12438965,-1.0839695,3.8549618999999997,-1.7480916000000002,2019-08-05 11:08:59,
