measurement,Acc_X,Acc_Y,Acc_Z,Gyr_X,Gyr_Y,Gyr_Z,Time(hh:mm:ss),Label
173.0,0.037963867000000005,-0.17480469,0.045837402,-1.3435115,-14.709924,22.091602,2019-08-05 14:07:47,0.0
174.0,0.021972656,-0.12750244,0.024780273,-31.725191,-12.656488,12.603053,2019-08-05 14:07:47,0.0
175.0,0.03363037,-0.12640381,0.03552246,38.53435,-10.755725,15.519084,2019-08-05 14:07:47,0.0
176.0,0.03918457,-0.13336182,0.036254883,-11.748092,-14.076335999999998,17.961832,2019-08-05 14:07:47,0.0
177.0,0.02508545,-0.11279297,0.033996582000000004,-8.7404585,-22.328245000000006,25.12977,2019-08-05 14:07:47,0.0
178.0,0.03173828,-0.09887695,0.017028809,-5.7099237,-17.61832,17.496183,2019-08-05 14:07:47,0.0
179.0,0.034973145,-0.10272217,0.021728516,-16.221375,-15.465649,14.793893,2019-08-05 14:07:47,0.0
180.0,0.039916992000000005,-0.09680176,0.01739502,-39.778625,-9.022901,14.183207,2019-08-05 14:07:47,0.0
181.0,0.024902344,-0.087402344,0.006713866999999999,-31.480917,-6.3435115999999985,8.2595415,2019-08-05 14:07:47,0.0
182.0,0.038208008,-0.09991455,0.0087890625,-29.595419,3.0458016,6.9847326,2019-08-05 14:07:47,0.0
183.0,0.024475098,-0.08972168,0.00970459,-45.44275,9.328244,1.5419847,2019-08-05 14:07:47,0.0
184.0,0.02722168,-0.08459473,0.0061035156000000005,-30.900763,25.366413,-6.9389315,2019-08-05 14:07:47,0.0
185.0,0.052490234,-0.097229004,0.00793457,-22.709923,30.595419,-7.0076337,2019-08-05 14:07:47,0.0
186.0,0.027404785,-0.11254883,0.0078125,-31.122137,31.396946000000003,-3.0076337000000004,2019-08-05 14:07:47,0.0
187.0,0.032226562,-0.11529541,0.0020141602,-52.053436,44.801525,-3.1526718,2019-08-05 14:07:47,0.0
188.0,0.038146973,-0.12725830000000002,-0.012023926,-24.93893,57.267174,1.5496184,2019-08-05 14:07:47,0.0
189.0,0.032409668,-0.124572754,0.0020751953,-59.22900799999999,53.83969499999999,10.358779,2019-08-05 14:07:47,0.0
190.0,0.026733398,-0.13677979,-0.011413574,-73.89313,55.603054,9.2213745,2019-08-05 14:07:47,0.0
191.0,0.0368042,-0.14221191,-0.050720215,3.480916000000001,31.770992,-11.091603,2019-08-05 14:07:47,0.0
192.0,0.010437012,-0.16278076,-0.006164551,61.633587,27.519083,4.1755724,2019-08-05 14:07:47,0.0
193.0,0.008361816,-0.16851807,0.002380371,75.061066,9.305344,-11.763359,2019-08-05 14:07:47,0.0
194.0,-0.0015869141,-0.14672852,0.013122559,42.885498,-8.664123,-28.015266,2019-08-05 14:07:47,0.0
195.0,0.027038574,-0.13854979999999995,0.011169434,44.59542,-8.290076,-15.145039,2019-08-05 14:07:47,0.0
196.0,0.022277832,-0.14044189999999998,0.007873535,40.328243,-0.73282444,3.0152671000000004,2019-08-05 14:07:47,0.0
197.0,0.012023926,-0.1295166,0.009338379,29.854961,7.0229006,4.0458016,2019-08-05 14:07:47,0.0
198.0,0.020568848,-0.11425781,0.006164551,28.70229,13.068703,5.8244276,2019-08-05 14:07:47,0.0
199.0,0.012207031,-0.09631348,0.011230469,34.801525,18.76336,1.6793894,2019-08-05 14:07:47,0.0
200.0,0.016784668,-0.095825195,0.014404297,32.664124,15.5801525,-5.740458,2019-08-05 14:07:47,0.0
201.0,0.025939941,-0.087768555,0.010864258,11.801527,17.908398000000005,-7.2671757,2019-08-05 14:07:47,0.0
202.0,0.022277832,-0.07788086,0.015197754,15.694656,12.297709,-7.1679387000000006,2019-08-05 14:07:47,0.0
203.0,0.02545166,-0.101501465,0.014160156,10.847328,12.4198475,-11.343512,2019-08-05 14:07:47,0.0
204.0,0.034973145,-0.12322998,0.024719238,-43.717556,15.335876999999998,-17.458015,2019-08-05 14:07:47,0.0
205.0,0.040771484,-0.11016846,0.0146484375,-58.0229,8.122137,-17.526718,2019-08-05 14:07:47,0.0
206.0,0.04748535,-0.11828613,0.008117675999999999,-1.4045801000000002,-1.2671756,-20.877863,2019-08-05 14:07:47,0.0
207.0,0.052001953,-0.1281128,0.0043945312,14.053435,-7.4503818,-31.89313,2019-08-05 14:07:47,0.0
208.0,0.052001953,-0.15893555,0.0119018555,-33.076336,-10.832061,-17.320610000000002,2019-08-05 14:07:48,0.0
209.0,0.05340576,-0.1161499,0.0015869141,-91.35114,-7.740458,-13.526717,2019-08-05 14:07:48,0.0
210.0,0.034179688,-0.12322998,-0.006225586,-38.9771,-28.946566,-18.778625,2019-08-05 14:07:48,0.0
211.0,0.016540527,-0.124938965,-0.009399414,-39.923664,-34.809162,-25.549618,2019-08-05 14:07:48,0.0
212.0,0.070373535,-0.13897705,-0.0004272461,-25.450382,-25.824427,-21.648855,2019-08-05 14:07:48,0.0
213.0,0.06921387,-0.15832520000000005,0.0025024414000000004,-38.625954,-49.816795,-0.39694658,2019-08-05 14:07:48,0.0
214.0,0.041259766,-0.14990234,-0.012878418,-18.32061,-61.76336,16.022902,2019-08-05 14:07:48,0.0
215.0,0.042297363,-0.13421631,0.0007324219,9.946565,-44.053436,16.816793,2019-08-05 14:07:48,0.0
216.0,0.05908203,-0.12628174,0.004638672,6.3435115999999985,-54.20611,14.610687,2019-08-05 14:07:48,0.0
217.0,0.044128418,-0.13067627,0.006042480500000001,20.183207,-54.748093,20.366413,2019-08-05 14:07:48,0.0
218.0,0.021057129,-0.10522461,-0.0018310547,30.770992,-56.40458,13.038168,2019-08-05 14:07:48,0.0
219.0,0.011779785,-0.09503174,0.0021972656,16.244274,-48.44275,7.961832000000001,2019-08-05 14:07:48,0.0
220.0,0.024658203,-0.09375,0.009887695,-11.541985,-40.85496,1.389313,2019-08-05 14:07:48,0.0
221.0,0.02154541,-0.09118652,0.0020141602,-29.832062,-36.0229,0.8091603,2019-08-05 14:07:48,0.0
222.0,0.024047852,-0.08374023400000001,-0.0068969727,-15.122137,-25.603054,2.5801528,2019-08-05 14:07:48,0.0
223.0,0.028747559,-0.08654785,-0.008850098,10.045801,-15.702291,-1.3587786,2019-08-05 14:07:48,0.0
224.0,0.028625488,-0.11651611,0.0,5.6183205,-6.3282440000000015,-5.961832,2019-08-05 14:07:48,0.0
225.0,0.026855469,-0.11450195,-0.005493164,-14.160305,0.57251906,-9.473283,2019-08-05 14:07:48,0.0
226.0,0.035705566,-0.10235596,-0.006591797,-15.557251999999998,8.946565,-11.793893,2019-08-05 14:07:48,0.0
227.0,0.040893555,-0.12762451,-0.009216309,-33.541985,5.091603299999999,-8.412213000000001,2019-08-05 14:07:48,0.0
228.0,0.03387451,-0.11602783,-0.020385742,-36.12214,15.549619,-1.9847329,2019-08-05 14:07:48,0.0
229.0,0.03363037,-0.13391113,-0.014953613,-23.022902,12.076336,-1.8167939,2019-08-05 14:07:48,0.0
230.0,0.038391113,-0.14147949,-0.018493652,-69.21374,17.633587,4.1374044,2019-08-05 14:07:48,0.0
231.0,0.06402588,-0.17260742,-0.050842285,-116.96183,-2.4580152,16.931297,2019-08-05 14:07:48,0.0
232.0,-0.0072021484,-0.15240479,-0.09075928,-2.8091602000000004,5.6488547,22.664122,2019-08-05 14:07:48,0.0
233.0,0.0049438477,-0.16809082,-0.04144287,32.801525,34.44275,5.2671757,2019-08-05 14:07:48,0.0
234.0,0.007019043000000001,-0.14270020000000005,-0.005859375,-63.83206,47.17557,0.6335878,2019-08-05 14:07:48,0.0
235.0,0.041015625,-0.09454346,-0.010925293,-63.984734,55.129772,11.061069,2019-08-05 14:07:48,0.0
236.0,0.023010254,-0.112976074,-0.0048217773,33.610687,-10.488549,33.46565,2019-08-05 14:07:48,0.0
237.0,0.0017700195,-0.101135254,-0.02557373,42.603054,23.687023,28.419847,2019-08-05 14:07:48,0.0
238.0,0.017456055,-0.100097656,-0.035095215,87.03053,27.068703000000006,19.778625,2019-08-05 14:07:48,0.0
239.0,0.016906738,-0.113220215,-0.01550293,72.94655999999998,24.725191,13.083969,2019-08-05 14:07:48,0.0
240.0,0.015380858999999997,-0.10949707,-0.022583008,-1.70229,22.549618,4.7022900000000005,2019-08-05 14:07:48,0.0
241.0,0.018920898,-0.07751465,-0.021728516,-12.938931,39.580154,0.3740458,2019-08-05 14:07:48,0.0
242.0,0.024536133,-0.092041016,-0.020324707,3.8396947,16.030535,-6.6488547,2019-08-05 14:07:48,0.0
243.0,0.020324707,-0.08807373,-0.022094727,-33.450382,19.687023,-9.847328,2019-08-05 14:07:49,0.0
244.0,0.033203125,-0.08087158,-0.027770996000000003,-36.34351,15.870229,-13.641221,2019-08-05 14:07:49,0.0
245.0,0.037963867000000005,-0.07928467,-0.027832031,-8.679389,-6.2900763,-10.229008,2019-08-05 14:07:49,0.0
246.0,0.034179688,-0.07922363,-0.026000977,26.0,-16.167938,-8.9007635,2019-08-05 14:07:49,0.0
247.0,0.04888916,-0.092041016,-0.020996094,56.312977,-28.969465000000003,0.96183205,2019-08-05 14:07:49,0.0
248.0,0.036865234,-0.10583496,-0.0146484375,70.71755999999998,-28.343512,10.748092,2019-08-05 14:07:49,0.0
249.0,0.038269043,-0.10638428,-0.012573242,51.267174,-23.51145,15.282443,2019-08-05 14:07:49,0.0
250.0,0.05505371,-0.13238525,-0.019714355,2.8473282,0.5496183000000001,44.267174,2019-08-05 14:07:49,0.0
251.0,0.034240723,-0.19567871,-0.0044555664,-30.91603,-77.60305,94.16794,2019-08-05 14:07:49,0.0
252.0,0.0014648438,-0.19580078,-0.018920898,-121.25191,-73.74045600000002,72.71755999999998,2019-08-05 14:07:49,0.0
253.0,-0.004699707,-0.20892334,-0.0037231445,-54.46565,-78.67939,87.03817,2019-08-05 14:07:49,0.0
254.0,0.0115356445,-0.23358154,-0.0045166016,-190.33588,-66.20611,77.45038000000002,2019-08-05 14:07:49,0.0
255.0,0.02758789,-0.09564209,0.013366699,-250.1374,-86.778625,18.534351,2019-08-05 14:07:49,0.0
256.0,6.1035156e-05,-0.070251465,-0.050354004,92.38931,-138.50381000000002,20.656488,2019-08-05 14:07:49,0.0
257.0,-0.014770508,-0.21643066,0.020629883,20.274809,-183.54199,21.076336,2019-08-05 14:07:49,0.0
258.0,-0.040039062,-0.1451416,-0.039001465,-202.77863,-75.25954399999998,-27.687023,2019-08-05 14:07:49,0.0
259.0,-0.009765625,-0.07141113,-0.05102539,-102.824425,-82.51908,-49.839695,2019-08-05 14:07:49,0.0
260.0,-0.05053711,-0.036315918,-0.10913086,48.839695,-33.984734,-31.274809,2019-08-05 14:07:49,0.0
261.0,0.008300781,-0.10888672,-0.030029297000000007,28.549618,-15.129771,-40.67939000000001,2019-08-05 14:07:49,0.0
262.0,0.007751465,-0.10107422,-0.035339355,-111.51908,-12.801527,-38.183205,2019-08-05 14:07:49,0.0
263.0,0.026855469,-0.095947266,-0.04827881,-55.57251700000001,-6.6412215,-55.809162,2019-08-05 14:07:49,0.0
264.0,-0.003112793,-0.07879639,-0.06335449,-11.38168,1.7480916000000002,-65.99235999999999,2019-08-05 14:07:49,0.0
265.0,-0.0014038086,-0.09338379,-0.04547119,-8.435115,-6.603053599999999,-54.37404599999999,2019-08-05 14:07:49,0.0
266.0,-0.017822266,-0.068481445,-0.05102539,-16.809160000000002,-16.648854999999998,-28.786259,2019-08-05 14:07:49,0.0
267.0,-0.029846191,-0.035705566,-0.050354004,73.29771,-14.954199,-13.496182999999998,2019-08-05 14:07:49,0.0
268.0,-0.02178955,-0.11413574,-0.053955078,96.47328,-0.22900763,12.59542,2019-08-05 14:07:49,0.0
269.0,-0.013122559,-0.14050293,-0.07714844,81.19847,-13.488549,61.312977,2019-08-05 14:07:49,0.0
270.0,-0.05041504,-0.07977295,-0.08441162,-8.648855000000001,12.137404,100.47328,2019-08-05 14:07:49,0.0
271.0,-0.07989502,-0.08276367,-0.05419922,40.900764,1.9694656000000004,96.01527,2019-08-05 14:07:49,0.0
272.0,-0.06781006,-0.085998535,-0.07971191400000001,40.16794,25.312977,107.71756,2019-08-05 14:07:49,0.0
273.0,-0.079589844,-0.08648682,-0.06689453,87.67939,29.74809,134.44275,2019-08-05 14:07:49,0.0
274.0,-0.08544922,-0.08294678,-0.049194336,94.20611,46.76336,148.33588,2019-08-05 14:07:49,0.0
275.0,-0.070373535,-0.07788086,-0.028198242,61.335876,68.80915999999999,148.77100000000004,2019-08-05 14:07:49,0.0
276.0,-0.06616211,-0.081970215,-0.041503906,49.89313,68.32061,152.09923999999995,2019-08-05 14:07:49,0.0
277.0,-0.05871582,-0.06414795,-0.04168701,33.541985,72.62595,150.92366,2019-08-05 14:07:49,0.0
278.0,-0.06933594,-0.078308105,-0.030639648,27.08397,63.83969499999999,148.51144,2019-08-05 14:07:49,0.0
279.0,-0.07421875,-0.07385254,-0.028625488,29.778625,57.480915,144.60306,2019-08-05 14:07:50,0.0
280.0,-0.07464599599999999,-0.07232666,-0.03503418,17.908398000000005,49.038166,138.92366,2019-08-05 14:07:50,0.0
281.0,-0.07757568,-0.071777344,-0.038330078,11.717557,29.335878000000005,143.47328000000005,2019-08-05 14:07:50,0.0
282.0,-0.08435058599999999,-0.08178711,-0.022094727,21.435114,13.305344,140.81679,2019-08-05 14:07:50,0.0
283.0,-0.098083496,-0.07757568,-0.03302002,37.549618,-1.4274809,131.54199,2019-08-05 14:07:50,0.0
284.0,-0.11065674,-0.09075928,-0.030700684,38.687023,-20.244274,129.01527,2019-08-05 14:07:50,0.0
285.0,-0.12756348,-0.09008789,-0.020080566,12.5801525,-33.038166,118.12214,2019-08-05 14:07:50,0.0
286.0,-0.124938965,-0.09313965,-0.020202637,13.526717,-41.46565,108.28244,2019-08-05 14:07:50,0.0
287.0,-0.1449585,-0.0925293,-0.020935059,34.53435,-53.62595400000001,88.35878000000002,2019-08-05 14:07:50,0.0
288.0,-0.1685791,-0.10253906,-0.018371582,19.053434,-53.37404599999999,79.03817,2019-08-05 14:07:50,0.0
289.0,-0.17956543,-0.107788086,-0.020812988,17.923664000000006,-51.114502,77.03817,2019-08-05 14:07:50,0.0
290.0,-0.15484619,-0.09692383,-0.020141602,11.198473,-43.030533,69.71755999999999,2019-08-05 14:07:50,0.0
291.0,-0.16015625,-0.076660156,-0.0015258789,15.038168,-47.091602,62.48855,2019-08-05 14:07:50,0.0
292.0,-0.15148926,-0.07678223,-0.01171875,-0.35114503,-37.44275,59.366413,2019-08-05 14:07:50,0.0
293.0,-0.10522461,-0.06036377,-0.013671875,-22.450382,-29.526718,45.709923,2019-08-05 14:07:50,0.0
294.0,-0.08862305,-0.052856445,-0.013793945,-34.946564,-26.435114,23.175573,2019-08-05 14:07:50,0.0
295.0,-0.07904053,-0.041809082,-0.018859863,-51.93893,-26.603054,1.2137405,2019-08-05 14:07:50,0.0
296.0,-0.08306885,-0.046020508,-0.020751953,-56.77099200000001,-23.229008,-21.328245000000006,2019-08-05 14:07:50,0.0
297.0,-0.074157715,-0.037353516,-0.006286621,-52.549618,-19.580153,-37.335876,2019-08-05 14:07:50,0.0
298.0,-0.07312012,-0.02355957,-0.0036621094,-53.633587,-6.4198475,-43.732826,2019-08-05 14:07:50,0.0
299.0,-0.08813476599999999,-0.023742676,-0.0025634766,-39.541985,2.0610688,-50.458015,2019-08-05 14:07:50,0.0
300.0,-0.08679199,-0.030700684,-0.006958008000000001,-41.709923,6.221374,-52.17557,2019-08-05 14:07:50,0.0
301.0,-0.09527588,-0.022888184,0.004760742,-45.900764,13.2213745,-45.755726,2019-08-05 14:07:50,0.0
302.0,-0.13250732,-0.029785156,-0.0014038086,-39.16794,17.389313,-32.160305,2019-08-05 14:07:50,0.0
303.0,-0.14129639,-0.028076172000000003,0.0020751953,-27.06107,23.839695000000006,-20.137405,2019-08-05 14:07:50,0.0
304.0,-0.14428711,-0.026794434,-0.008666992,-15.0992365,29.396946000000003,-11.061069,2019-08-05 14:07:50,0.0
305.0,-0.12908936,-0.015808105,-0.020629883,-15.603053,32.229008,-12.465649,2019-08-05 14:07:50,0.0
306.0,-0.20080566,-0.024963379,0.008605957,18.984734,9.625955,4.068702,2019-08-05 14:07:50,0.0
307.0,-0.18945312,-0.029846191,-0.007568359399999999,25.961832,27.717558,10.038168,2019-08-05 14:07:50,0.0
308.0,-0.14733887,-0.029174805,-0.02734375,36.21374,17.969465,11.2595415,2019-08-05 14:07:50,0.0
309.0,-0.17028809,-0.02557373,-0.0065307617,43.091602,-3.3816793,9.4198475,2019-08-05 14:07:50,0.0
310.0,-0.159729,-0.022521973,-0.009521484,23.732824,-2.9541984,5.9160304,2019-08-05 14:07:50,0.0
311.0,-0.11248779,-0.028686523,-0.022766113,22.603054,-5.0305343,2.1221373,2019-08-05 14:07:50,0.0
312.0,-0.09039307,-0.02368164,-0.0107421875,4.7709923,-3.778626,-2.442748,2019-08-05 14:07:50,0.0
313.0,-0.07733154,-0.015258788999999997,-0.0068359375,11.335877,-8.839694999999997,-4.3435115999999985,2019-08-05 14:07:50,0.0
314.0,-0.08093262,-0.02368164,-0.013916016000000002,5.4885497,-8.007633,1.0534351,2019-08-05 14:07:50,0.0
315.0,-0.07189941400000001,-0.024780273,-0.010925293,-8.572519,-11.503817,6.3893127,2019-08-05 14:07:51,0.0
316.0,-0.07421875,-0.015136719,-0.014465332,-12.244275,-10.61832,8.755725,2019-08-05 14:07:51,0.0
317.0,-0.0703125,-0.025878906,-0.013366699,-5.4503818,-14.877863,9.954199,2019-08-05 14:07:51,0.0
318.0,-0.093322754,-0.021850586,-0.006042480500000001,-14.770992,-15.572519,13.19084,2019-08-05 14:07:51,0.0
319.0,-0.09887695,-0.018859863,-0.013671875,-8.068703,-20.480917,21.068703,2019-08-05 14:07:51,0.0
320.0,-0.1260376,-0.039978027,-0.010437012,-5.145038,-24.229008,27.740458,2019-08-05 14:07:51,0.0
321.0,-0.13781738,-0.03741455,-0.006652831999999999,-8.816792999999997,-26.183207,28.06107,2019-08-05 14:07:51,0.0
322.0,-0.14538574,-0.031433105,-0.007446289,-7.541984599999998,-27.282442,22.12977,2019-08-05 14:07:51,0.0
323.0,-0.21154785,-0.04425049,0.0028076172,18.114504,-41.648853,29.0,2019-08-05 14:07:51,0.0
324.0,-0.23059082,-0.048950195,-0.014160156,-4.6412215,-16.229008,35.10687,2019-08-05 14:07:51,0.0
325.0,-0.16412354,-0.06420898400000001,-0.004272461,-9.038168,-0.122137405,24.022902,2019-08-05 14:07:51,0.0
326.0,-0.16326904,-0.046081543,0.010559082,-23.267176,-4.9465647000000015,1.9847329,2019-08-05 14:07:51,0.0
327.0,-0.14648438,-0.03149414,-0.0006713867,-59.923664,0.053435113,-15.236641,2019-08-05 14:07:51,0.0
328.0,-0.1104126,-0.027770996000000003,-0.012084961000000002,-67.53435,2.961832,-31.603054,2019-08-05 14:07:51,0.0
329.0,-0.08734131,-0.034729004,-0.004211426,-83.98473,7.603053599999999,-37.83206,2019-08-05 14:07:51,0.0
330.0,-0.07965088,-0.02911377,-0.00018310547,-75.33588,5.587786,-45.053436,2019-08-05 14:07:51,0.0
331.0,-0.07519531,-0.022033691,-0.0036010742,-78.52672,10.328244,-47.67939000000001,2019-08-05 14:07:51,0.0
332.0,-0.07220459,-0.01763916,0.004699707,-67.52672,14.725191,-49.137405,2019-08-05 14:07:51,0.0
333.0,-0.07006836,-0.029968262,0.004638672,-77.74809,22.603054,-55.14504,2019-08-05 14:07:51,0.0
334.0,-0.08105469,-0.030456543,0.007446289,-80.862595,21.885496,-49.91603,2019-08-05 14:07:51,0.0
335.0,-0.104003906,-0.020385742,0.011352538999999998,-76.8855,28.61832,-47.38168,2019-08-05 14:07:51,0.0
336.0,-0.107910156,-0.018554688,0.005737304699999999,-66.54961999999999,33.305344,-42.87786,2019-08-05 14:07:51,0.0
337.0,-0.12695312,-0.02319336,0.009521484,-59.221375,36.14504,-31.358778000000004,2019-08-05 14:07:51,0.0
338.0,-0.14935303,-0.020263672,0.012207031,-24.206106,35.076336,-14.755725,2019-08-05 14:07:51,0.0
339.0,-0.16455078,-0.026367188,0.0119018555,14.526717,35.816795,-5.5801525000000005,2019-08-05 14:07:51,0.0
340.0,-0.16101074,-0.028503418,0.0053100586,33.55725,32.412212,6.9465647,2019-08-05 14:07:51,0.0
341.0,-0.14788818,-0.025268555,0.0012207031,38.648853,23.473282,14.931297,2019-08-05 14:07:51,0.0
342.0,-0.17303467,-0.022033691,0.0056152344,63.923664,4.1679387000000006,30.030535,2019-08-05 14:07:51,0.0
343.0,-0.16778564,-0.022460938,0.0012817383,70.56489,1.1221374,38.015266,2019-08-05 14:07:51,0.0
344.0,-0.12615967,-0.033935547,-0.010803223,76.21374,-3.59542,39.67939000000001,2019-08-05 14:07:51,0.0
345.0,-0.093811035,-0.02960205,-0.022766113,63.62595400000001,-13.137404,32.038166,2019-08-05 14:07:51,0.0
346.0,-0.10192871,-0.0178833,-0.022460938,51.78626,-24.244274,24.145039,2019-08-05 14:07:51,0.0
347.0,-0.11187744,-0.018737793,-0.0178833,46.190838,-30.389313,19.89313,2019-08-05 14:07:51,0.0
348.0,-0.11462402,-0.023925781,-0.018188477,22.519083,-20.312977,17.442749,2019-08-05 14:07:51,0.0
349.0,-0.09112549,-0.028930664,-0.013122559,22.57252,-15.076335999999998,13.656488,2019-08-05 14:07:52,0.0
350.0,-0.07574463,-0.007385254,0.0006713867,-4.396946400000001,-20.473282,28.61832,2019-08-05 14:07:52,0.0
351.0,-0.07989502,-0.01928711,-0.014770508,17.977098,-23.687023,28.221375,2019-08-05 14:07:52,0.0
352.0,-0.094055176,-0.022277832,-0.015380858999999997,-0.15267175,-18.229008,28.19084,2019-08-05 14:07:52,0.0
353.0,-0.09643555,-0.022094727,-0.008544922,12.282443,-24.801527,35.038166,2019-08-05 14:07:52,0.0
354.0,-0.113586426,-0.027526855,-0.015014648,15.076335999999998,-18.664122,38.625954,2019-08-05 14:07:52,0.0
355.0,-0.11621094,-0.021240234,-0.0134887695,19.587786,-22.122137,40.89313,2019-08-05 14:07:52,0.0
356.0,-0.119384766,-0.021362305,-0.022521973,13.335876999999998,-21.755726,41.305344,2019-08-05 14:07:52,0.0
357.0,-0.12005615,-0.015197754,-0.025756836,6.8015265,-29.351145,40.0229,2019-08-05 14:07:52,0.0
358.0,-0.13415527,-0.018005371000000003,-0.018249512,3.0839694,-29.259542,36.099236,2019-08-05 14:07:52,0.0
359.0,-0.14880371,-0.019897461,-0.016784668,8.557252,-25.70229,29.328245000000006,2019-08-05 14:07:52,0.0
360.0,-0.15338135,-0.028137207,-0.016540527,12.236641,-16.625954,25.091602,2019-08-05 14:07:52,0.0
361.0,-0.14733887,-0.016784668,-0.0107421875,12.374045,-9.916031,15.282443,2019-08-05 14:07:52,0.0
362.0,-0.1437378,-0.026306152000000003,-0.005676269499999999,10.145039,-14.717557,11.068703,2019-08-05 14:07:52,0.0
363.0,-0.17468262,-0.03527832,-0.009460449,-3.9923663,-16.89313,12.083969,2019-08-05 14:07:52,0.0
364.0,-0.18109131,-0.045288086,-0.014221191,-7.2061066999999985,-3.2519083,11.473283,2019-08-05 14:07:52,0.0
365.0,-0.109191895,-0.040771484,-0.018005371000000003,-26.42748,17.961832,-3.29771,2019-08-05 14:07:52,0.0
366.0,-0.09686279,-0.03161621,-0.0031738281,-31.824427000000004,12.206107,-20.534351,2019-08-05 14:07:52,0.0
367.0,-0.13903809,-0.024536133,-0.008972168,-42.625954,13.763359,-36.770992,2019-08-05 14:07:52,0.0
368.0,-0.13885498,-0.016357422,0.003967285,-39.49618,25.664122,-48.49618,2019-08-05 14:07:52,0.0
369.0,-0.11047363,-0.028320312,0.009460449,-48.099236,35.564884,-63.53435,2019-08-05 14:07:52,0.0
370.0,-0.10662842,-0.02532959,0.0043945312,-62.32061,34.78626,-76.48855,2019-08-05 14:07:52,0.0
371.0,-0.10723877,-0.009460449,-0.0018920898,-63.801525,32.427483,-81.48855,2019-08-05 14:07:52,0.0
372.0,-0.12200928,-0.012268066,0.0009765625,-58.16794,37.52672000000001,-80.75572,2019-08-05 14:07:52,0.0
373.0,-0.111694336,-0.020202637,0.001953125,-39.51145,43.72519000000001,-75.37405,2019-08-05 14:07:52,0.0
374.0,-0.111206055,-0.024841309,0.0028076172,-27.06107,47.53435,-71.89313,2019-08-05 14:07:52,0.0
375.0,-0.11383057,-0.01977539,0.0095825195,-19.0,46.007633,-65.43511,2019-08-05 14:07:52,0.0
376.0,-0.113342285,-0.024780273,0.0032348633000000003,-6.0076337,38.183205,-53.84733000000001,2019-08-05 14:07:52,0.0
377.0,-0.11999512,-0.006958008000000001,0.0034179688,2.5954200000000003,34.328243,-41.748093,2019-08-05 14:07:52,0.0
378.0,-0.11480713,-0.022338867,0.0040893555,16.984734,29.12977,-21.931297,2019-08-05 14:07:52,0.0
379.0,-0.13867188,-0.025024414,0.008850098,27.648855,20.007633,-3.3053436,2019-08-05 14:07:52,0.0
380.0,-0.13885498,-0.016784668,0.0051879883,31.175573,13.396947,9.312977,2019-08-05 14:07:52,0.0
381.0,-0.13745117,-0.019042969,-0.0014038086,33.84733,5.0992365,19.496183,2019-08-05 14:07:52,0.0
382.0,-0.16333008,-0.014038086000000002,0.0026855469,48.51145,-3.351145,37.251907,2019-08-05 14:07:52,0.0
383.0,-0.17016602,-0.015808105,0.0053100586,42.984734,-4.1221375,47.21374,2019-08-05 14:07:52,0.0
384.0,-0.11791992,-0.019104004,-0.011779785,45.885498,-3.1068702,40.93893,2019-08-05 14:07:52,0.0
385.0,-0.095336914,-0.0068359375,-0.021057129,50.480915,-15.251907999999998,32.251907,2019-08-05 14:07:52,0.0
386.0,-0.11230469,-0.008666992,-0.020812988,37.49618,-22.229008,23.549618,2019-08-05 14:07:53,0.0
387.0,-0.11730957,-0.014343262,-0.01159668,23.74809,-21.51145,19.595419,2019-08-05 14:07:53,0.0
388.0,-0.10827637,-0.005859375,-0.010803223,4.3511453,-15.351145,23.595419,2019-08-05 14:07:53,0.0
389.0,-0.09222412,-0.011291504,-0.019958496000000003,14.671756,-14.954199,29.10687,2019-08-05 14:07:53,0.0
390.0,-0.08123779,-0.013061523,-0.018798828,27.89313,-15.007632999999998,36.984734,2019-08-05 14:07:53,0.0
391.0,-0.09277344,-0.0178833,-0.014831543,31.519083,-19.038168,45.9771,2019-08-05 14:07:53,0.0
392.0,-0.107299805,-0.022766113,-0.013793945,23.709923,-19.022902,54.885498,2019-08-05 14:07:53,0.0
393.0,-0.11071777,-0.026306152000000003,-0.0126953125,22.137405,-15.854961,61.46565,2019-08-05 14:07:53,0.0
394.0,-0.11260986,-0.024414062,-0.01574707,24.534351,-17.038168,66.53435,2019-08-05 14:07:53,0.0
395.0,-0.11090088,-0.02355957,-0.026367188,18.625954,-21.12977,67.27481,2019-08-05 14:07:53,0.0
396.0,-0.120910645,-0.022399902000000003,-0.021728516,13.801526999999998,-24.496183,66.83969,2019-08-05 14:07:53,0.0
397.0,-0.13513184,-0.027404785,-0.019470215,4.6106873,-26.641222,60.27481,2019-08-05 14:07:53,0.0
398.0,-0.15063477,-0.024108887,-0.020874023,3.961832,-26.015266,55.610687,2019-08-05 14:07:53,0.0
399.0,-0.16119385,-0.029663086,-0.01586914,6.8015265,-23.656488,50.25954,2019-08-05 14:07:53,0.0
400.0,-0.1459961,-0.02947998,-0.010559082,-1.1450381,-17.183207,36.61832,2019-08-05 14:07:53,0.0
401.0,-0.13366699,-0.036254883,-0.012390137,-0.3816794000000001,-21.89313,23.74809,2019-08-05 14:07:53,0.0
402.0,-0.18328857,-0.022460938,-0.013061523,-7.1221375,-17.412214000000002,19.206106,2019-08-05 14:07:53,0.0
403.0,-0.19390869,-0.029785156,-0.015563965,3.1145039,-5.526717700000002,6.664122,2019-08-05 14:07:53,0.0
404.0,-0.112976074,-0.036743164,-0.0053710938,-9.801527,19.23664,-17.12977,2019-08-05 14:07:53,0.0
405.0,-0.08996582,-0.024291992,-0.016113281,-30.38168,15.198473000000002,-42.809162,2019-08-05 14:07:53,0.0
406.0,-0.12463379,-0.009277344,-0.012939453,-32.51145,18.183207,-59.916030000000006,2019-08-05 14:07:53,0.0
407.0,-0.1281128,-0.016784668,0.004028320300000001,-21.404581,28.931297,-73.74809,2019-08-05 14:07:53,0.0
408.0,-0.114990234,-0.022033691,0.006225586,-18.946566,38.885498,-83.64886,2019-08-05 14:07:53,0.0
409.0,-0.118774414,-0.014953613,0.005065918,-23.610687,43.480915,-89.61069,2019-08-05 14:07:53,0.0
410.0,-0.12402344,-0.007629394499999998,0.0072631836,-18.435114,47.85496,-90.61069,2019-08-05 14:07:53,0.0
411.0,-0.13549805,-0.015808105,0.0049438477,-14.351145,50.809162,-94.32061,2019-08-05 14:07:53,0.0
412.0,-0.11407471,-0.020080566,0.0017700195,-18.580153,48.694656,-98.0,2019-08-05 14:07:53,0.0
413.0,-0.11608887,-0.013366699,0.0037231445,-10.503817,47.694656,-96.64122,2019-08-05 14:07:53,0.0
414.0,-0.12182617,-0.016479492,0.0068359375,0.5038168,43.15267,-95.19084,2019-08-05 14:07:53,0.0
415.0,-0.118896484,-0.011352538999999998,0.002746582,-0.6183206,39.25954,-86.48855,2019-08-05 14:07:53,0.0
416.0,-0.11456299,-0.02319336,0.0022583008,4.7938933,33.076336,-68.10687,2019-08-05 14:07:53,0.0
417.0,-0.11920166,-0.018676758,0.0034790040000000004,3.7557251,26.839695000000006,-48.549618,2019-08-05 14:07:53,0.0
418.0,-0.11706543,-0.022216797000000003,0.0052490234,17.793894,18.351145,-29.931297,2019-08-05 14:07:53,0.0
419.0,-0.13684082,-0.019470215,0.008239746,24.67939,12.465649,-10.19084,2019-08-05 14:07:53,0.0
420.0,-0.13604736,-0.021118164,-0.0018920898,22.51145,6.9541984,8.175572,2019-08-05 14:07:53,0.0
421.0,-0.1687622,-0.016784668,-0.009094238,39.450382,3.1526718,31.167938,2019-08-05 14:07:53,0.0
422.0,-0.17608643,-0.021240234,0.006652831999999999,27.541985,10.305344,49.40458,2019-08-05 14:07:54,0.0
423.0,-0.13061523,-0.028625488,-0.007080078,12.007633,6.7709923,51.389313,2019-08-05 14:07:54,0.0
424.0,-0.08264160000000001,-0.011413574,-0.02532959,13.938931,-6.0610685,44.20611,2019-08-05 14:07:54,0.0
425.0,-0.09906006,-0.007080078,-0.014038086000000002,19.435114,-26.022902,42.221375,2019-08-05 14:07:54,0.0
426.0,-0.11291504,-0.00982666,-0.015136719,-3.7557251,-30.259542,39.64122,2019-08-05 14:07:54,0.0
427.0,-0.11871338,-0.024963379,-0.0032958984000000004,-13.389313,-30.778625,47.52672000000001,2019-08-05 14:07:54,0.0
428.0,-0.105163574,-0.022521973,-0.014953613,-20.656488,-26.412214,52.20611,2019-08-05 14:07:54,0.0
429.0,-0.091308594,-0.019897461,-0.011657715,-11.984733,-27.931297,61.46565,2019-08-05 14:07:54,0.0
430.0,-0.09399414,-0.018066406,-0.01373291,-3.053435,-30.961832,67.35878000000001,2019-08-05 14:07:54,0.0
431.0,-0.10211182,-0.023620605,-0.016174316,-2.7862597,-30.671755,71.381676,2019-08-05 14:07:54,0.0
432.0,-0.1116333,-0.025268555,-0.022827148,1.6335878,-30.442749,75.07633,2019-08-05 14:07:54,0.0
433.0,-0.12097168,-0.022216797000000003,-0.0087890625,8.709924,-29.267176,75.43511,2019-08-05 14:07:54,0.0
434.0,-0.12817383,-0.018005371000000003,-0.016967773000000002,15.7404585,-30.282442,73.8855,2019-08-05 14:07:54,0.0
435.0,-0.12585449,-0.022338867,-0.022766113,16.152672,-29.412214,66.38931,2019-08-05 14:07:54,0.0
436.0,-0.13110352,-0.025024414,-0.020202637,19.717558,-30.770992,56.885498,2019-08-05 14:07:54,0.0
437.0,-0.13433838,-0.025817871000000003,-0.022094727,10.503817,-29.961832,46.587788,2019-08-05 14:07:54,0.0
438.0,-0.16137695,-0.03149414,-0.013793945,17.08397,-26.099237,37.06107,2019-08-05 14:07:54,0.0
439.0,-0.14984131,-0.02960205,-0.018615723,17.290077,-17.923664000000006,23.671755,2019-08-05 14:07:54,0.0
440.0,-0.13391113,-0.022583008,-0.015258788999999997,7.2519083,-13.938931,15.412213,2019-08-05 14:07:54,0.0
441.0,-0.16693115,-0.020812988,-0.012451172,5.0839696,-18.519083,5.7022900000000005,2019-08-05 14:07:54,0.0
442.0,-0.18017578,-0.028747559,-0.01940918,-5.9465647000000015,-6.7938933000000015,-5.8702292,2019-08-05 14:07:54,0.0
443.0,-0.13183594,-0.021911621000000003,-0.0107421875,-9.587787,19.12977,-21.198473,2019-08-05 14:07:54,0.0
444.0,-0.11267089999999998,-0.02545166,-0.006042480500000001,-26.877863,24.099237,-38.14504,2019-08-05 14:07:54,0.0
445.0,-0.14721679999999998,-0.013366699,-0.0028686523,-26.099237,26.42748,-55.015266,2019-08-05 14:07:54,0.0
446.0,-0.16375732,-0.01739502,0.0030517578000000003,-21.267176,39.06107,-64.56489,2019-08-05 14:07:54,0.0
447.0,-0.13580322,-0.027038574,6.1035156e-05,-19.206106,55.83206,-80.37405,2019-08-05 14:07:54,0.0
448.0,-0.107666016,-0.015258788999999997,-0.004638672,-30.12977,56.67175699999999,-93.91603,2019-08-05 14:07:54,0.0
449.0,-0.10430908,-0.007507324,-0.006652831999999999,-22.10687,49.587788,-103.25191,2019-08-05 14:07:54,0.0
450.0,-0.112854004,-0.0048828125,0.0022583008,-11.564885,52.0,-112.740456,2019-08-05 14:07:54,0.0
451.0,-0.12298584,-0.010620117,0.004638672,-6.9541984,55.045803,-113.854965,2019-08-05 14:07:54,0.0
452.0,-0.11920166,-0.022521973,0.00390625,-2.5114503,58.16030500000001,-109.43511,2019-08-05 14:07:54,0.0
453.0,-0.13189697,-0.024597168,0.005126953,-4.0458016,58.312977,-97.938934,2019-08-05 14:07:54,0.0
454.0,-0.11657715,-0.012084961000000002,0.008911133,6.7709923,54.045803,-82.37405,2019-08-05 14:07:54,0.0
455.0,-0.113220215,-0.024230957,0.002746582,22.167938,52.34351,-68.458015,2019-08-05 14:07:54,0.0
456.0,-0.10882568,-0.027893066,0.0107421875,36.137405,49.251907,-49.78626,2019-08-05 14:07:54,0.0
457.0,-0.123413086,-0.024780273,0.012878418,52.007633,42.47328,-24.732824,2019-08-05 14:07:54,0.0
458.0,-0.13183594,-0.031066895,0.0028686523,54.687023,29.854961,-3.6564887,2019-08-05 14:07:55,0.0
459.0,-0.12231445,-0.0211792,-0.007507324,55.32824300000001,21.549618,7.70229,2019-08-05 14:07:55,0.0
460.0,-0.14282227,-0.016296387,0.0017700195,68.67939,6.221374,31.557251,2019-08-05 14:07:55,0.0
461.0,-0.16455078,-0.034301757999999995,0.004211426,46.229008,-4.2061067,54.244274,2019-08-05 14:07:55,0.0
462.0,-0.12188721,-0.03387451,-0.016662598,23.267176,-6.3129773,61.44275,2019-08-05 14:07:55,0.0
463.0,-0.08911133,-0.021972656,-0.017700195,18.030535,-16.534351,63.801525,2019-08-05 14:07:55,0.0
464.0,-0.11224365,-0.013916016000000002,-0.0037231445,15.572519,-33.007633,63.893130000000006,2019-08-05 14:07:55,0.0
465.0,-0.1270752,-0.019104004,-0.010803223,-7.503816599999999,-32.625954,66.43511,2019-08-05 14:07:55,0.0
466.0,-0.12738037,-0.024536133,-0.016479492,-20.908398,-26.564886,64.12214,2019-08-05 14:07:55,0.0
467.0,-0.10412598,-0.014465332,-0.02557373,-19.595419,-22.969465,60.28244399999999,2019-08-05 14:07:55,0.0
468.0,-0.09991455,-0.010864258,-0.01763916,-14.167939000000002,-27.923664,59.32061,2019-08-05 14:07:55,0.0
469.0,-0.093688965,-0.013977051,-0.0134887695,-7.709923700000001,-30.91603,61.37404599999999,2019-08-05 14:07:55,0.0
470.0,-0.10632324,-0.016418457,-0.010070801,-13.80916,-29.641222,65.25954399999999,2019-08-05 14:07:55,0.0
471.0,-0.113342285,-0.023864746000000003,-0.015380858999999997,-6.5343513,-30.229008,70.05344000000001,2019-08-05 14:07:55,0.0
472.0,-0.11187744,-0.018493652,-0.017700195,-1.6259542,-31.076336,73.87023,2019-08-05 14:07:55,0.0
473.0,-0.120666504,-0.019958496000000003,-0.030395508,0.053435113,-31.167938,72.45038000000002,2019-08-05 14:07:55,0.0
474.0,-0.12060547,-0.021728516,-0.023620605,7.6564884000000015,-30.312977000000004,67.42748,2019-08-05 14:07:55,0.0
475.0,-0.123291016,-0.02734375,-0.022766113,4.0458016,-28.587786,64.08397,2019-08-05 14:07:55,0.0
476.0,-0.13122559,-0.029418945,-0.022583008,11.633588,-27.694656,55.435116,2019-08-05 14:07:55,0.0
477.0,-0.14123535,-0.024291992,-0.01965332,8.885496,-23.091602,46.06107,2019-08-05 14:07:55,0.0
478.0,-0.15008545,-0.029663086,-0.016845703,3.0839694,-14.091603,33.282444,2019-08-05 14:07:55,0.0
479.0,-0.118652344,-0.022949219,-0.013977051,-4.29771,-11.450381,16.557251,2019-08-05 14:07:55,0.0
480.0,-0.15863037,-0.018066406,-0.0068969727,-19.08397,-21.57252,14.702291,2019-08-05 14:07:55,0.0
481.0,-0.19415283,-0.01586914,-0.007568359399999999,-23.91603,-11.687023,8.19084,2019-08-05 14:07:55,0.0
482.0,-0.16088867,-0.029174805,-0.008666992,-24.984734,15.152672,-10.847328,2019-08-05 14:07:55,0.0
483.0,-0.10974121,-0.039489746,-0.010375977,-45.870228,24.465649,-35.44275,2019-08-05 14:07:55,0.0
484.0,-0.1270752,-0.012268066,-0.009277344,-48.221375,18.076336,-52.12214,2019-08-05 14:07:55,0.0
485.0,-0.16503906,-0.00793457,-0.0015258789,-30.503817,31.099237,-68.24428,2019-08-05 14:07:55,0.0
486.0,-0.1352539,-0.01550293,0.008972168,-21.328245000000006,47.06107,-80.16794,2019-08-05 14:07:55,0.0
487.0,-0.115234375,-0.0134887695,-0.0018920898,-32.748093,54.648853,-90.64886,2019-08-05 14:07:55,0.0
488.0,-0.10675049,-0.004760742,-0.0021362305,-26.900763,53.65649000000001,-99.64122,2019-08-05 14:07:56,0.0
489.0,-0.10650635,-0.008239746,0.0018920898,-17.244274,52.610687,-107.229004,2019-08-05 14:07:56,0.0
490.0,-0.11755371,-0.011230469,0.0064086914,-13.526717,52.17557,-104.89313,2019-08-05 14:07:56,0.0
491.0,-0.12072754,-0.014404297,0.002319336,-5.6946564,53.32824300000001,-102.51908,2019-08-05 14:07:56,0.0
492.0,-0.11669922,-0.017944336,0.009033203,-11.969465,56.114502,-97.03053,2019-08-05 14:07:56,0.0
493.0,-0.115600586,-0.021972656,0.006225586,22.984734,38.015266,-48.068703,2019-08-05 14:07:56,0.0
494.0,-0.13769531,-0.017578125,0.010803223,34.007633,28.389313,-25.08397,2019-08-05 14:07:56,0.0
495.0,-0.13696289,-0.02142334,0.013305663999999998,30.06107,18.725191,-8.938931,2019-08-05 14:07:56,0.0
496.0,-0.15264893,-0.012573242,0.0052490234,39.427483,2.076336,21.12977,2019-08-05 14:07:56,0.0
497.0,-0.18109131,-0.022888184,0.013549805,43.0,-8.0,50.778625,2019-08-05 14:07:56,0.0
498.0,-0.14135742,-0.024108887,-0.014587402,27.603054,-14.343512,60.37404599999999,2019-08-05 14:07:56,0.0
499.0,-0.093811035,-0.01373291,-0.027832031,22.74809,-26.93893,55.396946,2019-08-05 14:07:56,0.0
500.0,-0.11035156,0.0017089844,-0.011352538999999998,19.29771,-44.244274,56.38168,2019-08-05 14:07:56,0.0
501.0,-0.117492676,-0.008361816,-0.01928711,-0.36641222,-47.648853,56.412212,2019-08-05 14:07:56,0.0
502.0,-0.12048339999999998,-0.013427733999999998,-0.015319824,-9.305344,-39.091602,53.809162,2019-08-05 14:07:56,0.0
503.0,-0.10211182,-0.016174316,-0.010131836,-10.656488,-28.030535,49.244274,2019-08-05 14:07:56,0.0
504.0,-0.099487305,-0.008850098,-0.014892578,-2.946565,-22.351145,52.221375,2019-08-05 14:07:56,0.0
505.0,-0.09423828,-0.005554199,-0.020690918,16.832062,-27.740458,56.480915,2019-08-05 14:07:56,0.0
506.0,-0.10418701,-0.0064086914,-0.025634766,27.29771,-28.496183,57.57251700000001,2019-08-05 14:07:56,0.0
507.0,-0.1194458,0.010253906,-0.05316162,103.27481,-16.320610000000002,50.541985,2019-08-05 14:07:56,0.0
508.0,-0.11224365,-0.061157227,0.01928711,170.41985,-12.007633,33.267174,2019-08-05 14:07:56,0.0
509.0,-0.11230469,-0.030883789,-0.020507812,136.03816,2.2519083,24.412214,2019-08-05 14:07:56,0.0
510.0,-0.11267089999999998,-0.062683105,0.0053710938,58.862595,-0.6335878,48.778625,2019-08-05 14:07:56,0.0
511.0,-0.10461426,0.016540527,-0.036254883,45.480915,12.78626,42.25954,2019-08-05 14:07:56,0.0
512.0,-0.14227295,-0.03540039,6.1035156e-05,31.70229,-6.0534352999999985,35.72519000000001,2019-08-05 14:07:56,0.0
513.0,-0.13708496,-0.016479492,-0.030334473,87.01527,-19.923664,24.801527,2019-08-05 14:07:56,0.0
514.0,-0.15502929999999998,-0.0032348633000000003,0.0012817383,77.75572,-32.053436,16.08397,2019-08-05 14:07:56,0.0
515.0,-0.14129639,-0.034973145,0.00793457,72.01527,-19.801527,-8.656488000000001,2019-08-05 14:07:56,0.0
516.0,-0.15515137,-0.06524658,0.0013427734,99.381676,-24.198473,-26.93893,2019-08-05 14:07:56,0.0
517.0,-0.20959473,-0.07470703,0.016662598,105.862595,-14.564885,-33.595420000000004,2019-08-05 14:07:56,0.0
518.0,-0.17254639,-0.07910156,0.019226074,47.068703,29.091602,-47.717556,2019-08-05 14:07:56,0.0
519.0,-0.10003662,-0.052001953,-0.0010986328,5.557252,45.47328,-54.37404599999999,2019-08-05 14:07:56,0.0
520.0,-0.08807373,-0.05847168,-0.0053100586,-2.2137403,8.152672,-55.015266,2019-08-05 14:07:56,0.0
521.0,-0.11975098,-0.04437256,-0.013793945,-35.091602,-3.687023,-44.946564,2019-08-05 14:07:56,0.0
522.0,-0.119628906,-0.03753662,0.0016479492000000002,-104.145035,3.6564887,-31.648855,2019-08-05 14:07:56,0.0
523.0,-0.09686279,-0.04638672,0.020080566,-76.48855,0.32061067,-34.870228000000004,2019-08-05 14:07:56,0.0
524.0,-0.1159668,-0.03338623,0.014404297,-133.61068999999998,10.297709,-45.694656,2019-08-05 14:07:56,0.0
525.0,-0.117004395,-0.032714844,0.005432129,-110.87023,4.221374,-45.778625,2019-08-05 14:07:56,0.0
526.0,-0.1270752,-0.022155762,0.020263672,-100.259544,12.709924,-55.137405,2019-08-05 14:07:57,0.0
527.0,-0.117492676,-0.022766113,0.022460938,-88.71755999999998,9.961832,-59.687023,2019-08-05 14:07:57,0.0
528.0,-0.11602783,-0.0043945312,0.013549805,-63.84733000000001,10.206107,-65.45038000000001,2019-08-05 14:07:57,0.0
529.0,-0.117126465,-0.02960205,0.024597168,-71.66412,19.244274,-64.862595,2019-08-05 14:07:57,0.0
530.0,-0.11431885,-0.024658203,0.019958496000000003,-67.16794,13.290076,-51.34351,2019-08-05 14:07:57,0.0
531.0,-0.10809326,-0.025756836,0.02545166,-63.46565,21.923664,-41.35878,2019-08-05 14:07:57,0.0
532.0,-0.10485839999999998,-0.012023926,0.01977539,-46.51145,9.717557,-33.06107,2019-08-05 14:07:57,0.0
533.0,-0.12384033,-0.016540527,0.026062012,-22.007633,1.5572518999999998,-20.93893,2019-08-05 14:07:57,0.0
534.0,-0.1282959,-0.030944824,0.020080566,-24.183207,5.4274807,-10.450381,2019-08-05 14:07:57,0.0
535.0,-0.121520996,-0.012878418,0.0049438477,-18.549618,3.3969467000000004,-0.57251906,2019-08-05 14:07:57,0.0
536.0,-0.15209961,-0.025268555,0.01739502,5.152672,-22.76336,21.335878,2019-08-05 14:07:57,0.0
537.0,-0.16790771,-0.0154418945,0.01373291,22.32061,-13.816793,40.49618,2019-08-05 14:07:57,0.0
538.0,-0.1428833,-0.017822266,-0.014099121,41.53435,-3.29771,47.53435,2019-08-05 14:07:57,0.0
539.0,-0.089660645,-0.013244629,-0.022766113,34.076336,-8.839694999999997,51.931297,2019-08-05 14:07:57,0.0
540.0,-0.10028076,-0.005065918,-0.004699707,40.923664,-26.160305,54.74046,2019-08-05 14:07:57,0.0
541.0,-0.12786865,-0.0034790040000000004,-0.018005371000000003,28.70229,-28.824427000000004,59.48855,2019-08-05 14:07:57,0.0
542.0,-0.13104248,-0.0028076172,-0.02520752,40.038166,-17.526718,52.992367,2019-08-05 14:07:57,0.0
543.0,-0.11621094,-0.007751465,-0.013122559,38.21374,-8.633588,51.70229000000001,2019-08-05 14:07:57,0.0
544.0,-0.09698486,-0.009765625,-0.008728027,49.160305,-18.122137,53.290077,2019-08-05 14:07:57,0.0
545.0,-0.10748291,-0.015136719,-0.016479492,42.671757,-16.282442,51.328243,2019-08-05 14:07:57,0.0
546.0,-0.10638428,-0.016601562,-0.013000488,34.16794,-16.290077,53.114502,2019-08-05 14:07:57,0.0
547.0,-0.10003662,-0.020324707,-0.003112793,27.152671999999995,-15.320610999999998,55.587788,2019-08-05 14:07:57,0.0
548.0,-0.115600586,-0.021362305,-0.0072631836,17.229008,-15.160305,59.969467,2019-08-05 14:07:57,0.0
549.0,-0.12579346,-0.018127441,-0.005004883,6.6946564,-14.152672,60.137405,2019-08-05 14:07:57,0.0
550.0,-0.115356445,-0.029846191,-0.014587402,3.312977,-12.748092,58.778625,2019-08-05 14:07:57,0.0
551.0,-0.122802734,-0.011352538999999998,-0.014953613,0.19847329,-14.793893,53.450382,2019-08-05 14:07:57,0.0
552.0,-0.13854979999999995,-0.018127441,-0.009277344,4.4274807,-21.053434,55.748093,2019-08-05 14:07:57,0.0
553.0,-0.13916016,-0.020385742,-0.0053100586,5.4885497,-20.580153,52.77099200000001,2019-08-05 14:07:57,0.0
554.0,-0.14483643,-0.018432617,-0.009216309,-2.0839694,-15.770992,44.20611,2019-08-05 14:07:57,0.0
555.0,-0.13415527,-0.016967773000000002,-0.009765625,-8.954199000000003,-9.648855,32.351147,2019-08-05 14:07:57,0.0
556.0,-0.16229248,-0.024963379,0.004699707,-10.061069,-25.480917,30.206106,2019-08-05 14:07:57,0.0
557.0,-0.19519043,-0.025817871000000003,0.007019043000000001,-33.572517,-10.664123,17.908398000000005,2019-08-05 14:07:57,0.0
558.0,-0.16583252,-0.018859863,-0.0043945312,-42.091602,23.603054,0.28244275,2019-08-05 14:07:57,0.0
559.0,-0.10534668,-0.009460449,-0.006591797,-52.78626,27.335878000000005,-21.900763,2019-08-05 14:07:57,0.0
560.0,-0.12591553,-0.016052246000000003,0.0007934570299999999,-56.938930000000006,5.29771,-37.21374,2019-08-05 14:07:57,0.0
561.0,-0.14361572,-0.007385254,0.009887695,-66.51145,18.61832,-48.961834,2019-08-05 14:07:57,0.0
562.0,-0.14007568,-0.024841309,0.008850098,-80.091606,38.38168,-62.633587,2019-08-05 14:07:58,0.0
563.0,-0.12219238,-0.011169434,0.0017700195,-84.76335999999998,46.290077,-72.44275,2019-08-05 14:07:58,0.0
564.0,-0.1194458,-0.014343262,0.0015869141,-82.36641,48.52672000000001,-83.770996,2019-08-05 14:07:58,0.0
565.0,-0.12231445,-0.001159668,0.009094238,-76.099236,48.870228,-92.259544,2019-08-05 14:07:58,0.0
566.0,-0.109436035,-0.0007324219,0.013366699,-72.091606,52.71755600000001,-100.29008,2019-08-05 14:07:58,0.0
567.0,-0.12322998,-0.005004883,0.014282227,-53.030533,48.76336,-103.70229,2019-08-05 14:07:58,0.0
568.0,-0.11633301,-0.017822266,0.021240234,-54.412212,53.748093,-102.80916,2019-08-05 14:07:58,0.0
569.0,-0.1071167,0.0015869141,0.012023926,-34.778625,60.312977,-98.42748,2019-08-05 14:07:58,0.0
570.0,-0.11090088,-0.020141602,0.020202637,-12.206107,58.435116,-87.08397,2019-08-05 14:07:58,0.0
571.0,-0.10900879,-0.01776123,0.023620605,14.351145,54.27481,-73.091606,2019-08-05 14:07:58,0.0
572.0,-0.11553955,-0.017944336,0.023742676,24.335878,52.908398,-53.52672,2019-08-05 14:07:58,0.0
573.0,-0.12017822,-0.01928711,0.016662598,48.519085,38.9771,-30.12977,2019-08-05 14:07:58,0.0
574.0,-0.12542725,-0.017578125,0.012451172,57.21374,37.312977,-13.198473000000002,2019-08-05 14:07:58,0.0
575.0,-0.1328125,-0.009216309,0.01776123,63.35878,8.297709,6.9923663000000005,2019-08-05 14:07:58,0.0
576.0,-0.16644287,-0.010192871,0.022705078,68.908394,1.9389313,30.0,2019-08-05 14:07:58,0.0
577.0,-0.15783691,-0.025024414,0.0018920898,88.36641,3.6564887,42.732826,2019-08-05 14:07:58,0.0
578.0,-0.10913086,-0.022338867,-0.022155762,68.52672,-8.709924,41.519085,2019-08-05 14:07:58,0.0
579.0,-0.09539795,-0.008422852,-0.0006713867,79.46565,-28.80916,46.0,2019-08-05 14:07:58,0.0
580.0,-0.12060547,-0.019104004,0.005859375,51.030533,-42.44275,53.198475,2019-08-05 14:07:58,0.0
581.0,-0.14300537,-0.018920898,-0.0049438477,18.877863,-32.801525,54.29771,2019-08-05 14:07:58,0.0
582.0,-0.1159668,-0.0138549805,-0.017150878999999997,-7.4274807,-16.282442,49.694656,2019-08-05 14:07:58,0.0
583.0,-0.09234619,-0.004272461,-0.014465332,0.89312977,-15.503817000000002,50.328243,2019-08-05 14:07:58,0.0
584.0,-0.10394287,-0.004211426,-0.014770508,18.167938,-18.534351,50.79389000000001,2019-08-05 14:07:58,0.0
585.0,-0.108947754,-0.016052246000000003,-0.008972168,27.816793,-25.541985,57.603054,2019-08-05 14:07:58,0.0
586.0,-0.10925293,-0.011657715,0.0007324219,21.877863,-23.74809,63.419846,2019-08-05 14:07:58,0.0
587.0,-0.11993408,-0.014709473,-0.011169434,17.847328,-24.259542,70.80153,2019-08-05 14:07:58,0.0
588.0,-0.117004395,-0.018554688,-0.007629394499999998,6.6793895,-22.908398,75.458015,2019-08-05 14:07:58,0.0
589.0,-0.12408447,-0.018798828,-0.0107421875,8.061069,-23.984734,77.03053,2019-08-05 14:07:58,0.0
590.0,-0.12554932,-0.014343262,-0.008422852,8.732824,-26.969465000000003,75.38931,2019-08-05 14:07:58,0.0
591.0,-0.12664795,-0.011230469,-0.010559082,9.2595415,-29.23664,69.42748,2019-08-05 14:07:58,0.0
592.0,-0.14093018,-0.018493652,-0.007019043000000001,14.290076,-29.801527,60.755726,2019-08-05 14:07:58,0.0
593.0,-0.15692139,-0.022583008,-0.0038452148,7.091603299999999,-25.343512,52.72519000000001,2019-08-05 14:07:58,0.0
594.0,-0.16174316,-0.02178955,-0.008178711,-0.34351146,-12.435115,36.770992,2019-08-05 14:07:58,0.0
595.0,-0.14105225,-0.015014648,-0.006225586,-8.374044999999999,-16.412214000000002,21.709923,2019-08-05 14:07:58,0.0
596.0,-0.18151855,-0.013061523,-0.0041503906,-6.2900763,-21.847328,10.862596,2019-08-05 14:07:58,0.0
597.0,-0.19970703,-0.018371582,-0.0048828125,-2.0,-5.4656487,0.19847329,2019-08-05 14:07:59,0.0
598.0,-0.14379883,-0.019958496000000003,-0.008544922,-12.564885,22.305344,-20.770992,2019-08-05 14:07:59,0.0
599.0,-0.087768555,-0.016357422,-0.0033569336,-17.122137,23.732824,-36.480915,2019-08-05 14:07:59,0.0
600.0,-0.099121094,-0.020080566,-0.0033569336,-16.51145,6.9923663000000005,-48.89313,2019-08-05 14:07:59,0.0
601.0,-0.12237549,-0.019165039,0.0064697266000000005,-25.022902,22.259542,-57.076336,2019-08-05 14:07:59,0.0
602.0,-0.11212158,-0.016479492,0.007568359399999999,-38.839695,39.923664,-66.42748,2019-08-05 14:07:59,0.0
603.0,-0.10845947,-0.008544922,0.004699707,-47.839695,45.946564,-72.40458000000002,2019-08-05 14:07:59,0.0
604.0,-0.1260376,-0.006042480500000001,0.0036621094,-38.20611,44.931297,-76.72519,2019-08-05 14:07:59,0.0
605.0,-0.12884521,-0.0068969727,0.0078125,-30.38168,42.770992,-81.16794,2019-08-05 14:07:59,0.0
606.0,-0.13067627,-0.010314941,0.0037231445,-30.633587,47.458015,-87.229004,2019-08-05 14:07:59,0.0
607.0,-0.11682129,-0.013549805,0.009460449,-32.633587,48.969467,-91.71756,2019-08-05 14:07:59,0.0
608.0,-0.12438965,-0.013793945,0.016601562,-29.374046000000003,49.068703,-90.35114,2019-08-05 14:07:59,0.0
609.0,-0.12432861,-0.0079956055,0.017150878999999997,-29.42748,54.16794,-88.45038000000002,2019-08-05 14:07:59,0.0
610.0,-0.11773682,-0.0053710938,0.01550293,-13.015267,49.809162,-82.229004,2019-08-05 14:07:59,0.0
611.0,-0.12207031,-0.008850098,0.00982666,1.9236641,44.114502,-66.816795,2019-08-05 14:07:59,0.0
612.0,-0.12976074,-0.013000488,0.014099121,20.099237,32.9771,-51.06107,2019-08-05 14:07:59,0.0
613.0,-0.13287354,-0.013305663999999998,0.011047363,27.824427000000004,27.145039,-31.908398,2019-08-05 14:07:59,0.0
614.0,-0.12121582,-0.0095825195,0.0067749023,20.206106,22.885496,-18.06107,2019-08-05 14:07:59,0.0
615.0,-0.1282959,-0.012329102,0.014404297,27.175573,6.2137403,3.5801528,2019-08-05 14:07:59,0.0
616.0,-0.15899658,-0.015014648,0.022949219,23.091602,-1.2671756,28.091602,2019-08-05 14:07:59,0.0
617.0,-0.15917969,-0.015808105,-0.0028076172,12.549619,-4.6106873,44.816795,2019-08-05 14:07:59,0.0
618.0,-0.10736084,-0.0034790040000000004,-0.025939941,7.6488547,-9.206107,39.687023,2019-08-05 14:07:59,0.0
619.0,-0.10144043,-0.004638672,-0.011413574,29.847328000000005,-29.61832,41.114502,2019-08-05 14:07:59,0.0
620.0,-0.12835693,-0.006042480500000001,-0.0026855469,6.4580154,-39.137405,43.305344,2019-08-05 14:07:59,0.0
621.0,-0.13684082,-0.01739502,-0.00793457,-20.816793,-29.89313,42.541985,2019-08-05 14:07:59,0.0
622.0,-0.115356445,-0.0021972656,-0.016296387,-16.412214000000002,-21.793894,44.839695,2019-08-05 14:07:59,0.0
623.0,-0.095703125,0.0015869141,-0.014404297,3.0992367,-15.641221,42.671757,2019-08-05 14:07:59,0.0
624.0,-0.091308594,-0.0021362305,-0.006958008000000001,28.450382,-22.450382,46.099236,2019-08-05 14:07:59,0.0
625.0,-0.10211182,0.00036621094,-0.013122559,42.282444,-29.198473,50.946564,2019-08-05 14:07:59,0.0
626.0,-0.09881592,-0.007080078,-0.004211426,45.52672000000001,-27.458015000000003,56.30534399999999,2019-08-05 14:07:59,0.0
627.0,-0.11968994,-0.012512207,-0.005004883,49.87786,-25.343512,61.007633,2019-08-05 14:07:59,0.0
628.0,-0.12719727,-0.020446777,-0.007568359399999999,45.435116,-24.549618,70.68701999999998,2019-08-05 14:07:59,0.0
629.0,-0.123168945,-0.020812988,-0.013000488,44.885498,-28.198473,72.67175,2019-08-05 14:07:59,0.0
630.0,-0.13317871,-0.021240234,-0.015197754,45.87786,-28.648855,70.44275,2019-08-05 14:07:59,0.0
631.0,-0.12994385,-0.016601562,-0.015014648,41.587788,-31.404581,63.335876,2019-08-05 14:07:59,0.0
632.0,-0.13665771,-0.020874023,-0.0068969727,39.20611,-34.38168,56.984734,2019-08-05 14:08:00,0.0
633.0,-0.15356445,-0.01727295,-0.0028686523,32.46565,-28.29771,46.770992,2019-08-05 14:08:00,0.0
634.0,-0.16357422,-0.016479492,0.003112793,25.709923,-21.694656,35.809162,2019-08-05 14:08:00,0.0
635.0,-0.2064209,-0.026977539,0.004760742,23.709923,-23.801527,31.694656,2019-08-05 14:08:00,0.0
636.0,-0.21954346,-0.020385742,-0.004699707,11.396947,2.1374047000000003,14.946565,2019-08-05 14:08:00,0.0
637.0,-0.12841797,-0.016052246000000003,-0.017578125,2.1755726,26.755726,-16.10687,2019-08-05 14:08:00,0.0
638.0,-0.06719971,-0.016540527,-0.012023926,-5.3129773,16.91603,-41.267174,2019-08-05 14:08:00,0.0
639.0,-0.11706543,-0.010253906,-0.005859375,-11.251908,-1.9312977,-54.778625,2019-08-05 14:08:00,0.0
640.0,-0.14721679999999998,-0.01727295,0.01361084,-6.6946564,18.473282,-70.20611,2019-08-05 14:08:00,0.0
641.0,-0.13244629,-0.018493652,0.011047363,-35.84733,39.221375,-83.29771,2019-08-05 14:08:00,0.0
642.0,-0.11077881,0.0024414062,-0.0030517578000000003,-45.221375,46.633587,-93.24428,2019-08-05 14:08:00,0.0
643.0,-0.11431885,0.006958008000000001,-0.006286621,-13.854961,40.20611,-94.48855,2019-08-05 14:08:00,0.0
644.0,-0.12609863,-0.0036010742,0.0012207031,11.78626,40.16794,-96.32825,2019-08-05 14:08:00,0.0
645.0,-0.12158203,-0.022705078,0.0017700195,15.045801,40.82443,-97.37405,2019-08-05 14:08:00,0.0
646.0,-0.1071167,-0.014038086000000002,0.008117675999999999,3.183206,42.282444,-90.854965,2019-08-05 14:08:00,0.0
647.0,-0.12164307,-0.0115356445,0.0021362305,-4.2137403,44.40458,-83.099236,2019-08-05 14:08:00,0.0
648.0,-0.115112305,-0.006225586,0.0025634766,-2.3511450000000003,43.076336,-73.65649,2019-08-05 14:08:00,0.0
649.0,-0.11230469,-0.010864258,0.00592041,12.068703,35.923664,-58.893130000000006,2019-08-05 14:08:00,0.0
650.0,-0.11743164,-0.013122559,0.004333496,20.839695000000006,30.503817,-43.47328,2019-08-05 14:08:00,0.0
651.0,-0.12701416,-0.020996094,0.0068969727,24.603054,25.51145,-25.114504,2019-08-05 14:08:00,0.0
652.0,-0.12438965,-0.008605957,0.006042480500000001,10.480916,23.145039,-10.648855,2019-08-05 14:08:00,0.0
653.0,-0.12054443,-0.0034790040000000004,0.0021972656,13.129771,13.480916,6.1908400000000015,2019-08-05 14:08:00,0.0
654.0,-0.17602539,-0.013000488,0.010864258,17.557251,6.8244276,38.351147,2019-08-05 14:08:00,0.0
655.0,-0.17474365,-0.013122559,-0.00036621094,12.4198475,11.374045,51.290077,2019-08-05 14:08:00,0.0
656.0,-0.10644531,-0.004638672,-0.022949219,12.679389,13.908397,39.480915,2019-08-05 14:08:00,0.0
657.0,-0.09515381,-0.011108398,-0.0068969727,41.9771,-11.427481,38.50382000000001,2019-08-05 14:08:00,0.0
658.0,-0.14453125,-0.0020141602,-0.008056641,17.404581,-19.519083,35.900764,2019-08-05 14:08:00,0.0
659.0,-0.13586426,-0.006164551,-0.005554199,8.122137,-17.076335999999998,31.282442,2019-08-05 14:08:00,0.0
660.0,-0.10974121,-0.010925293,-0.0087890625,5.5114503,-4.473282299999998,28.282442,2019-08-05 14:08:00,0.0
661.0,-0.097717285,-0.010681152,-0.005004883,-0.10687023,-1.5572518999999998,26.992367,2019-08-05 14:08:00,0.0
662.0,-0.08666992,-0.00018310547,-0.0052490234,20.801527,-9.549619,33.0,2019-08-05 14:08:00,0.0
663.0,-0.08795166,-0.0029907227,-0.0064086914,33.328243,-18.045801,39.40458,2019-08-05 14:08:00,0.0
664.0,-0.09259033,-0.012023926,-0.0053710938,32.335876,-20.152672,45.0,2019-08-05 14:08:00,0.0
665.0,-0.097839355,-0.012512207,-0.008117675999999999,37.282444,-21.847328,56.65649000000001,2019-08-05 14:08:00,0.0
666.0,-0.11566162,-0.01953125,-0.012023926,29.946566,-24.74809,63.21374,2019-08-05 14:08:00,0.0
667.0,-0.1194458,-0.015319824,-0.015380858999999997,28.862595,-28.969465000000003,65.20611,2019-08-05 14:08:00,0.0
668.0,-0.11791992,-0.014892578,-0.014160156,25.549618,-33.709923,63.69465600000001,2019-08-05 14:08:00,0.0
669.0,-0.1182251,-0.018615723,-0.021606445,11.885496,-35.16794,60.312977,2019-08-05 14:08:01,0.0
670.0,-0.13378906,-0.016662598,-0.014343262,16.534351,-38.801525,56.37404599999999,2019-08-05 14:08:01,0.0
671.0,-0.14801025,-0.011230469,-0.0064086914,12.687023,-33.15267,46.625954,2019-08-05 14:08:01,0.0
672.0,-0.14202881,-0.01776123,-0.008850098,15.748092000000002,-27.022902,34.267174,2019-08-05 14:08:01,0.0
673.0,-0.17041016,-0.018188477,0.0038452148,18.465649,-32.801525,31.076336,2019-08-05 14:08:01,0.0
674.0,-0.21734619,-0.012023926,-0.004699707,0.4427481,-18.832062,22.480917,2019-08-05 14:08:01,0.0
675.0,-0.18701172,-0.017333984,-0.0052490234,5.8702292,1.6259542,6.847328,2019-08-05 14:08:01,0.0
676.0,-0.113586426,-0.016906738,-0.019714355,-8.175572,25.61832,-21.23664,2019-08-05 14:08:01,0.0
677.0,-0.08813476599999999,-0.012939453,-0.013244629,-4.221374,14.282443,-35.44275,2019-08-05 14:08:01,0.0
678.0,-0.12249756,-0.0146484375,-0.0025024414000000004,-8.717557000000001,9.969465,-47.129772,2019-08-05 14:08:01,0.0
679.0,-0.12518310000000002,-0.017089844,0.0038452148,-27.91603,24.564886,-51.007633,2019-08-05 14:08:01,0.0
680.0,-0.1184082,-0.013916016000000002,0.004638672,-34.885498,43.85496,-54.16030500000001,2019-08-05 14:08:01,0.0
681.0,-0.11566162,-0.011779785,-0.0034179688,-37.183205,51.14504,-64.0229,2019-08-05 14:08:01,0.0
682.0,-0.11260986,-0.0045166016,-0.005004883,-9.251908,51.229008,-69.64121999999999,2019-08-05 14:08:01,0.0
683.0,-0.11853027,-0.01184082,-0.0068359375,5.076336,48.625954,-73.56489,2019-08-05 14:08:01,0.0
684.0,-0.11584473,-0.012023926,0.0095825195,11.122137,49.931297,-76.99235999999998,2019-08-05 14:08:01,0.0
685.0,-0.11218262,-0.010986328,0.007080078,2.687023,55.755726,-75.58015400000002,2019-08-05 14:08:01,0.0
686.0,-0.12432861,-0.01373291,0.010559082,6.221374,54.83206,-72.0229,2019-08-05 14:08:01,0.0
687.0,-0.11456299,-0.0126953125,0.0031738281,10.251908,52.87786,-71.69466,2019-08-05 14:08:01,0.0
688.0,-0.11431885,-0.008422852,0.005126953,21.312977,48.068703,-64.40458000000001,2019-08-05 14:08:01,0.0
689.0,-0.115722656,-0.007690429699999998,0.007629394499999998,36.091602,38.541985,-54.137405,2019-08-05 14:08:01,0.0
690.0,-0.11791992,-0.013916016000000002,0.01184082,43.610687,30.503817,-40.671757,2019-08-05 14:08:01,0.0
691.0,-0.122924805,-0.012756348,0.00982666,36.076336,27.290077,-26.534351,2019-08-05 14:08:01,0.0
692.0,-0.11224365,-0.014465332,0.0072021484,39.23664,18.06107,-13.0992365,2019-08-05 14:08:01,0.0
693.0,-0.10522461,-0.012390137,-0.0004272461,26.419847,10.068703,0.22900763,2019-08-05 14:08:01,0.0
694.0,-0.137146,-0.014953613,0.0099487305,24.992367,-1.1145039,21.10687,2019-08-05 14:08:01,0.0
695.0,-0.17150879,-0.020202637,0.0211792,14.923664000000002,-4.221374,49.35878,2019-08-05 14:08:01,0.0
696.0,-0.15777588,-0.016113281,-0.005432129,7.610687299999999,-5.152672,56.335876,2019-08-05 14:08:01,0.0
697.0,-0.12164307,-0.0037841797,-0.013793945,41.25954,-18.312977,59.190838,2019-08-05 14:08:01,0.0
698.0,-0.13555908,-0.008300781,-0.0040893555,46.06107,-41.160305,62.748093,2019-08-05 14:08:01,0.0
699.0,-0.15167236,-0.0138549805,-0.016906738,26.793894,-47.46565,61.06107,2019-08-05 14:08:01,0.0
700.0,-0.12097168,-0.01965332,-0.018615723,8.625955000000001,-43.251907,51.625954,2019-08-05 14:08:01,0.0
701.0,-0.08935547,-0.010803223,-0.0064697266000000005,-15.732824,-32.931297,43.908398,2019-08-05 14:08:01,0.0
702.0,-0.08953857400000001,-0.006713866999999999,-0.010375977,-18.183207,-32.984734,39.49618,2019-08-05 14:08:01,0.0
703.0,-0.09051514,-0.011108398,-0.010192871,-0.99236643,-33.343509999999995,38.47328,2019-08-05 14:08:01,0.0
704.0,-0.090026855,-0.010375977,-0.010070801,-6.7480917,-29.51145,39.923664,2019-08-05 14:08:01,0.0
705.0,-0.09301758,-0.012390137,-0.014953613,5.8091599999999985,-29.312977000000004,41.053436,2019-08-05 14:08:02,0.0
706.0,-0.10144043,-0.009216309,-0.009521484,22.931297,-30.946566,48.34351,2019-08-05 14:08:02,0.0
707.0,-0.107666016,-0.016723633,-0.016906738,22.786259,-30.91603,55.55725,2019-08-05 14:08:02,0.0
708.0,-0.11242676,-0.012573242,-0.021118164,24.274809,-28.396946000000003,59.862595,2019-08-05 14:08:02,0.0
709.0,-0.12384033,-0.019042969,-0.016784668,17.259542,-29.786259,61.16794,2019-08-05 14:08:02,0.0
710.0,-0.1282959,-0.023620605,-0.02130127,5.9770994,-26.496183,58.72519000000001,2019-08-05 14:08:02,0.0
711.0,-0.13409424,-0.016723633,-0.015686035,5.854962,-22.877863,49.015266,2019-08-05 14:08:02,0.0
712.0,-0.13000488,-0.0138549805,-0.006225586,6.923664,-17.114504,33.25954,2019-08-05 14:08:02,0.0
713.0,-0.22387695,-0.020751953,0.007568359399999999,6.0458016,-25.694656,30.633587,2019-08-05 14:08:02,0.0
714.0,-0.25451660000000004,-0.013000488,-0.003540039,-11.61832,20.656488,7.0,2019-08-05 14:08:02,0.0
715.0,-0.17687988,-0.028564453,0.020996094,3.4198472,40.328243,-17.671754999999994,2019-08-05 14:08:02,0.0
716.0,-0.21374512,-0.012451172,0.00970459,-33.969467,45.16794,-40.49618,2019-08-05 14:08:02,0.0
717.0,-0.17175293,0.0014648438,-0.0026855469,-49.198475,57.16030500000001,-64.16794,2019-08-05 14:08:02,0.0
718.0,-0.10723877,-0.010131836,-0.011657715,-34.053436,57.946564,-83.80153,2019-08-05 14:08:02,0.0
719.0,-0.080078125,-0.017456055,-0.0022583008,-46.389313,55.83206,-101.900764,2019-08-05 14:08:02,0.0
720.0,-0.09484863,-0.008239746,-0.00390625,-48.114502,49.366413,-111.74809,2019-08-05 14:08:02,0.0
721.0,-0.088012695,-0.013122559,0.0012207031,-54.22900799999999,66.0229,-118.900764,2019-08-05 14:08:02,0.0
722.0,-0.07531738,-0.0024414062,-0.0007324219,-50.89313,74.39695,-124.28244,2019-08-05 14:08:02,0.0
723.0,-0.08142089999999999,-0.0028076172,-6.1035156e-05,-30.595419,78.23664000000002,-120.36641000000002,2019-08-05 14:08:02,0.0
724.0,-0.092163086,-0.0006103515599999999,0.014282227,3.1526718,76.12977,-116.740456,2019-08-05 14:08:02,0.0
725.0,-0.1005249,0.0045166016,0.009521484,26.32061,69.43511,-104.26717,2019-08-05 14:08:02,0.0
726.0,-0.12145996,0.0029907227,0.010009766,34.679390000000005,67.03053,-90.19847,2019-08-05 14:08:02,0.0
727.0,-0.117126465,-0.006591797,0.0107421875,42.419846,61.84733000000001,-70.8855,2019-08-05 14:08:02,0.0
728.0,-0.11694336,-0.019104004,0.01361084,50.030533,48.84733,-45.244274,2019-08-05 14:08:02,0.0
729.0,-0.11767578,-0.036743164,0.0006713867,28.389313,29.282442,-25.358778,2019-08-05 14:08:02,0.0
730.0,-0.11846924,-0.01739502,-0.002380371,33.450382,-2.0076337,5.7175574000000005,2019-08-05 14:08:02,0.0
731.0,-0.1796875,-0.028137207,0.0134887695,35.17557,-18.687023,49.809162,2019-08-05 14:08:02,0.0
732.0,-0.1741333,-0.043518066,-0.020507812,13.198473000000002,-32.717556,68.42748,2019-08-05 14:08:02,0.0
733.0,-0.20007324,-0.01940918,-0.019042969,26.57252,-43.030533,81.96947,2019-08-05 14:08:02,0.0
734.0,-0.18939209,-0.0072631836,-0.021362305,-0.16030534,-38.931297,75.34351,2019-08-05 14:08:02,0.0
735.0,-0.14721679999999998,-0.001159668,-0.020690918,2.687023,-40.29771,64.34351,2019-08-05 14:08:02,0.0
736.0,-0.11907959,-0.0087890625,-0.021362305,3.778626,-43.076336,55.14504,2019-08-05 14:08:02,0.0
737.0,-0.06781006,-0.012145996,-0.02746582,-10.007633,-36.458015,44.099236,2019-08-05 14:08:02,0.0
738.0,-0.05206299,-0.0044555664,-0.027770996000000003,-21.770992,-33.396946,38.076336,2019-08-05 14:08:02,0.0
739.0,-0.059631348,0.00024414062,-0.010131836,-20.38168,-34.83206,35.55725,2019-08-05 14:08:02,0.0
740.0,-0.06799316400000001,-0.020568848,0.0017700195,-19.549618,-27.38168,39.435116,2019-08-05 14:08:03,0.0
741.0,-0.06951904,-0.010559082,-0.028198242,-45.51145,-22.305344,41.40458,2019-08-05 14:08:03,0.0
742.0,-0.082214355,0.011169434,-0.020874023,-2.610687,-31.221375,53.801525,2019-08-05 14:08:03,0.0
743.0,-0.09802246,-0.010803223,-0.022644043,24.374046,-18.992367,65.01527,2019-08-05 14:08:03,0.0
744.0,-0.10522461,-0.024902344,-0.007385254,45.137405,-22.045801,79.16031,2019-08-05 14:08:03,0.0
745.0,-0.1270752,-0.033935547,-0.0007324219,31.099237,-20.946566,87.229004,2019-08-05 14:08:03,0.0
746.0,-0.14227295,-0.03173828,-0.025634766,17.694656,-9.503817,79.70229,2019-08-05 14:08:03,0.0
747.0,-0.14172363,-0.02947998,-0.008483886999999999,20.229008,-11.2213745,63.14504,2019-08-05 14:08:03,0.0
748.0,-0.22912598,-0.031799316,0.0028076172,6.40458,-18.671755,46.374046,2019-08-05 14:08:03,0.0
749.0,-0.25024414,-0.016357422,0.006225586,-47.603054,20.61832,15.664123000000002,2019-08-05 14:08:03,0.0
750.0,-0.20758057,-0.017456055,0.035217285,-9.648855,17.08397,-3.3664122000000005,2019-08-05 14:08:03,0.0
751.0,-0.22137451,-0.011047363,0.015380858999999997,-21.221375,29.625954,-21.244274,2019-08-05 14:08:03,0.0
752.0,-0.15203857,-0.0053100586,-0.0010986328,-1.5725191,29.122137,-31.992367,2019-08-05 14:08:03,0.0
753.0,-0.10992432,-0.018615723,-0.021484375,20.435114,23.267176,-45.129772,2019-08-05 14:08:03,0.0
754.0,-0.08502197,-0.019470215,-0.005676269499999999,19.687023,15.2595415,-54.564884,2019-08-05 14:08:03,0.0
755.0,-0.07891846,-0.028015137,0.0012817383,-14.160305,11.938931,-67.31298000000001,2019-08-05 14:08:03,0.0
756.0,-0.07189941400000001,-0.024169922000000003,0.0041503906,-48.954197,18.152672,-81.229004,2019-08-05 14:08:03,0.0
757.0,-0.06921387,-0.013305663999999998,-0.0026855469,-63.519085,22.366413,-89.458015,2019-08-05 14:08:03,0.0
758.0,-0.06378174,-0.009338379,0.0008544922000000001,-61.57251700000001,29.32061,-92.10687,2019-08-05 14:08:03,0.0
759.0,-0.08044433599999999,-0.010498047,-0.006225586,-51.030533,32.0229,-89.0687,2019-08-05 14:08:03,0.0
760.0,-0.09106445,-0.006225586,0.006958008000000001,-34.687023,34.89313,-79.83206,2019-08-05 14:08:03,0.0
761.0,-0.11303711,-0.0045166016,0.015136719,-19.709923,32.160305,-59.992367,2019-08-05 14:08:03,0.0
762.0,-0.12634277,-0.011779785,0.0015869141,-5.1984735,33.541985,-45.335876,2019-08-05 14:08:03,0.0
763.0,-0.11444092,-0.006225586,-0.00592041,19.70229,29.152671999999995,-34.251907,2019-08-05 14:08:03,0.0
764.0,-0.12084961,0.0020141602,0.0029907227,39.923664,10.633588,-15.297709,2019-08-05 14:08:03,0.0
765.0,-0.21289062,0.003112793,0.03125,80.770996,-4.664122,18.87023,2019-08-05 14:08:03,0.0
766.0,-0.19866943,-0.011413574,0.0041503906,17.175573,9.183207,14.40458,2019-08-05 14:08:03,0.0
767.0,-0.17065429999999998,0.0045776367,-0.010192871,44.9771,-11.244275,18.984734,2019-08-05 14:08:03,0.0
768.0,-0.1749878,0.015380858999999997,-0.0015258789,42.068703,-26.167938,17.458015,2019-08-05 14:08:03,0.0
769.0,-0.19110107,0.003540039,-0.006286621,51.183205,-37.664124,11.19084,2019-08-05 14:08:03,0.0
770.0,-0.14434814,0.0079956055,-0.014404297,14.763359,-32.51145,3.572519,2019-08-05 14:08:03,0.0
771.0,-0.09710693,0.0028686523,-0.011108398,2.8396947,-21.580153,3.8396947,2019-08-05 14:08:03,0.0
772.0,-0.07751465,0.008850098,-0.013977051,3.8778627,-18.74809,15.870229,2019-08-05 14:08:03,0.0
773.0,-0.06451416,0.0031738281,-0.01159668,26.946566,-23.244274,24.900763,2019-08-05 14:08:03,0.0
774.0,-0.04852295,0.0061035156000000005,-0.009216309,33.114502,-23.526718,31.526718,2019-08-05 14:08:03,0.0
775.0,-0.062438965,-0.007446289,0.0028076172,33.595420000000004,-29.755726,39.251907,2019-08-05 14:08:04,0.0
776.0,-0.091308594,-0.01574707,0.0034790040000000004,46.67939000000001,-31.23664,47.030533,2019-08-05 14:08:04,0.0
777.0,-0.10211182,-0.023864746000000003,-0.012939453,21.526718,-20.603054,54.44275,2019-08-05 14:08:04,0.0
778.0,-0.11907959,-0.004272461,-0.013305663999999998,50.374046,-15.122137,63.946564,2019-08-05 14:08:04,0.0
779.0,-0.14660645,-0.02758789,0.0006713867,57.778625,-20.152672,75.32061,2019-08-05 14:08:04,0.0
780.0,-0.15081787,-0.01940918,-0.010925293,43.908398,-15.022901,75.41984599999998,2019-08-05 14:08:04,0.0
781.0,-0.14202881,-0.014221191,-0.011291504,44.290077,-12.015267,74.28244000000002,2019-08-05 14:08:04,0.0
782.0,-0.12695312,-0.026733398,-0.0017700195,41.87786,-19.48855,65.48855,2019-08-05 14:08:04,0.0
783.0,-0.20098877,-0.036315918,0.013916016000000002,21.877863,-34.251907,69.27481,2019-08-05 14:08:04,0.0
784.0,-0.2612915,-0.026428223,0.023864746000000003,8.702291,-1.1603054,55.0229,2019-08-05 14:08:04,0.0
785.0,-0.19470215,-0.03314209,0.024291992,-14.19084,41.89313,25.152672,2019-08-05 14:08:04,0.0
786.0,-0.19488525,-0.01739502,0.0038452148,-31.221375,30.633587,-3.59542,2019-08-05 14:08:04,0.0
787.0,-0.17767334,-0.008117675999999999,-0.00970459,-28.152671999999995,29.633587,-34.656490000000005,2019-08-05 14:08:04,0.0
788.0,-0.117126465,-0.010192871,-0.0071411133,-24.290077,34.473279999999995,-61.79389000000001,2019-08-05 14:08:04,0.0
789.0,-0.07574463,-0.033813477,-0.012207031,-45.801525,35.221375,-76.908394,2019-08-05 14:08:04,0.0
790.0,-0.06945801,-0.016906738,-0.0028686523,-62.610687,27.931297,-91.44275,2019-08-05 14:08:04,0.0
791.0,-0.072753906,-0.015991211,-0.0004272461,-79.175575,39.076336,-102.60305,2019-08-05 14:08:04,0.0
792.0,-0.07299805,-0.008300781,-0.005432129,-79.20611,49.076336,-105.16031,2019-08-05 14:08:04,0.0
793.0,-0.08099365,-0.008056641,0.0030517578000000003,-63.778625,53.908398,-98.87023,2019-08-05 14:08:04,0.0
794.0,-0.1003418,-0.0026855469,0.01171875,-43.099236,57.091602,-90.618324,2019-08-05 14:08:04,0.0
795.0,-0.11389160000000002,-0.005065918,0.014221191,-27.335878000000005,60.82443000000001,-81.66412,2019-08-05 14:08:04,0.0
796.0,-0.119628906,0.0006103515599999999,0.012878418,-2.832061,61.57251700000001,-72.43511,2019-08-05 14:08:04,0.0
797.0,-0.13006592,-0.0056152344,0.019165039,35.709923,56.954197,-60.419846,2019-08-05 14:08:04,0.0
798.0,-0.12982178,-0.0045776367,0.015686035,48.396946,48.15267,-49.0229,2019-08-05 14:08:04,0.0
799.0,-0.12805176,-0.00793457,0.0134887695,69.36641,32.10687,-29.229008,2019-08-05 14:08:04,0.0
800.0,-0.13287354,-0.005859375,0.0021972656,54.251907,21.854961,-13.877863,2019-08-05 14:08:04,0.0
801.0,-0.22442627,-0.0049438477,0.03857422,97.938934,-2.1450381000000003,24.312977,2019-08-05 14:08:04,0.0
802.0,-0.18792725,-0.007385254,-0.0022583008,21.206106,13.175572,20.404581,2019-08-05 14:08:04,0.0
803.0,-0.14105225,0.0020141602,-0.018432617,88.21374,-18.404581,32.969467,2019-08-05 14:08:04,0.0
804.0,-0.17871094,-0.013244629,-0.0014648438,79.26717,-44.76336,49.229008,2019-08-05 14:08:04,0.0
805.0,-0.18365479,0.0028076172,-0.024291992,9.557252,-38.21374,52.12214,2019-08-05 14:08:04,0.0
806.0,-0.13439941,0.003112793,-0.0234375,0.061068702,-30.80916,50.427483,2019-08-05 14:08:04,0.0
807.0,-0.079589844,0.0012207031,-0.008850098,-16.908398000000002,-19.473282,50.030533,2019-08-05 14:08:04,0.0
808.0,-0.07867432,0.0022583008,-0.010009766,-11.053435,-28.12977,58.70229000000001,2019-08-05 14:08:04,0.0
809.0,-0.08111572,0.0028076172,-0.007873535,-3.8015268,-27.29771,65.53435,2019-08-05 14:08:04,0.0
810.0,-0.07196045,0.0006103515599999999,-0.011779785,5.2061067,-26.152672,71.381676,2019-08-05 14:08:04,0.0
811.0,-0.08782959,-0.012329102,-0.010009766,17.442749,-22.687023,77.65649,2019-08-05 14:08:04,0.0
812.0,-0.10424805,-0.019042969,-0.012268066,14.656488,-20.465649,82.67175,2019-08-05 14:08:05,0.0
813.0,-0.11932373,-0.018676758,-0.016235351999999998,13.862596,-21.755726,87.89313,2019-08-05 14:08:05,0.0
814.0,-0.13134766,-0.021850586,-0.017211914,-3.4885497,-20.068703,90.46565,2019-08-05 14:08:05,0.0
815.0,-0.13934326,-0.013183594,-0.016296387,-9.335877,-18.137405,83.78626,2019-08-05 14:08:05,0.0
816.0,-0.15252686,-0.01940918,-0.010437012,-9.160305,-21.946566,75.40458000000002,2019-08-05 14:08:05,0.0
817.0,-0.14227295,-0.012756348,-0.0072021484,-18.374046,-15.725191,55.045803,2019-08-05 14:08:05,0.0
818.0,-0.17138672,-0.014526367,0.00982666,-8.770992,-33.778625,45.46565,2019-08-05 14:08:05,0.0
819.0,-0.24066162,-0.014343262,0.0095825195,-26.076336,-9.19084,29.366413,2019-08-05 14:08:05,0.0
820.0,-0.17321777,-0.016662598,0.007568359399999999,-13.938931,27.206106,-0.6793893,2019-08-05 14:08:05,0.0
821.0,-0.1362915,-0.020751953,0.0051879883,-44.38168,24.633587,-27.442749,2019-08-05 14:08:05,0.0
822.0,-0.17022705,-0.008544922,0.0053100586,-52.541985,20.48855,-47.16794,2019-08-05 14:08:05,0.0
823.0,-0.15161133,-0.011108398,0.007446289,-50.099236,32.44275,-68.9313,2019-08-05 14:08:05,0.0
824.0,-0.11798096,-0.018310547,0.009521484,-71.58015400000002,42.50382000000001,-86.31298000000002,2019-08-05 14:08:05,0.0
825.0,-0.11364746,-0.014526367,0.008972168,-86.64886,49.900764,-99.78626,2019-08-05 14:08:05,0.0
826.0,-0.10168457,-0.0025634766,0.0072631836,-76.24428,52.20611,-111.854965,2019-08-05 14:08:05,0.0
827.0,-0.083496094,-0.0068359375,0.005432129,-50.61832,56.9771,-123.53435,2019-08-05 14:08:05,0.0
828.0,-0.10510254,0.0005493164,0.01574707,-38.38168,63.14504,-130.0687,2019-08-05 14:08:05,0.0
829.0,-0.10345459,-0.009887695,0.0178833,-33.312977000000004,67.0229,-133.2061,2019-08-05 14:08:05,0.0
830.0,-0.10266113,-0.0078125,0.014404297,-15.534351,66.16794,-127.08397,2019-08-05 14:08:05,0.0
831.0,-0.11932373,-0.0056152344,0.019714355,-2.129771,65.71755999999999,-120.061066,2019-08-05 14:08:05,0.0
832.0,-0.11175537,-0.0044555664,0.0119018555,15.572519,57.76336,-107.00764,2019-08-05 14:08:05,0.0
833.0,-0.12054443,-0.009643555,0.016784668,28.122137,48.20611,-88.44275,2019-08-05 14:08:05,0.0
834.0,-0.12390137,-0.010925293,0.01763916,31.610687,40.51145,-68.183205,2019-08-05 14:08:05,0.0
835.0,-0.12890625,-0.014953613,0.015563965,36.251907,29.442749,-42.85496,2019-08-05 14:08:05,0.0
836.0,-0.13739014,-0.008972168,0.0048217773,31.969465000000003,17.839695000000006,-20.114504,2019-08-05 14:08:05,0.0
837.0,-0.15136719,-0.0026855469,0.013793945,56.458015,2.4198472,12.564885,2019-08-05 14:08:05,0.0
838.0,-0.16601562,-0.023010254,0.007873535,47.625954,-6.847328,46.198475,2019-08-05 14:08:05,0.0
839.0,-0.12554932,-0.022399902000000003,-0.013977051,36.53435,-13.694656,56.427483,2019-08-05 14:08:05,0.0
840.0,-0.10675049,-0.008178711,-0.01574707,37.007633,-26.847328000000005,65.78626,2019-08-05 14:08:05,0.0
841.0,-0.124694824,-0.009216309,-0.008239746,20.61832,-41.610687,75.64121999999998,2019-08-05 14:08:05,0.0
842.0,-0.15051270000000005,-0.0067749023,-0.013183594,-4.7175574000000005,-41.969467,76.72519,2019-08-05 14:08:05,0.0
843.0,-0.14312744,-0.008117675999999999,-0.012329102,-16.679389999999998,-29.519083,71.938934,2019-08-05 14:08:05,0.0
844.0,-0.10644531,-0.005004883,-0.02178955,-15.458015,-25.847328,73.65649,2019-08-05 14:08:05,0.0
845.0,-0.095458984,-0.010498047,-0.018066406,-2.8244274,-30.08397,73.41221999999998,2019-08-05 14:08:05,0.0
846.0,-0.093566895,-0.01171875,-0.017028809,6.5343513,-34.17557,76.67939,2019-08-05 14:08:05,0.0
847.0,-0.098083496,-0.007446289,-0.010070801,-2.2900763,-34.633587,81.0229,2019-08-05 14:08:05,0.0
848.0,-0.11328125,-0.005004883,-0.02709961,8.312977,-29.0,82.03817,2019-08-05 14:08:06,0.0
849.0,-0.12738037,-0.014038086000000002,-0.003112793,19.969465,-35.20610999999999,85.40458000000002,2019-08-05 14:08:06,0.0
850.0,-0.11804199,-0.011047363,-0.014282227,33.35878,-36.366413,92.30534,2019-08-05 14:08:06,0.0
851.0,-0.13214111,-0.008483886999999999,-0.014709473,16.12977,-32.10687,89.381676,2019-08-05 14:08:06,0.0
852.0,-0.14318848,-0.014038086000000002,-0.010375977,17.679389999999994,-33.526720000000005,81.05344000000002,2019-08-05 14:08:06,0.0
853.0,-0.15325928,-0.02545166,-0.007019043000000001,9.465649,-29.778625,74.19847,2019-08-05 14:08:06,0.0
854.0,-0.14807129,-0.021728516,-0.0063476562,4.3053436,-21.908398,59.251907,2019-08-05 14:08:06,0.0
855.0,-0.15258789,-0.010375977,-0.009643555,4.0992365,-15.427481,38.59542,2019-08-05 14:08:06,0.0
856.0,-0.14361572,-0.02130127,-0.0041503906,2.5954200000000003,-20.633587,22.167938,2019-08-05 14:08:06,0.0
857.0,-0.18688965,-0.023864746000000003,-0.0025634766,1.1068702,-16.038168,10.717557,2019-08-05 14:08:06,0.0
858.0,-0.17883301,-0.017028809,-0.012573242,1.5954198999999998,3.2366412,-4.5496182,2019-08-05 14:08:06,0.0
859.0,-0.12432861,-0.026611328,-0.010803223,-22.51145,23.412214,-23.519083,2019-08-05 14:08:06,0.0
860.0,-0.11224365,-0.018188477,-0.0071411133,-27.51145,14.7404585,-38.15267,2019-08-05 14:08:06,0.0
861.0,-0.13739014,-0.0126953125,0.004211426,-32.35878,19.57252,-54.290077,2019-08-05 14:08:06,0.0
862.0,-0.13922119,-0.018798828,0.00970459,-35.87786,34.045803,-62.564884,2019-08-05 14:08:06,0.0
863.0,-0.12512207,-0.020080566,0.008544922,-49.08397,45.305344,-73.83206,2019-08-05 14:08:06,0.0
864.0,-0.13391113,-0.0065307617,0.0030517578000000003,-54.099236,52.015266,-84.68701999999998,2019-08-05 14:08:06,0.0
865.0,-0.123291016,-0.0138549805,0.0009765625,-36.580154,53.52672,-94.15267,2019-08-05 14:08:06,0.0
866.0,-0.12634277,-0.008483886999999999,0.005981445300000001,-27.816793,52.938930000000006,-99.67939,2019-08-05 14:08:06,0.0
867.0,-0.122558594,-0.014953613,0.012451172,-32.450382,57.32824300000001,-104.47328,2019-08-05 14:08:06,0.0
868.0,-0.12072754,-0.011291504,0.0061035156000000005,-37.48855,61.435116,-106.45038,2019-08-05 14:08:06,0.0
869.0,-0.121032715,-0.005859375,0.007751465,-30.709923,62.435116,-104.25191,2019-08-05 14:08:06,0.0
870.0,-0.12841797,-0.00018310547,0.011108398,-14.465649,60.10687,-96.137405,2019-08-05 14:08:06,0.0
871.0,-0.13085938,-0.0053710938,0.013366699,9.19084,57.46565,-86.94655999999998,2019-08-05 14:08:06,0.0
872.0,-0.12677002,-0.011291504,0.020751953,23.412214,46.862595,-68.10687,2019-08-05 14:08:06,0.0
873.0,-0.1328125,-0.009155273,0.018920898,40.27481,42.396946,-49.419846,2019-08-05 14:08:06,0.0
874.0,-0.13214111,-0.0014038086,0.0107421875,42.748093,31.007633,-30.25191,2019-08-05 14:08:06,0.0
875.0,-0.1350708,-0.008666992,0.012451172,45.83206,17.770992,-11.0992365,2019-08-05 14:08:06,0.0
876.0,-0.15301514,-0.0115356445,0.021850586,49.954197,6.740458,16.374046,2019-08-05 14:08:06,0.0
877.0,-0.16638184,-0.019165039,0.008300781,40.435116,-3.0839694,38.129772,2019-08-05 14:08:06,0.0
878.0,-0.12048339999999998,-0.012268066,-0.010131836,19.534351,-8.320611,43.717556,2019-08-05 14:08:06,0.0
879.0,-0.07904053,-0.0030517578000000003,-0.007080078,29.931297,-25.641222,48.229008,2019-08-05 14:08:06,0.0
880.0,-0.111572266,-0.005981445300000001,-0.00036621094,16.923664000000002,-41.389313,47.427483,2019-08-05 14:08:06,0.0
881.0,-0.12872314,-0.009521484,-0.00091552734,-17.160304999999994,-40.10687,44.51145,2019-08-05 14:08:06,0.0
882.0,-0.12402344,-0.004699707,-0.008605957,-34.473279999999995,-30.931297,43.282444,2019-08-05 14:08:07,0.0
883.0,-0.10485839999999998,0.0051879883,-0.010925293,-31.152671999999995,-24.244274,43.007633,2019-08-05 14:08:07,0.0
884.0,-0.092041016,0.0007324219,-0.014709473,-5.8625956,-24.89313,44.748093,2019-08-05 14:08:07,0.0
885.0,-0.10583496,-0.003112793,-0.002746582,9.61832,-30.328245000000006,50.068703,2019-08-05 14:08:07,0.0
886.0,-0.10180664,0.0017700195,-0.00982666,14.832060999999998,-32.48855,54.809162,2019-08-05 14:08:07,0.0
887.0,-0.12615967,-0.0138549805,-0.010681152,23.694656,-32.816795,63.603054,2019-08-05 14:08:07,0.0
888.0,-0.12048339999999998,-0.018737793,-0.010253906,16.625954,-28.900763,69.19084000000001,2019-08-05 14:08:07,0.0
889.0,-0.12298584,-0.012939453,-0.015991211,13.870229,-32.343509999999995,72.48092,2019-08-05 14:08:07,0.0
890.0,-0.12518310000000002,-0.013549805,-0.019714355,16.801527,-36.335876,69.29771,2019-08-05 14:08:07,0.0
891.0,-0.12438965,-0.016174316,-0.017944336,21.374046,-38.809162,66.862595,2019-08-05 14:08:07,0.0
892.0,-0.14379883,-0.015625,-0.013671875,7.4274807,-37.79389000000001,60.267174,2019-08-05 14:08:07,0.0
893.0,-0.14770508,-0.024780273,-0.010070801,-2.2366412,-29.61832,51.198475,2019-08-05 14:08:07,0.0
894.0,-0.14068604,-0.012268066,-0.010803223,-4.816794,-20.587786,35.885498,2019-08-05 14:08:07,0.0
895.0,-0.14056396,-0.018127441,-0.008911133,-11.78626,-14.549619,20.259542,2019-08-05 14:08:07,0.0
896.0,-0.12658691,-0.018066406,-0.009399414,-14.106871,-13.0992365,9.007633,2019-08-05 14:08:07,0.0
897.0,-0.16729736,-0.015258788999999997,0.0018310547,-8.755725,-23.770992,11.2213745,2019-08-05 14:08:07,0.0
898.0,-0.20343018,-0.015014648,-0.007873535,-20.25191,-4.40458,8.916031,2019-08-05 14:08:07,0.0
899.0,-0.15252686,-0.025024414,-0.009460449,-25.404581,24.832062,-1.6717557,2019-08-05 14:08:07,0.0
900.0,-0.08435058599999999,-0.015136719,-0.016540527,-33.923664,31.541985,-22.022902,2019-08-05 14:08:07,0.0
901.0,-0.090270996,-0.0134887695,-0.009521484,-14.832060999999998,13.656488,-35.76336,2019-08-05 14:08:07,0.0
902.0,-0.11804199,-0.011474608999999998,0.00592041,-15.587787,26.503817,-49.44275,2019-08-05 14:08:07,0.0
903.0,-0.11846924,-0.012207031,0.012023926,-26.343512,37.374046,-58.81679499999999,2019-08-05 14:08:07,0.0
904.0,-0.13342285,-0.0134887695,0.010559082,-30.091602,47.27481,-66.61069,2019-08-05 14:08:07,0.0
905.0,-0.15032959,-0.008544922,0.003967285,-27.717558,54.610687,-74.99235999999998,2019-08-05 14:08:07,0.0
906.0,-0.1303711,-0.004760742,0.005493164,-9.442748,53.290077,-82.145035,2019-08-05 14:08:07,0.0
907.0,-0.12890625,-0.0043945312,0.0013427734,-5.587786,50.20611,-88.1145,2019-08-05 14:08:07,0.0
908.0,-0.12054443,-0.011352538999999998,0.0067749023,-10.80916,52.305344,-97.618324,2019-08-05 14:08:07,0.0
909.0,-0.11401367,-0.0010375977,0.014160156,-23.595419,54.53435,-102.75572,2019-08-05 14:08:07,0.0
910.0,-0.115600586,-0.008728027,0.01184082,-21.030535,51.099236,-100.83969,2019-08-05 14:08:07,0.0
911.0,-0.1149292,-0.0038452148,0.013305663999999998,-14.641221,50.27481,-95.419846,2019-08-05 14:08:07,0.0
912.0,-0.12017822,-0.010925293,0.010070801,5.3129773,43.412212,-78.12214,2019-08-05 14:08:07,0.0
913.0,-0.13256836,-0.0078125,0.011352538999999998,20.19084,38.14504,-57.129772,2019-08-05 14:08:07,0.0
914.0,-0.119018555,-0.016174316,0.013793945,25.015266,31.61832,-39.129772,2019-08-05 14:08:07,0.0
915.0,-0.12518310000000002,-0.014587402,0.006042480500000001,29.74809,19.160305,-17.206106,2019-08-05 14:08:07,0.0
916.0,-0.14904785,-0.013427733999999998,0.017944336,39.221375,5.7099237,14.030535,2019-08-05 14:08:07,0.0
917.0,-0.17687988,-0.022827148,0.010925293,36.374046,0.79389316,42.572517,2019-08-05 14:08:07,0.0
918.0,-0.16809082,-0.014892578,-0.0028686523,32.702290000000005,-5.3053436,59.732826,2019-08-05 14:08:08,0.0
919.0,-0.11236572,-0.018493652,-0.020263672,24.51145,-15.977099,60.0,2019-08-05 14:08:08,0.0
920.0,-0.09246826,-0.004028320300000001,-0.008056641,29.992367,-31.496183,55.81679499999999,2019-08-05 14:08:08,0.0
921.0,-0.1081543,-0.015197754,-0.0099487305,18.801527,-44.366413,51.717556,2019-08-05 14:08:08,0.0
922.0,-0.13128662,-0.014343262,-0.0030517578000000003,-19.351145,-31.908398,45.229008,2019-08-05 14:08:08,0.0
923.0,-0.12310791,-0.01184082,-0.0044555664,-36.51145,-19.450382,39.564884,2019-08-05 14:08:08,0.0
924.0,-0.099975586,-0.008422852,-0.014038086000000002,-36.44275,-14.870229,37.870228,2019-08-05 14:08:08,0.0
925.0,-0.09906006,-0.0036621094,-0.015075684,3.389313,-21.503817,42.648853,2019-08-05 14:08:08,0.0
926.0,-0.10205078,-0.012939453,-0.0061035156000000005,17.152672,-28.526718,51.15267,2019-08-05 14:08:08,0.0
927.0,-0.10882568,-0.016784668,-0.007385254,18.534351,-29.717558,57.389313,2019-08-05 14:08:08,0.0
928.0,-0.10522461,-0.016723633,-0.0138549805,11.679389,-29.534351,63.20611,2019-08-05 14:08:08,0.0
929.0,-0.121154785,-0.013671875,-0.0154418945,12.954199,-33.198475,65.70229,2019-08-05 14:08:08,0.0
930.0,-0.13098145,-0.01159668,-0.022338867,10.854961,-30.12977,62.38168,2019-08-05 14:08:08,0.0
931.0,-0.125,-0.012939453,-0.01751709,1.389313,-28.213741,54.53435,2019-08-05 14:08:08,0.0
932.0,-0.13208008,-0.012451172,-0.015075684,0.58778626,-28.57252,44.55725,2019-08-05 14:08:08,0.0
933.0,-0.15106201,-0.007507324,-0.005981445300000001,8.2595415,-27.67939,36.030533,2019-08-05 14:08:08,0.0
934.0,-0.15948486,-0.007873535,-0.005493164,7.8244276,-20.091602,25.755726,2019-08-05 14:08:08,0.0
935.0,-0.14093018,-0.0146484375,-0.0045166016,1.7175573,-13.717557,14.763359,2019-08-05 14:08:08,0.0
936.0,-0.13598633,-0.0040893555,-0.0073242188,-2.1374047000000003,-12.015267,4.9541984,2019-08-05 14:08:08,0.0
937.0,-0.17425537,-0.014526367,0.0,7.3282440000000015,-16.786259,5.625954,2019-08-05 14:08:08,0.0
938.0,-0.19177246,-0.024475098,-0.0045166016,-5.9007635,-6.3816795,9.908397,2019-08-05 14:08:08,0.0
939.0,-0.15325928,-0.020080566,-0.0095825195,-12.641221,15.045801,-0.73282444,2019-08-05 14:08:08,0.0
940.0,-0.097717285,-0.012329102,-0.010925293,-33.10687,24.61832,-17.534351,2019-08-05 14:08:08,0.0
941.0,-0.112854004,-0.012634277,-0.008666992,-15.030535,11.694656,-27.885496000000003,2019-08-05 14:08:08,0.0
942.0,-0.13745117,-0.013061523,0.0107421875,-22.984734,22.603054,-40.961834,2019-08-05 14:08:08,0.0
943.0,-0.14013672,-0.013549805,0.0115356445,-39.229008,41.76336,-51.923664,2019-08-05 14:08:08,0.0
944.0,-0.11175537,-0.01373291,0.008483886999999999,-51.14504,54.25954,-64.900764,2019-08-05 14:08:08,0.0
945.0,-0.10412598,-0.003112793,-0.005493164,-40.412212,53.12214,-73.79389,2019-08-05 14:08:08,0.0
946.0,-0.10662842,-0.002319336,0.0052490234,-25.816793,47.244274,-81.03817,2019-08-05 14:08:08,0.0
947.0,-0.11236572,-0.0021972656,0.0048217773,-25.61832,47.20611,-82.10687,2019-08-05 14:08:08,0.0
948.0,-0.11273193,-0.013916016000000002,0.007446289,-38.709923,51.045803,-78.51145,2019-08-05 14:08:08,0.0
949.0,-0.12170410000000002,-0.01171875,0.018493652,-38.961834,51.839695,-69.71755999999999,2019-08-05 14:08:08,0.0
950.0,-0.12200928,-0.006958008000000001,0.015380858999999997,-31.847328000000005,54.74046,-62.47328,2019-08-05 14:08:08,0.0
951.0,-0.11273193,-0.002380371,0.016662598,-11.938931,49.648853,-54.221375,2019-08-05 14:08:08,0.0
952.0,-0.114868164,-0.00970459,0.013366699,13.282443,41.374046,-41.46565,2019-08-05 14:08:08,0.0
953.0,-0.12335205,-0.007873535,0.024414062,39.267174,33.702290000000005,-30.541985,2019-08-05 14:08:08,0.0
954.0,-0.12548828,-0.011352538999999998,0.026123047000000003,53.732826,22.175573,-15.541985,2019-08-05 14:08:09,0.0
955.0,-0.12542725,-0.015197754,0.020507812,41.20611,20.038168,-6.0305343,2019-08-05 14:08:09,0.0
956.0,-0.14886475,-0.013305663999999998,0.008544922,25.274809,7.068702,9.015267,2019-08-05 14:08:09,0.0
957.0,-0.16278076,-0.015686035,0.016540527,29.549618,4.603053599999999,25.305344,2019-08-05 14:08:09,0.0
958.0,-0.16357422,-0.021240234,0.0087890625,10.519084,-7.183206,40.160305,2019-08-05 14:08:09,0.0
959.0,-0.09643555,-0.0072631836,-0.02508545,-3.167939,-16.557251,32.526720000000005,2019-08-05 14:08:09,0.0
960.0,-0.09643555,0.008178711,-0.013793945,38.61832,-38.32061,26.198473,2019-08-05 14:08:09,0.0
961.0,-0.12854004,-0.015197754,-0.0041503906,20.229008,-49.694656,24.725191,2019-08-05 14:08:09,0.0
962.0,-0.13922119,-0.014465332,-0.0037231445,-17.274809,-39.290077,14.893129,2019-08-05 14:08:09,0.0
963.0,-0.11767578,-0.0006713867,-0.01739502,-35.366413,-23.67939,7.7862597,2019-08-05 14:08:09,0.0
964.0,-0.09741211,0.008666992,-0.019897461,-30.412214,-16.335878,8.9007635,2019-08-05 14:08:09,0.0
965.0,-0.08685303,0.0036010742,-0.019836426,7.5267177,-21.954199,13.267176,2019-08-05 14:08:09,0.0
966.0,-0.103149414,-0.0032958984000000004,-0.01751709,17.312977,-27.656488,23.549618,2019-08-05 14:08:09,0.0
967.0,-0.10369873,-0.004272461,-0.010253906,18.946566,-25.786259,32.87786,2019-08-05 14:08:09,0.0
968.0,-0.10668945,0.003967285,-0.027770996000000003,35.76336,-22.48855,38.49618,2019-08-05 14:08:09,0.0
969.0,-0.12200928,-0.0038452148,-0.032043457000000004,67.770996,-20.801527,42.984734,2019-08-05 14:08:09,0.0
970.0,-0.12213135,-0.038085938,-0.018005371000000003,83.816795,-24.038168,47.923664,2019-08-05 14:08:09,0.0
971.0,-0.118896484,-0.025817871000000003,-0.018554688,28.755726,-14.969465,47.946564,2019-08-05 14:08:09,0.0
972.0,-0.13549805,-0.020263672,-0.010864258,-3.1908398,-18.053434,52.938930000000006,2019-08-05 14:08:09,0.0
973.0,-0.14880371,-0.014038086000000002,-0.010375977,-18.847328,-17.305344,52.70229000000001,2019-08-05 14:08:09,0.0
974.0,-0.14782715,-0.017150878999999997,-0.010192871,-27.564886,-9.702291,45.030533,2019-08-05 14:08:09,0.0
975.0,-0.14007568,-0.016174316,-0.008117675999999999,-27.015266,-6.89313,32.748093,2019-08-05 14:08:09,0.0
976.0,-0.14776611,-0.008117675999999999,-0.006164551,-20.412214,-11.519084,25.022902,2019-08-05 14:08:09,0.0
977.0,-0.17687988,-0.01739502,0.0038452148,-25.610687,-11.473283,22.137405,2019-08-05 14:08:09,0.0
978.0,-0.18005371,-0.018737793,-0.005493164,-48.748093,0.9236641,16.908398000000002,2019-08-05 14:08:09,0.0
979.0,-0.15478516,-0.017456055,-0.015930176,-71.30534,20.717558,6.396946400000001,2019-08-05 14:08:09,0.0
980.0,-0.10723877,-0.010498047,-0.012634277,-64.618324,21.145039,-6.3206105,2019-08-05 14:08:09,0.0
981.0,-0.11260986,-0.0072631836,0.0014038086,-51.9771,12.137404,-13.282443,2019-08-05 14:08:09,0.0
982.0,-0.13415527,-0.015075684,0.011230469,-43.137405,19.48855,-19.793894,2019-08-05 14:08:09,0.0
983.0,-0.14270020000000005,-0.01953125,0.013671875,-52.57251700000001,32.10687,-22.610687,2019-08-05 14:08:09,0.0
984.0,-0.13708496,-0.019592285,0.006164551,-51.946564,43.778625,-26.42748,2019-08-05 14:08:09,0.0
985.0,-0.11224365,-0.0072631836,0.007629394499999998,-30.10687,48.23664,-35.412212,2019-08-05 14:08:09,0.0
986.0,-0.11114502,-0.0064086914,0.0095825195,-12.328244,42.84733,-44.664124,2019-08-05 14:08:09,0.0
987.0,-0.110961914,-0.004760742,0.013977051,-17.908398000000005,40.419846,-53.32824300000001,2019-08-05 14:08:09,0.0
988.0,-0.10510254,-0.010437012,0.02142334,-25.534351,41.52672000000001,-56.038166,2019-08-05 14:08:09,0.0
989.0,-0.10437012,-0.008300781,0.013916016000000002,-33.595420000000004,43.25954,-56.83969499999999,2019-08-05 14:08:09,0.0
990.0,-0.10290527,-0.015991211,0.018493652,-23.030535,41.419846,-54.46565,2019-08-05 14:08:09,0.0
991.0,-0.11450195,-0.009887695,0.023742676,-15.183207,37.587788,-54.076336,2019-08-05 14:08:10,0.0
992.0,-0.11462402,-0.009643555,0.015808105,1.0,32.08397,-44.74046,2019-08-05 14:08:10,0.0
993.0,-0.1159668,-0.014526367,0.015625,28.183207,26.404581,-34.21374,2019-08-05 14:08:10,0.0
994.0,-0.14385986,-0.01965332,0.027282715,27.450382,23.816793,-26.038168,2019-08-05 14:08:10,0.0
995.0,-0.14019775,-0.012573242,0.015380858999999997,13.022901,22.137405,-17.702289999999994,2019-08-05 14:08:10,0.0
996.0,-0.1293335,0.0056152344,0.0020141602,8.564885,13.412213,-13.916031,2019-08-05 14:08:10,0.0
997.0,-0.15826416,0.0072631836,0.016296387,39.610687,-6.59542,5.1908400000000015,2019-08-05 14:08:10,0.0
998.0,-0.17803955,-0.0053100586,0.013549805,11.977099,-11.694656,13.435115,2019-08-05 14:08:10,0.0
999.0,-0.15106201,-0.0030517578000000003,-0.022888184,8.480916,-18.412214,14.549619,2019-08-05 14:08:10,0.0
1000.0,-0.10180664,0.0028686523,-0.032714844,19.824427,-23.206106,6.709923700000001,2019-08-05 14:08:10,0.0
1001.0,-0.086120605,-0.0031738281,-0.018554688,27.465649,-40.76336,5.40458,2019-08-05 14:08:10,0.0
1002.0,-0.12213135,-0.0015258789,-0.015075684,7.8778625,-42.366413,4.9541984,2019-08-05 14:08:10,0.0
1003.0,-0.14172363,0.0056152344,-0.016479492,-29.022902,-24.435114,0.8702290000000001,2019-08-05 14:08:10,0.0
1004.0,-0.11730957,0.0048828125,-0.02734375,-37.221375,-7.541984599999998,-2.480916,2019-08-05 14:08:10,0.0
1005.0,-0.09716797,0.00982666,-0.022033691,-12.938931,-6.0610685,-0.061068702,2019-08-05 14:08:10,0.0
1006.0,-0.103027344,-0.0015869141,-0.021057129,16.709923,-18.290077,10.366412,2019-08-05 14:08:10,0.0
1007.0,-0.10101318,-0.00982666,-0.016845703,18.007633,-17.435114000000002,16.931297,2019-08-05 14:08:10,0.0
1008.0,-0.11291504,-0.016418457,-0.02355957,3.870229,-14.343512,28.068703000000006,2019-08-05 14:08:10,0.0
1009.0,-0.11102295,-0.017456055,-0.025390625,-8.526717,-12.687023,36.70229000000001,2019-08-05 14:08:10,0.0
1010.0,-0.10772705,-0.013793945,-0.023620605,-13.923664000000002,-16.57252,42.52672000000001,2019-08-05 14:08:10,0.0
1011.0,-0.10809326,-0.009277344,-0.014282227,-14.015267,-17.328245000000006,45.664124,2019-08-05 14:08:10,0.0
1012.0,-0.11218262,-0.0095825195,-0.019897461,-11.435115,-17.366413,46.12214,2019-08-05 14:08:10,0.0
1013.0,-0.11993408,-0.013183594,-0.012817383,-3.335878,-18.045801,47.32061,2019-08-05 14:08:10,0.0
1014.0,-0.12957764,-0.013061523,-0.009460449,-1.3053435,-16.404581,46.305344,2019-08-05 14:08:10,0.0
1015.0,-0.13500977,-0.018920898,-0.0053710938,-3.59542,-14.992367000000002,44.78626,2019-08-05 14:08:10,0.0
1016.0,-0.14813232,-0.018249512,-0.013061523,-11.732824,-12.625955,36.091602,2019-08-05 14:08:10,0.0
1017.0,-0.14721679999999998,-0.015075684,-0.002319336,-20.152672,-16.458015,28.839695000000006,2019-08-05 14:08:10,0.0
1018.0,-0.19146729,-0.012939453,0.0020751953,-30.526718,-14.984733,26.213741,2019-08-05 14:08:10,0.0
1019.0,-0.19189453,-0.02166748,0.0008544922000000001,-33.282444,-8.496183,22.312977,2019-08-05 14:08:10,0.0
1020.0,-0.14746094,-0.024719238,-0.0029296875,-48.717556,5.5190839999999985,7.145038,2019-08-05 14:08:10,0.0
1021.0,-0.10180664,-0.010375977,-0.009399414,-54.16030500000001,9.0,-11.465649,2019-08-05 14:08:10,0.0
1022.0,-0.0982666,-0.0056152344,-0.004638672,-32.679390000000005,2.5419848,-24.816793,2019-08-05 14:08:10,0.0
1023.0,-0.12213135,-0.01586914,0.022033691,-31.068703000000006,6.5114503,-33.129772,2019-08-05 14:08:10,0.0
1024.0,-0.12963867,-0.014526367,0.019836426,-62.687023,23.503817,-41.38168,2019-08-05 14:08:10,0.0
1025.0,-0.12731934,-0.008911133,0.00970459,-66.25954399999999,35.251907,-49.32061,2019-08-05 14:08:11,0.0
1026.0,-0.107910156,-0.004638672,0.0068969727,-46.748093,34.687023,-54.34351,2019-08-05 14:08:11,0.0
1027.0,-0.10076904,-0.0053100586,0.010253906,-24.709923,29.366413,-55.40458,2019-08-05 14:08:11,0.0
1028.0,-0.11767578,-0.009521484,0.01727295,-15.374045,26.442749,-59.55725,2019-08-05 14:08:11,0.0
1029.0,-0.10626221,-0.00592041,0.018615723,-26.19084,28.290077,-60.32061,2019-08-05 14:08:11,0.0
1030.0,-0.10601807,-0.009887695,0.014770508,-33.503820000000005,31.595419,-55.21374,2019-08-05 14:08:11,0.0
1031.0,-0.11218262,-0.012145996,0.0154418945,-25.38168,31.625954,-53.587788,2019-08-05 14:08:11,0.0
1032.0,-0.11090088,-0.0138549805,0.022277832,-16.717558,29.244274,-45.14504,2019-08-05 14:08:11,0.0
1033.0,-0.1171875,-0.009277344,0.025268555,-1.832061,21.847328,-34.519085,2019-08-05 14:08:11,0.0
1034.0,-0.13061523,-0.0134887695,0.023986816,7.603053599999999,17.534351,-22.694656,2019-08-05 14:08:11,0.0
1035.0,-0.14239502,-0.009765625,0.022705078,16.389313,11.351145,-11.2213745,2019-08-05 14:08:11,0.0
1036.0,-0.14929199,-0.016906738,0.014465332,10.641221,6.4503818,-0.55725193,2019-08-05 14:08:11,0.0
1037.0,-0.13726807,-0.012329102,0.006164551,-4.2290077,2.9160306,5.3511453,2019-08-05 14:08:11,0.0
1038.0,-0.1694336,-0.004211426,0.01373291,6.9541984,-7.9541984,21.175573,2019-08-05 14:08:11,0.0
1039.0,-0.18463135,-0.009887695,0.013671875,-11.129771,-4.6412215,28.900763,2019-08-05 14:08:11,0.0
1040.0,-0.13104248,-0.012451172,-0.01928711,-5.5648856,-3.29771,23.244274,2019-08-05 14:08:11,0.0
1041.0,-0.08032226599999999,0.01940918,-0.021606445,18.908398,-4.89313,11.465649,2019-08-05 14:08:11,0.0
1042.0,-0.09576416,-0.0026245117,-0.005554199,41.59542,-29.450382,10.236641,2019-08-05 14:08:11,0.0
1043.0,-0.12530518,-0.00982666,-0.005676269499999999,12.183207,-25.274809,7.625953999999999,2019-08-05 14:08:11,0.0
1044.0,-0.13171387,-0.0029296875,-0.011108398,-10.564885,-7.3129773,2.7862597,2019-08-05 14:08:11,0.0
1045.0,-0.099487305,0.005737304699999999,-0.015136719,-2.2442749,4.236641400000001,1.3435115,2019-08-05 14:08:11,0.0
1046.0,-0.08807373,0.012329102,-0.0211792,22.625954,5.40458,1.038168,2019-08-05 14:08:11,0.0
1047.0,-0.09161377,0.009216309,-0.012756348,36.435116,-0.77862597,4.4809160000000015,2019-08-05 14:08:11,0.0
1048.0,-0.10144043,-0.0017700195,-0.004638672,46.687023,-2.1450381000000003,10.465649,2019-08-05 14:08:11,0.0
1049.0,-0.10345459,-0.005554199,-0.0015869141,33.473279999999995,0.061068702,20.19084,2019-08-05 14:08:11,0.0
1050.0,-0.11584473,-0.009521484,-0.005004883,30.305344,1.129771,29.198473,2019-08-05 14:08:11,0.0
1051.0,-0.11126709,-0.010925293,-0.012268066,22.374046,-2.4198472,33.587788,2019-08-05 14:08:11,0.0
1052.0,-0.11022949,-0.021057129,-0.016113281,10.335877,-10.977099,40.030533,2019-08-05 14:08:11,0.0
1053.0,-0.12225342,-0.021728516,-0.007629394499999998,-8.404580000000001,-19.29771,43.06107,2019-08-05 14:08:11,0.0
1054.0,-0.1282959,-0.017211914,-0.010437012,-21.770992,-21.587786,43.52672000000001,2019-08-05 14:08:11,0.0
1055.0,-0.13031006,-0.019897461,-0.001953125,-34.076336,-20.732824,41.46565,2019-08-05 14:08:11,0.0
1056.0,-0.14050293,-0.008728027,-0.0044555664,-31.977098,-17.89313,36.015266,2019-08-05 14:08:11,0.0
1057.0,-0.13238525,-0.007385254,-0.010192871,-21.175573,-19.290077,26.80916,2019-08-05 14:08:11,0.0
1058.0,-0.12445068,-0.009460449,-0.0017089844,-4.366412,-24.732824,19.557251,2019-08-05 14:08:11,0.0
1059.0,-0.16345215,-0.011962891000000002,0.008178711,0.5648854999999999,-33.725190000000005,22.068703,2019-08-05 14:08:11,0.0
1060.0,-0.20819092,-0.019104004,0.0032958984000000004,-11.862596,-19.76336,26.160305,2019-08-05 14:08:11,0.0
1061.0,-0.14978027,-0.021240234,-0.009216309,-24.312977,8.2213745,13.671756,2019-08-05 14:08:11,0.0
1062.0,-0.103759766,-0.020080566,-0.0079956055,-29.839695000000006,8.633588,-1.2061069,2019-08-05 14:08:12,0.0
1063.0,-0.12957764,-0.01574707,-0.00030517577999999995,-32.76336,0.5038168,-14.694656,2019-08-05 14:08:12,0.0
1064.0,-0.14642334,-0.010559082,0.008605957,-32.35878,14.671756,-30.633587,2019-08-05 14:08:12,0.0
1065.0,-0.1081543,-0.016357422,0.0030517578000000003,-52.885498,32.015266,-46.961834,2019-08-05 14:08:12,0.0
1066.0,-0.1015625,-0.014526367,-0.0052490234,-58.62595400000001,35.984734,-54.908398,2019-08-05 14:08:12,0.0
1067.0,-0.11016846,0.0013427734,0.0022583008,-52.862595,36.099236,-65.80915999999999,2019-08-05 14:08:12,0.0
1068.0,-0.099487305,-0.010070801,0.010131836,-45.931297,36.49618,-75.12214,2019-08-05 14:08:12,0.0
1069.0,-0.09832764,-0.005493164,0.010864258,-54.114502,41.91603,-75.46565,2019-08-05 14:08:12,0.0
1070.0,-0.10809326,-0.004638672,0.01373291,-57.69465600000001,45.992367,-72.23664000000002,2019-08-05 14:08:12,0.0
1071.0,-0.11315918,-0.007751465,0.008911133,-48.076336,50.099236,-69.57252,2019-08-05 14:08:12,0.0
1072.0,-0.12945557,-0.0041503906,0.019592285,-21.541985,50.40458,-60.801525,2019-08-05 14:08:12,0.0
1073.0,-0.13018799,-0.0010375977,0.020080566,10.5801525,47.305344,-53.48855,2019-08-05 14:08:12,0.0
1074.0,-0.11804199,-0.006042480500000001,0.014587402,29.06107,40.9771,-40.29771,2019-08-05 14:08:12,0.0
1075.0,-0.14300537,-0.0064697266000000005,0.020263672,61.48855,28.045801,-28.419847,2019-08-05 14:08:12,0.0
1076.0,-0.13787842,-0.0021362305,0.015930176,70.78626,14.343512,-14.748092000000002,2019-08-05 14:08:12,0.0
1077.0,-0.12872314,-0.00091552734,0.00793457,68.42748,7.4198475,-6.2137403,2019-08-05 14:08:12,0.0
1078.0,-0.16381836,-0.013671875,0.023132324,70.229004,-11.473283,14.4198475,2019-08-05 14:08:12,0.0
1079.0,-0.16680908,-0.008666992,0.0154418945,27.656488,-6.374046,30.351145,2019-08-05 14:08:12,0.0
1080.0,-0.13079834,-0.0138549805,-0.011657715,15.297709,-5.4274807,34.129772,2019-08-05 14:08:12,0.0
1081.0,-0.0904541,0.0032958984000000004,-0.0087890625,27.87023,-15.374045,27.267176,2019-08-05 14:08:12,0.0
1082.0,-0.12011719,-0.008483886999999999,-0.0021362305,20.641222,-38.770992,27.450382,2019-08-05 14:08:12,0.0
1083.0,-0.16015625,-0.01184082,-0.0051879883,-4.7862597,-32.450382,24.557251,2019-08-05 14:08:12,0.0
1084.0,-0.13238525,-0.001159668,-0.016174316,-29.564886,-15.526717,12.977099,2019-08-05 14:08:12,0.0
1085.0,-0.09893799,-0.0022583008,-0.020385742,-19.908398,-6.3206105,9.938931,2019-08-05 14:08:12,0.0
1086.0,-0.08416748,-0.007019043000000001,-0.018371582,-4.9770994,-13.4198475,10.969465,2019-08-05 14:08:12,0.0
1087.0,-0.08636474599999999,-0.0037231445,-0.016296387,10.106871,-19.793894,15.335876999999998,2019-08-05 14:08:12,0.0
1088.0,-0.105407715,-0.0064697266000000005,-0.01574707,2.9160306,-14.916031,19.19084,2019-08-05 14:08:12,0.0
1089.0,-0.097961426,-0.007385254,-0.02319336,0.24427481,-7.603053599999999,25.48855,2019-08-05 14:08:12,0.0
1090.0,-0.09802246,-0.011230469,-0.019958496000000003,7.068702,-7.366411999999999,29.824427000000004,2019-08-05 14:08:12,0.0
1091.0,-0.11743164,-0.01751709,-0.020019531,12.022901,-10.305344,33.549618,2019-08-05 14:08:12,0.0
1092.0,-0.11669922,-0.02154541,-0.019104004,9.687023,-12.954199,33.900764,2019-08-05 14:08:12,0.0
1093.0,-0.13800049,-0.01977539,-0.010986328,2.8854961,-13.603053,35.17557,2019-08-05 14:08:12,0.0
1094.0,-0.14379883,-0.011047363,-0.008361816,-3.7633588,-11.129771,35.59542000000001,2019-08-05 14:08:12,0.0
1095.0,-0.15637207,-0.01361084,-0.009521484,-7.9160304,-10.526717,32.450382,2019-08-05 14:08:12,0.0
1096.0,-0.14636229999999995,-0.010803223,-0.0072631836,-11.534351,-8.236641,26.282442,2019-08-05 14:08:12,0.0
1097.0,-0.12640381,-0.005737304699999999,-0.012329102,-9.78626,-12.770992,14.21374,2019-08-05 14:08:13,0.0
1098.0,-0.16888428,-0.009094238,0.003112793,3.351145,-22.450382,14.923664000000002,2019-08-05 14:08:13,0.0
1099.0,-0.19641113,-0.016174316,0.007568359399999999,-3.8931298,-7.816794,16.198473,2019-08-05 14:08:13,0.0
1100.0,-0.14556885,-0.019592285,-0.006042480500000001,-10.320611,10.954199,6.0992365,2019-08-05 14:08:13,0.0
1101.0,-0.09887695,-0.007019043000000001,-0.0053710938,-22.08397,14.229008,-11.122137,2019-08-05 14:08:13,0.0
1102.0,-0.1116333,-0.01171875,0.0005493164,-22.374046,2.2137403,-19.442749,2019-08-05 14:08:13,0.0
1103.0,-0.13146973,-0.010681152,0.013244629,-30.755726,8.320611,-25.832062,2019-08-05 14:08:13,0.0
1104.0,-0.12573242,-0.008850098,0.017211914,-57.923664,20.099237,-33.870228000000004,2019-08-05 14:08:13,0.0
1105.0,-0.109069824,-0.009094238,0.011047363,-63.099236,26.648855,-38.114502,2019-08-05 14:08:13,0.0
1106.0,-0.097473145,0.0028686523,0.012207031,-54.938930000000006,26.419847,-43.099236,2019-08-05 14:08:13,0.0
1107.0,-0.09979248,0.003112793,0.015197754,-33.435116,20.351145,-46.91603,2019-08-05 14:08:13,0.0
1108.0,-0.1083374,-0.007873535,0.01159668,-29.213741,19.824427,-46.38168,2019-08-05 14:08:13,0.0
1109.0,-0.09820557,-0.004028320300000001,0.015686035,-28.51145,24.374046,-47.61832,2019-08-05 14:08:13,0.0
1110.0,-0.10675049,-0.0028686523,0.019592285,-16.931297,27.51145,-44.12214,2019-08-05 14:08:13,0.0
1111.0,-0.099243164,-0.0018920898,0.022583008,0.35877863,27.145039,-36.282444,2019-08-05 14:08:13,0.0
1112.0,-0.11126709,-0.0008544922000000001,0.024169922000000003,18.755726,24.114504,-26.022902,2019-08-05 14:08:13,0.0
1113.0,-0.13092041,-0.0078125,0.017700195,30.671755,20.564886,-16.290077,2019-08-05 14:08:13,0.0
1114.0,-0.14379883,-0.009216309,0.02520752,41.305344,14.870229,-4.778626,2019-08-05 14:08:13,0.0
1115.0,-0.14801025,-0.005004883,0.019165039,41.70229000000001,11.106871,8.717557000000001,2019-08-05 14:08:13,0.0
1116.0,-0.1449585,-0.014099121,0.0028686523,31.458015000000003,8.167939,10.770992,2019-08-05 14:08:13,0.0
1117.0,-0.15136719,-0.0036621094,0.0115356445,37.717556,-6.3206105,23.435114,2019-08-05 14:08:13,0.0
1118.0,-0.19403076,-0.0073242188,0.011779785,31.87023,-4.473282299999998,31.740458,2019-08-05 14:08:13,0.0
1119.0,-0.1593628,-0.009216309,0.0072021484,30.923664,2.8778627,32.748093,2019-08-05 14:08:13,0.0
1120.0,-0.10772705,0.0030517578000000003,-0.016052246000000003,26.969465000000003,0.007633588,20.824427,2019-08-05 14:08:13,0.0
1121.0,-0.080200195,-0.0063476562,-0.0134887695,39.06107,-19.091602,15.7786255,2019-08-05 14:08:13,0.0
1122.0,-0.12939453,-0.003112793,-0.0053100586,30.19084,-27.351145,12.236641,2019-08-05 14:08:13,0.0
1123.0,-0.14794922,-0.011047363,-0.0064086914,5.152672,-15.267176,8.519084,2019-08-05 14:08:13,0.0
1124.0,-0.12756348,-0.0051879883,-0.007507324,-19.335878,1.4351145,5.1221375,2019-08-05 14:08:13,0.0
1125.0,-0.09906006,0.0087890625,-0.021362305,1.2748091,3.3435113,2.221374,2019-08-05 14:08:13,0.0
1126.0,-0.10235596,0.004760742,-0.019958496000000003,29.229008,-6.0839696,-0.7557252,2019-08-05 14:08:13,0.0
1127.0,-0.09625244,-0.0041503906,-0.009521484,27.549618,-5.2519083,-2.8625953,2019-08-05 14:08:13,0.0
1128.0,-0.09814453,-0.010192871,-0.006958008000000001,21.793894,-2.908397,-0.6870229,2019-08-05 14:08:13,0.0
1129.0,-0.09008789,-0.012207031,-0.014831543,18.885496,-1.5648855,4.603053599999999,2019-08-05 14:08:13,0.0
1130.0,-0.1071167,0.00012207031,-0.016479492,14.755725,-2.4961832000000004,12.0,2019-08-05 14:08:13,0.0
1131.0,-0.11895752,-0.010925293,-0.014038086000000002,10.2213745,-4.5114503,13.152672,2019-08-05 14:08:13,0.0
1132.0,-0.11279297,-0.008056641,-0.018066406,7.091603299999999,-9.702291,18.465649,2019-08-05 14:08:13,0.0
1133.0,-0.12585449,-0.013549805,-0.009887695,2.778626,-11.572519,14.7404585,2019-08-05 14:08:14,0.0
1134.0,-0.13616943,-0.011657715,-0.005065918,-1.908397,-11.206107,15.015267,2019-08-05 14:08:14,0.0
1135.0,-0.1515503,-0.012145996,-0.0025634766,-1.5038168,-7.8702292,17.091601999999998,2019-08-05 14:08:14,0.0
1136.0,-0.15130615,-0.016906738,-0.011291504,3.4580152,-5.076336,12.435115,2019-08-05 14:08:14,0.0
1137.0,-0.13574219,-0.010375977,-0.006713866999999999,13.572519,-9.641221,5.5419846,2019-08-05 14:08:14,0.0
1138.0,-0.16442871,-0.007690429699999998,0.00018310547,23.0,-14.305344,10.312977,2019-08-05 14:08:14,0.0
1139.0,-0.18920898,-0.009399414,0.0033569336,17.854961,-9.541985,13.633588,2019-08-05 14:08:14,0.0
1140.0,-0.16131592,-0.014099121,-0.009033203,4.8625956,6.9923663000000005,7.213740299999999,2019-08-05 14:08:14,0.0
1141.0,-0.093444824,-0.018127441,-0.014038086000000002,-10.671756,12.412213,-8.251908,2019-08-05 14:08:14,0.0
1142.0,-0.10119629,-0.0154418945,-0.0021362305,-12.374045,1.0610687,-17.534351,2019-08-05 14:08:14,0.0
1143.0,-0.13299560000000002,-0.019226074,0.010375977,-23.175573,4.221374,-24.862595,2019-08-05 14:08:14,0.0
1144.0,-0.14172363,-0.0064697266000000005,0.007568359399999999,-41.67939000000001,22.274809,-29.732824,2019-08-05 14:08:14,0.0
1145.0,-0.12145996,-0.010192871,0.009338379,-53.633587,32.312977000000004,-35.969467,2019-08-05 14:08:14,0.0
1146.0,-0.11016846,-0.0045166016,-0.004028320300000001,-34.809162,32.14504,-41.610687,2019-08-05 14:08:14,0.0
1147.0,-0.10253906,-0.0045776367,-0.0004272461,-13.519084,23.534351,-44.969467,2019-08-05 14:08:14,0.0
1148.0,-0.10430908,-0.013061523,0.005432129,-9.7786255,22.015266,-43.625954,2019-08-05 14:08:14,0.0
1149.0,-0.10974121,-0.014709473,0.011291504,-22.70229,24.343512,-41.015266,2019-08-05 14:08:14,0.0
1150.0,-0.10522461,-0.003540039,0.005554199,-25.48855,26.396946000000003,-34.83206,2019-08-05 14:08:14,0.0
1151.0,-0.105285645,-0.008056641,0.012268066,-16.816793,25.603054,-30.366413,2019-08-05 14:08:14,0.0
1152.0,-0.11981201,-0.010253906,0.012939453,-8.106871,21.641222,-19.267176,2019-08-05 14:08:14,0.0
1153.0,-0.118774414,-0.008178711,0.012634277,7.465648700000001,17.282442,-8.549619,2019-08-05 14:08:14,0.0
1154.0,-0.12384033,-0.011474608999999998,0.01574707,26.458015000000003,10.664123,1.1908396,2019-08-05 14:08:14,0.0
1155.0,-0.15063477,-0.008361816,0.023925781,29.587786,4.1679387000000006,9.564885,2019-08-05 14:08:14,0.0
1156.0,-0.1484375,-0.014892578,0.013183594,19.045801,4.4580154,10.374045,2019-08-05 14:08:14,0.0
1157.0,-0.16113281,-0.014831543,0.017822266,14.38168,-3.40458,15.274809,2019-08-05 14:08:14,0.0
1158.0,-0.17797852,-0.015075684,0.016845703,-6.0839696,-4.9465647000000015,18.221375,2019-08-05 14:08:14,0.0
1159.0,-0.16778564,-0.008666992,0.0025634766,-7.091603299999999,-7.366411999999999,18.08397,2019-08-05 14:08:14,0.0
1160.0,-0.11138916,0.003112793,-0.021240234,-2.3206108,-9.717557,5.8015265,2019-08-05 14:08:14,0.0
1161.0,-0.06896973,0.0048828125,-0.018493652,32.458015,-21.404581,-1.9465649,2019-08-05 14:08:14,0.0
1162.0,-0.10607910000000002,-0.0065307617,-0.0015869141,34.450382,-31.152671999999995,-5.068702,2019-08-05 14:08:14,0.0
1163.0,-0.13250732,-0.0048828125,0.005004883,13.709924,-17.114504,-5.6870227,2019-08-05 14:08:14,0.0
1164.0,-0.1381836,0.0068359375,-0.005737304699999999,0.007633588,-1.1068702,-6.4961834000000005,2019-08-05 14:08:14,0.0
1165.0,-0.12322998,0.008666992,-0.017333984,17.167938,4.3816795,-2.4122138,2019-08-05 14:08:14,0.0
1166.0,-0.11456299,0.007690429699999998,-0.021972656,48.282444,-3.1221373,0.045801528,2019-08-05 14:08:14,0.0
1167.0,-0.10437012,-0.010681152,-0.020324707,54.78626,-9.129771,1.8931298,2019-08-05 14:08:14,0.0
1168.0,-0.11682129,-0.0078125,-0.011169434,23.862595,-5.7938933,3.946565,2019-08-05 14:08:14,0.0
1169.0,-0.12060547,-0.003112793,-0.024841309,12.694656,2.183206,5.2900763,2019-08-05 14:08:15,0.0
1170.0,-0.10925293,-0.015563965,-0.015930176,59.335876,-2.40458,0.9389313,2019-08-05 14:08:15,0.0
1171.0,-0.10070801,-0.018005371000000003,-0.016418457,7.763358599999999,5.923664,1.6259542,2019-08-05 14:08:15,0.0
1172.0,-0.10449219,-0.006164551,-0.020385742,30.91603,-2.5877862,9.870229,2019-08-05 14:08:15,0.0
1173.0,-0.114990234,-0.013916016000000002,-0.0126953125,9.656488,-2.1068702,12.702291,2019-08-05 14:08:15,0.0
1174.0,-0.12860107,-0.016784668,-0.007446289,2.6793892,-7.458015400000002,21.48855,2019-08-05 14:08:15,0.0
1175.0,-0.1439209,-0.018920898,-0.00048828125,4.3129773,-8.519084,26.793894,2019-08-05 14:08:15,0.0
1176.0,-0.14251709,-0.012939453,-0.0072021484,-4.0610685,-5.4961834000000005,29.786259,2019-08-05 14:08:15,0.0
1177.0,-0.13531494,-0.011169434,-0.005676269499999999,-0.8549618,-8.717557000000001,29.946566,2019-08-05 14:08:15,0.0
1178.0,-0.17504883,-0.015563965,-0.0021362305,2.648855,-16.923664000000002,36.412212,2019-08-05 14:08:15,0.0
1179.0,-0.19812012,-0.0234375,-0.00030517577999999995,-12.045801,-11.625955,41.801525,2019-08-05 14:08:15,0.0
1180.0,-0.1671753,-0.016784668,-0.010070801,-11.832061,1.3587786,38.137405,2019-08-05 14:08:15,0.0
1181.0,-0.107177734,-0.017150878999999997,-0.0028686523,-18.580153,8.725191,26.580153000000006,2019-08-05 14:08:15,0.0
1182.0,-0.11517334,-0.014099121,0.007019043000000001,-22.503817,3.3435113,19.465649,2019-08-05 14:08:15,0.0
1183.0,-0.14538574,-0.011413574,0.0044555664,-39.59542,10.290076,7.3893127,2019-08-05 14:08:15,0.0
1184.0,-0.122680664,-0.011352538999999998,-0.00024414062,-45.15267,26.358778000000004,-12.19084,2019-08-05 14:08:15,0.0
1185.0,-0.11279297,-0.012207031,0.006164551,-55.427483,33.664124,-27.12977,2019-08-05 14:08:15,0.0
1186.0,-0.090148926,0.0029907227,-0.0012817383,-42.08397,29.793894,-44.12214,2019-08-05 14:08:15,0.0
1187.0,-0.101989746,-0.0007324219,0.0095825195,-25.839695000000006,22.38168,-54.389313,2019-08-05 14:08:15,0.0
1188.0,-0.09320068,-0.008483886999999999,0.014343262,-28.396946000000003,26.900763,-60.412212,2019-08-05 14:08:15,0.0
1189.0,-0.10223389,-0.009521484,0.01171875,-23.74809,27.175573,-59.137405,2019-08-05 14:08:15,0.0
1190.0,-0.11999512,-0.0045166016,0.013671875,-16.091601999999998,29.053434000000006,-54.29771,2019-08-05 14:08:15,0.0
1191.0,-0.12512207,-0.0087890625,0.016723633,-0.6335878,29.862595,-46.335876,2019-08-05 14:08:15,0.0
1192.0,-0.115478516,-0.0030517578000000003,0.007507324,14.870229,28.10687,-37.801525,2019-08-05 14:08:15,0.0
1193.0,-0.119262695,-0.0041503906,0.01739502,40.053436,18.38168,-24.633587,2019-08-05 14:08:15,0.0
1194.0,-0.13342285,-0.007080078,0.023803711,48.160305,13.061069,-14.694656,2019-08-05 14:08:15,0.0
1195.0,-0.14324951,-0.0017700195,0.020935059,46.72519000000001,14.641221,-10.015267,2019-08-05 14:08:15,0.0
1196.0,-0.13256836,0.005004883,0.008728027,43.969467,13.992367000000002,-8.2213745,2019-08-05 14:08:15,0.0
1197.0,-0.1595459,0.0029296875,0.017211914,53.9771,-0.3816794000000001,-0.77862597,2019-08-05 14:08:15,0.0
1198.0,-0.17950439999999998,-0.0017089844,0.012939453,34.725190000000005,4.3282440000000015,9.435115,2019-08-05 14:08:15,0.0
1199.0,-0.17102051,-0.0037231445,-0.0006713867,31.717558,0.55725193,18.221375,2019-08-05 14:08:15,0.0
1200.0,-0.11444092,0.0017700195,-0.026794434,28.580153000000006,-9.572519,15.198473000000002,2019-08-05 14:08:15,0.0
1201.0,-0.09655762,0.008178711,-0.013977051,44.908398,-25.67939,15.030535,2019-08-05 14:08:15,0.0
1202.0,-0.1105957,-0.008239746,-0.014282227,26.946566,-33.343509999999995,10.145039,2019-08-05 14:08:15,0.0
1203.0,-0.11242676,-0.01159668,-0.0053710938,-19.969465,-17.503817,9.511451,2019-08-05 14:08:15,0.0
1204.0,-0.11193848,0.00091552734,-0.016357422,-30.328245000000006,-4.8091599999999985,9.282443,2019-08-05 14:08:15,0.0
1205.0,-0.107299805,0.007507324,-0.020812988,-17.068703,1.5801526,9.9007635,2019-08-05 14:08:16,0.0
1206.0,-0.09301758,0.0045776367,-0.017028809,8.694656,-8.198473,10.78626,2019-08-05 14:08:16,0.0
1207.0,-0.103393555,-0.0020141602,-0.0072021484,13.083969,-7.366411999999999,10.977099,2019-08-05 14:08:16,0.0
1208.0,-0.11315918,-0.0078125,-0.0018310547,11.946565,-4.3511453,16.351145000000002,2019-08-05 14:08:16,0.0
1209.0,-0.12261963,-0.0072021484,-0.012512207,2.1526718,-1.7862595,21.580153,2019-08-05 14:08:16,0.0
1210.0,-0.119506836,-0.012329102,-0.015563965,2.2137403,-3.610687,28.282442,2019-08-05 14:08:16,0.0
1211.0,-0.111450195,-0.002380371,-0.016784668,1.5343511,-7.7251906,25.595419,2019-08-05 14:08:16,0.0
1212.0,-0.11303711,-0.0178833,-0.01574707,1.259542,-13.625955,21.068703,2019-08-05 14:08:16,0.0
1213.0,-0.124938965,-0.0126953125,-0.006225586,-9.893129,-13.625955,17.267176,2019-08-05 14:08:16,0.0
1214.0,-0.13702393,-0.015197754,-0.007690429699999998,-7.10687,-13.488549,14.022901,2019-08-05 14:08:16,0.0
1215.0,-0.13580322,-0.012451172,-0.012268066,-3.6793892,-8.732824,15.832060999999998,2019-08-05 14:08:16,0.0
1216.0,-0.14318848,-0.016601562,-0.016296387,7.4732823,-7.0,12.839695,2019-08-05 14:08:16,0.0
1217.0,-0.13488770000000005,-0.007690429699999998,-0.007568359399999999,13.770992,-5.9160304,9.755725,2019-08-05 14:08:16,0.0
1218.0,-0.12554932,-0.014953613,-0.013549805,7.4885497,-4.221374,4.526717700000002,2019-08-05 14:08:16,0.0
1219.0,-0.13641357,-0.025512695,-0.00012207031,2.3206108,-12.801527,9.282443,2019-08-05 14:08:16,0.0
1220.0,-0.18005371,-0.015991211,-0.014709473,-13.748092000000002,-4.5419846,19.221375,2019-08-05 14:08:16,0.0
1221.0,-0.14788818,-0.026306152000000003,-0.020446777,-24.954199,13.946565,15.679389000000002,2019-08-05 14:08:16,0.0
1222.0,-0.115234375,-0.02368164,-0.014526367,-21.984734,13.137404,10.412213,2019-08-05 14:08:16,0.0
1223.0,-0.12988281,-0.018432617,-0.008117675999999999,-41.687023,11.725191,0.55725193,2019-08-05 14:08:16,0.0
1224.0,-0.12347412,-0.015380858999999997,-0.0107421875,-39.587788,20.396946,-11.755725,2019-08-05 14:08:16,0.0
1225.0,-0.12738037,-0.02508545,-0.002319336,-48.267174,35.29770999999999,-27.480917,2019-08-05 14:08:16,0.0
1226.0,-0.109558105,-0.008361816,-0.007751465,-48.030533,40.59542,-41.076336,2019-08-05 14:08:16,0.0
1227.0,-0.11566162,-0.007446289,-0.006713866999999999,-37.27481,40.328243,-54.85496,2019-08-05 14:08:16,0.0
1228.0,-0.12261963,-0.0032958984000000004,0.0053710938,-33.809162,46.9771,-65.56489,2019-08-05 14:08:16,0.0
1229.0,-0.1159668,-0.008972168,0.0068969727,-34.541985,51.809162,-71.10687,2019-08-05 14:08:16,0.0
1230.0,-0.10803223,-0.005737304699999999,0.0010986328,-32.625954,55.244274,-71.61069,2019-08-05 14:08:16,0.0
1231.0,-0.10443115,-0.0032958984000000004,0.007751465,-19.519083,55.458015,-65.770996,2019-08-05 14:08:16,0.0
1232.0,-0.11102295,-0.0041503906,0.012573242,-3.1450381000000003,50.045803,-57.450382,2019-08-05 14:08:16,0.0
1233.0,-0.115234375,-0.004028320300000001,0.009094238,17.702289999999994,44.76336,-49.076336,2019-08-05 14:08:16,0.0
1234.0,-0.1262207,-0.0064697266000000005,0.012390137,39.221375,36.32061,-40.40458,2019-08-05 14:08:16,0.0
1235.0,-0.12799072,-0.0037841797,0.016601562,57.55725,28.793894,-27.70229,2019-08-05 14:08:16,0.0
1236.0,-0.1352539,-0.0038452148,0.008300781,62.61832,15.38168,-18.213741,2019-08-05 14:08:16,0.0
1237.0,-0.12976074,-0.00579834,0.0025634766,76.75572,1.038168,-3.8244274,2019-08-05 14:08:16,0.0
1238.0,-0.15991211,-0.016174316,0.01550293,69.55725,-2.8549619,14.694656,2019-08-05 14:08:16,0.0
1239.0,-0.16845703,-0.013183594,0.00036621094,50.671757,-1.6564884999999998,27.885496000000003,2019-08-05 14:08:16,0.0
1240.0,-0.12475586,-0.008300781,-0.0154418945,36.06107,-11.427481,28.786259,2019-08-05 14:08:17,0.0
1241.0,-0.095703125,-0.001953125,-0.019714355,43.312977,-30.671755,23.816793,2019-08-05 14:08:17,0.0
1242.0,-0.12438965,-0.008483886999999999,-0.013000488,25.435114,-41.267174,19.351145,2019-08-05 14:08:17,0.0
1243.0,-0.12322998,-0.006652831999999999,-0.020202637,-8.717557000000001,-32.08397,6.625953999999999,2019-08-05 14:08:17,0.0
1244.0,-0.10467529,-0.003112793,-0.019958496000000003,-23.687023,-21.549618,5.0610685,2019-08-05 14:08:17,0.0
1245.0,-0.087890625,-0.00970459,-0.0234375,-22.656488,-21.847328,12.656488,2019-08-05 14:08:17,0.0
1246.0,-0.093444824,-0.0067749023,-0.03100586,5.0839696,-28.183207,22.48855,2019-08-05 14:08:17,0.0
1247.0,-0.10644531,-0.013244629,-0.020751953,12.572519,-18.351145,26.954199,2019-08-05 14:08:17,0.0
1248.0,-0.10723877,-0.017333984,-0.01763916,20.954199,-13.931297,28.076336,2019-08-05 14:08:17,0.0
1249.0,-0.12921143,-0.020080566,-0.018066406,7.7251906,-12.549619,31.595419,2019-08-05 14:08:17,0.0
1250.0,-0.124816895,-0.017333984,-0.036010742000000005,1.0458015,-8.641221,29.862595,2019-08-05 14:08:17,0.0
1251.0,-0.12145996,-0.027404785,-0.029663086,9.389313,-12.610687,31.57252,2019-08-05 14:08:17,0.0
1252.0,-0.12921143,-0.025146484,-0.024902344,-1.1908396,-11.236641,31.770992,2019-08-05 14:08:17,0.0
1253.0,-0.12927246,-0.0178833,-0.0234375,-10.877863,-13.091603,32.664124,2019-08-05 14:08:17,0.0
1254.0,-0.13116455,-0.016113281,-0.016235351999999998,-12.755725,-12.305344,34.08397,2019-08-05 14:08:17,0.0
1255.0,-0.13134766,-0.008544922,-0.022827148,-7.152672,-1.7175573,27.76336,2019-08-05 14:08:17,0.0
1256.0,-0.106933594,-0.012268066,-0.016601562,18.832062,-1.7099236,14.893129,2019-08-05 14:08:17,0.0
1257.0,-0.1293335,-0.008056641,-0.003967285,34.076336,-5.3511453,9.068703,2019-08-05 14:08:17,0.0
1258.0,-0.16558838,-0.018249512,0.0014648438,38.809162,-10.503817,8.755725,2019-08-05 14:08:17,0.0
1259.0,-0.17901611,-0.026794434,-0.012573242,28.198473,1.29771,9.427481,2019-08-05 14:08:17,0.0
1260.0,-0.13494873,-0.019042969,-0.01928711,9.007633,14.931297,2.687023,2019-08-05 14:08:17,0.0
1261.0,-0.11907959,-0.028808594,-0.0013427734,-3.2442749,0.57251906,3.6030533,2019-08-05 14:08:17,0.0
1262.0,-0.14337158,-0.02319336,0.008972168,-36.664124,-4.854962,3.8625953,2019-08-05 14:08:17,0.0
1263.0,-0.1593628,-0.0211792,0.0036010742,-49.89313,9.320611,-8.274809,2019-08-05 14:08:17,0.0
1264.0,-0.13970947,-0.016174316,0.0009765625,-61.76336,26.32061,-19.351145,2019-08-05 14:08:17,0.0
1265.0,-0.09661865,-0.010498047,0.0022583008,-51.580154,28.312977000000004,-36.709923,2019-08-05 14:08:17,0.0
1266.0,-0.08605957,-0.0061035156000000005,0.007629394499999998,-56.053436,25.732824,-50.519085,2019-08-05 14:08:17,0.0
1267.0,-0.08959961,-0.0034790040000000004,0.009399414,-51.091602,25.076336,-60.549618,2019-08-05 14:08:17,0.0
1268.0,-0.09710693,-0.015563965,0.010925293,-55.16030500000001,30.244274,-64.541985,2019-08-05 14:08:17,0.0
1269.0,-0.09875488,-0.013793945,0.012573242,-55.48855,31.755726,-60.0229,2019-08-05 14:08:17,0.0
1270.0,-0.10607910000000002,-0.00024414062,0.014770508,-41.007633,29.717558,-51.34351,2019-08-05 14:08:17,0.0
1271.0,-0.10675049,-0.009643555,0.010131836,-23.610687,29.687023,-38.21374,2019-08-05 14:08:17,0.0
1272.0,-0.11682129,-0.005065918,0.013122559,1.2442749,26.282442,-27.137405,2019-08-05 14:08:17,0.0
1273.0,-0.13433838,-0.010498047,0.017700195,20.122137,19.068703,-13.114504,2019-08-05 14:08:17,0.0
1274.0,-0.15661621,-0.012939453,0.012573242,32.78626,13.2213745,-2.2290077,2019-08-05 14:08:17,0.0
1275.0,-0.14874268,-0.013671875,0.008911133,45.480915,9.351145,4.5801525000000005,2019-08-05 14:08:18,0.0
1276.0,-0.14746094,-0.0138549805,0.008544922,57.84733000000001,-0.33587787,14.320610999999998,2019-08-05 14:08:18,0.0
1277.0,-0.18371582,-0.021850586,0.010314941,49.06107,-2.2824428,27.664121999999995,2019-08-05 14:08:18,0.0
1278.0,-0.17340088,-0.018493652,0.0031738281,44.923664,-3.5190839999999994,36.435116,2019-08-05 14:08:18,0.0
1279.0,-0.13092041,-0.010986328,-0.022583008,22.74809,-4.9389315,32.38168,2019-08-05 14:08:18,0.0
1280.0,-0.09875488,0.005004883,-0.023498535,44.816795,-15.40458,20.992367,2019-08-05 14:08:18,0.0
1281.0,-0.101745605,-0.0052490234,-0.01361084,29.213741,-33.10687,13.106871,2019-08-05 14:08:18,0.0
1282.0,-0.14117432,-0.006652831999999999,-0.007751465,-8.251908,-25.030535,7.0610685,2019-08-05 14:08:18,0.0
1283.0,-0.12048339999999998,-0.001159668,-0.016113281,-26.0,-5.6488547,-1.29771,2019-08-05 14:08:18,0.0
1284.0,-0.10333252,0.0010375977,-0.01776123,-13.061069,-2.3053436,-2.7175572,2019-08-05 14:08:18,0.0
1285.0,-0.083862305,0.005432129,-0.017944336,9.725191,-5.1679387000000006,2.7633588,2019-08-05 14:08:18,0.0
1286.0,-0.09454346,-0.00091552734,-0.009643555,19.854961,-11.106871,10.206107,2019-08-05 14:08:18,0.0
1287.0,-0.10266113,-0.006713866999999999,-0.005493164,20.419847,-8.541985,18.06107,2019-08-05 14:08:18,0.0
1288.0,-0.103515625,-0.012084961000000002,-0.012634277,17.541985,-4.8320613,25.793894,2019-08-05 14:08:18,0.0
1289.0,-0.12322998,-0.012084961000000002,-0.015319824,15.931297,-8.274809,35.572517,2019-08-05 14:08:18,0.0
1290.0,-0.12261963,-0.010559082,-0.014831543,14.916031,-10.748092,37.198475,2019-08-05 14:08:18,0.0
1291.0,-0.12432861,-0.014709473,-0.016540527,13.862596,-17.068703,36.664124,2019-08-05 14:08:18,0.0
1292.0,-0.11956787,-0.01361084,-0.008911133,0.9312977,-22.48855,35.23664,2019-08-05 14:08:18,0.0
1293.0,-0.13336182,-0.01184082,-0.01373291,-11.465649,-22.854961,32.55725,2019-08-05 14:08:18,0.0
1294.0,-0.14910889,-0.009338379,-0.01361084,-10.534351,-17.496183,29.816793,2019-08-05 14:08:18,0.0
1295.0,-0.1459961,-0.010009766,-0.0067749023,-8.7786255,-8.992367,20.335878,2019-08-05 14:08:18,0.0
1296.0,-0.13653564,-0.0053710938,-0.009643555,-6.40458,-9.984733,9.038168,2019-08-05 14:08:18,0.0
1297.0,-0.16033936,-0.013305663999999998,-0.011657715,1.7328244,-23.274809,10.038168,2019-08-05 14:08:18,0.0
1298.0,-0.19085693,-0.011352538999999998,-0.0026245117,-4.29771,-11.938931,12.557252,2019-08-05 14:08:18,0.0
1299.0,-0.17205810000000002,-0.010559082,-0.018676758,-12.106871,6.442748,7.641221499999999,2019-08-05 14:08:18,0.0
1300.0,-0.10272217,-0.0079956055,-0.018798828,-28.412214,20.694656,-14.526717,2019-08-05 14:08:18,0.0
1301.0,-0.0927124,-0.014404297,-0.005432129,-31.717558,3.2366412,-25.038168,2019-08-05 14:08:18,0.0
1302.0,-0.120910645,-0.009521484,0.008850098,-53.20611,4.7938933,-32.21374,2019-08-05 14:08:18,0.0
1303.0,-0.13983154,-0.01586914,0.0010375977,-74.9542,20.122137,-36.16794,2019-08-05 14:08:18,0.0
1304.0,-0.11895752,-0.0037841797,-0.0037841797,-68.778625,38.48855,-42.59542,2019-08-05 14:08:18,0.0
1305.0,-0.115722656,-0.0012817383,-0.005737304699999999,-45.221375,41.664124,-50.183205,2019-08-05 14:08:18,0.0
1306.0,-0.106933594,-0.00390625,0.0006103515599999999,-25.480917,33.664124,-55.633587,2019-08-05 14:08:18,0.0
1307.0,-0.11328125,-0.003540039,0.00592041,-19.152672,34.374046,-54.51145,2019-08-05 14:08:18,0.0
1308.0,-0.12408447,-0.015075684,0.0078125,-26.167938,38.030533,-53.38168,2019-08-05 14:08:18,0.0
1309.0,-0.11993408,-0.007019043000000001,0.008911133,-24.312977,41.14504,-53.48855,2019-08-05 14:08:18,0.0
1310.0,-0.12896729,-0.010681152,0.007751465,-5.931298,42.17557,-53.16794,2019-08-05 14:08:18,0.0
1311.0,-0.1038208,-0.0012817383,0.013366699,9.175572,41.648853,-48.23664,2019-08-05 14:08:18,0.0
1312.0,-0.11706543,-0.0012817383,0.008544922,29.25191,33.076336,-40.946564,2019-08-05 14:08:19,0.0
1313.0,-0.11602783,-0.007507324,0.014099121,55.045803,23.419847,-28.435114,2019-08-05 14:08:19,0.0
1314.0,-0.13000488,-0.009338379,0.012145996,64.96947,17.068703,-19.19084,2019-08-05 14:08:19,0.0
1315.0,-0.12628174,-0.01184082,0.0126953125,69.908394,13.916031,-8.473283,2019-08-05 14:08:19,0.0
1316.0,-0.14239502,-0.007690429699999998,0.010131836,62.62595400000001,9.137404,9.068703,2019-08-05 14:08:19,0.0
1317.0,-0.17327881,-0.007568359399999999,0.01550293,47.633587,5.7328243,28.992367,2019-08-05 14:08:19,0.0
1318.0,-0.16473389,-0.012634277,0.0017089844,43.419846,-0.26717559,45.160305,2019-08-05 14:08:19,0.0
1319.0,-0.109436035,-0.0095825195,-0.022521973,24.389313,-6.816794,37.664124,2019-08-05 14:08:19,0.0
1320.0,-0.085998535,-0.006286621,-0.014526367,33.839695,-33.343509999999995,34.35878,2019-08-05 14:08:19,0.0
1321.0,-0.12860107,-0.008178711,-0.00970459,11.244275,-47.091602,27.259542,2019-08-05 14:08:19,0.0
1322.0,-0.14849854,-0.014465332,-0.008728027,-24.969465,-29.267176,18.25191,2019-08-05 14:08:19,0.0
1323.0,-0.11682129,-0.007385254,-0.006286621,-39.030533,-7.862595599999999,10.282443,2019-08-05 14:08:19,0.0
1324.0,-0.1027832,-0.0009765625,-0.01776123,-30.183207,-1.4961832,6.9923663000000005,2019-08-05 14:08:19,0.0
1325.0,-0.087890625,0.008300781,-0.01977539,9.2595415,-8.503817,11.473283,2019-08-05 14:08:19,0.0
1326.0,-0.0960083,-0.0006713867,-0.008178711,28.099237,-13.725191,18.038168,2019-08-05 14:08:19,0.0
1327.0,-0.10479736,-0.012207031,-0.012939453,35.816795,-11.625955,26.442749,2019-08-05 14:08:19,0.0
1328.0,-0.1159668,-0.014709473,-0.012023926,26.198473,-8.946565,33.946564,2019-08-05 14:08:19,0.0
