measurement,Acc_X,Acc_Y,Acc_Z,Gyr_X,Gyr_Y,Gyr_Z,Time(hh:mm:ss),Label
175.0,-0.0016479492000000002,-0.12890625,0.006164551,-1.480916,0.7480916,-0.41221374,2019-08-05 14:20:11,9.0
176.0,0.0041503906,-0.11999512,0.0017089844,-0.7251908,2.2137403,0.19083970000000006,2019-08-05 14:20:11,9.0
177.0,-0.0016479492000000002,-0.12432861,0.0033569336,0.5496183000000001,0.79389316,0.8167939000000001,2019-08-05 14:20:11,9.0
178.0,0.0021972656,-0.12774658,-0.00030517577999999995,0.3816794000000001,1.2137405,0.40458015,2019-08-05 14:20:11,9.0
179.0,-0.0072631836,-0.12322998,6.1035156e-05,0.06870229,0.740458,-0.5114504,2019-08-05 14:20:11,9.0
180.0,-0.01184082,-0.12805176,0.013122559,1.2442749,1.0839695,-0.9847328000000002,2019-08-05 14:20:11,9.0
181.0,-0.007385254,-0.12561035,-0.0017089844,-0.10687023,2.1145039,-1.1832061000000005,2019-08-05 14:20:11,9.0
182.0,-0.010864258,-0.12188721,0.007507324,-0.48854962,2.1984732000000005,-2.2671757,2019-08-05 14:20:11,9.0
183.0,6.1035156e-05,-0.12359619,0.010620117,-1.4885496,1.4045801000000002,-0.5648854999999999,2019-08-05 14:20:11,9.0
184.0,-0.010375977,-0.12994385,0.009460449,-1.6870229,2.480916,-0.8549618,2019-08-05 14:20:11,9.0
185.0,-0.0068359375,-0.1260376,-0.0010375977,-0.2977099,0.70229006,-0.22900763,2019-08-05 14:20:11,9.0
186.0,-0.0040893555,-0.1274414,-0.0020141602,-2.4961832000000004,3.221374,1.1755725,2019-08-05 14:20:11,9.0
187.0,0.0016479492000000002,-0.12524414,0.00036621094,-0.22137405,3.4122138,1.7938931,2019-08-05 14:20:11,9.0
188.0,-0.012451172,-0.13079834,0.0134887695,-0.90839696,5.847328,2.5954200000000003,2019-08-05 14:20:11,9.0
189.0,-0.0072631836,-0.13067627,0.0051879883,-2.1603053,5.8091599999999985,3.5801528,2019-08-05 14:20:11,9.0
190.0,-0.0014038086,-0.13116455,0.012939453,-7.221374000000001,12.38168,5.2900763,2019-08-05 14:20:11,9.0
191.0,0.009155273,-0.13330078,0.006958008000000001,4.1221375,11.198473,6.89313,2019-08-05 14:20:11,9.0
192.0,-0.01965332,-0.11114502,-0.021118164,-36.59542,11.175572,0.3740458,2019-08-05 14:20:11,9.0
193.0,-0.011047363,-0.1083374,-0.008422852,18.450382,20.396946,2.4885497,2019-08-05 14:20:11,9.0
194.0,-0.01184082,-0.1149292,-0.008422852,-12.183207,5.778626,-7.6717559999999985,2019-08-05 14:20:11,9.0
195.0,-0.004211426,-0.1359253,0.003540039,21.389313,-3.793893,-17.137404999999998,2019-08-05 14:20:11,9.0
196.0,0.007568359399999999,-0.13885498,0.0026245117,-2.519084,-1.7709924,-17.305344,2019-08-05 14:20:11,9.0
197.0,-0.0028076172,-0.12872314,0.0014648438,-17.358778,-7.9541984,-12.992367,2019-08-05 14:20:11,9.0
198.0,0.0012817383,-0.119506836,-0.005432129,3.6030533,-3.9847329,-11.458015,2019-08-05 14:20:11,9.0
199.0,0.0045776367,-0.123291016,-0.006164551,12.114504,-2.2519083,-4.5725193,2019-08-05 14:20:11,9.0
200.0,-0.009033203,-0.12731934,0.0028076172,6.1297708,-3.5801528,-5.9923663000000005,2019-08-05 14:20:11,9.0
201.0,-0.002746582,-0.12072754,0.009094238,11.702291,-0.36641222,-5.6412215,2019-08-05 14:20:11,9.0
202.0,-0.007385254,-0.1260376,-0.002319336,5.3129773,-1.4122137,-3.9923663,2019-08-05 14:20:11,9.0
203.0,-0.007080078,-0.12310791,0.0072631836,7.2671757,-1.5648855,-2.7175572,2019-08-05 14:20:11,9.0
204.0,-0.012634277,-0.1274414,0.005737304699999999,17.259542,2.7404580000000003,-3.4961832000000004,2019-08-05 14:20:11,9.0
205.0,0.004028320300000001,-0.13092041,0.005004883,10.175572,1.6793894,-4.0992365,2019-08-05 14:20:11,9.0
206.0,0.0015869141,-0.12896729,0.006225586,0.6793893,2.1374047000000003,-1.8015267,2019-08-05 14:20:11,9.0
207.0,-0.005981445300000001,-0.13024902,0.008422852,0.22137405,1.7633588,-2.0152671000000004,2019-08-05 14:20:11,9.0
208.0,-0.006164551,-0.121276855,0.0021362305,-3.6946564,1.5267175,-2.3206108,2019-08-05 14:20:11,9.0
209.0,-0.0004272461,-0.12957764,0.005737304699999999,-0.8396947,3.2290077,0.2977099,2019-08-05 14:20:11,9.0
210.0,-0.007507324,-0.12548828,0.007629394499999998,1.7328244,1.0763359,-0.35114503,2019-08-05 14:20:11,9.0
211.0,0.0010375977,-0.12432861,0.0020141602,-0.9312977,1.8015267,-3.816794,2019-08-05 14:20:12,9.0
212.0,0.0010375977,-0.124694824,0.0095825195,3.2900763,4.3282440000000015,-2.9389312000000003,2019-08-05 14:20:12,9.0
213.0,0.008728027,-0.1352539,0.005981445300000001,-1.4351145,3.389313,-2.7328243,2019-08-05 14:20:12,9.0
214.0,-0.0016479492000000002,-0.12994385,0.010131836,4.442748,4.2442746,-1.4732825,2019-08-05 14:20:12,9.0
215.0,0.004272461,-0.123535156,0.00592041,4.664122,3.1221373,-0.33587787,2019-08-05 14:20:12,9.0
216.0,0.004638672,-0.12939453,0.0026855469,8.702291,3.9541984,-1.8244275,2019-08-05 14:20:12,9.0
217.0,0.0034179688,-0.12213135,0.004028320300000001,8.908397,3.5648854,-0.31297709999999995,2019-08-05 14:20:12,9.0
218.0,-0.0072631836,-0.12176514,0.013916016000000002,8.78626,3.3053436,-0.8396947,2019-08-05 14:20:12,9.0
219.0,0.0064697266000000005,-0.12780762,0.018676758,12.374045,6.9923663000000005,-2.0229008,2019-08-05 14:20:12,9.0
220.0,-0.0072631836,-0.12884521,0.0068359375,-0.41221374,4.0229006,1.038168,2019-08-05 14:20:12,9.0
221.0,-0.008666992,-0.125,-0.0008544922000000001,6.1374044,4.7328243,-1.9007634,2019-08-05 14:20:12,9.0
222.0,0.006652831999999999,-0.12194824,0.0065307617,21.122137,4.1374044,-0.19847329,2019-08-05 14:20:12,9.0
223.0,0.0072631836,-0.121398926,0.010314941,28.824427000000004,5.1297708,-3.946565,2019-08-05 14:20:12,9.0
224.0,-6.1035156e-05,-0.11669922,0.019592285,30.206106,1.7633588,-2.0458016,2019-08-05 14:20:12,9.0
225.0,-0.0026245117,-0.12652588,0.007629394499999998,26.030535,-0.41221374,-0.14503817,2019-08-05 14:20:12,9.0
226.0,-0.008850098,-0.12939453,0.020202637,9.167939,-0.28244275,0.114503816,2019-08-05 14:20:12,9.0
227.0,-0.004028320300000001,-0.1274414,0.01928711,-6.70229,-1.0305344,2.2671757,2019-08-05 14:20:12,9.0
228.0,-0.00030517577999999995,-0.12286377,0.01550293,-4.8015265,-0.061068702,1.2061069,2019-08-05 14:20:12,9.0
229.0,-0.0004272461,-0.12213135,0.017822266,-8.152672,-1.8931298,-1.7251909,2019-08-05 14:20:12,9.0
230.0,-0.00970459,-0.12573242,0.010681152,1.4198474,1.3129771,-1.8549619,2019-08-05 14:20:12,9.0
231.0,0.0025634766,-0.12036133,0.014465332,4.0076337,1.9541985,-3.0076337000000004,2019-08-05 14:20:12,9.0
232.0,0.005493164,-0.12200928,0.02154541,11.374045,0.57251906,-2.29771,2019-08-05 14:20:12,9.0
233.0,-0.009887695,-0.12615967,0.019714355,12.664123,0.519084,-0.8702290000000001,2019-08-05 14:20:12,9.0
234.0,-0.006164551,-0.123535156,0.018249512,10.916031,-0.83206105,-0.31297709999999995,2019-08-05 14:20:12,9.0
235.0,-0.009155273,-0.11468506,0.013183594,4.7251906,-3.7099237,0.35114503,2019-08-05 14:20:12,9.0
236.0,0.0014648438,-0.12652588,0.024658203,3.8473282,-1.9847329,-0.38931298,2019-08-05 14:20:12,9.0
237.0,0.005737304699999999,-0.12878418,0.01928711,-10.862596,-4.2824426,-0.14503817,2019-08-05 14:20:12,9.0
238.0,-0.011291504,-0.12762451,0.0211792,-10.167939,-2.7251909,0.610687,2019-08-05 14:20:12,9.0
239.0,-0.009216309,-0.109558105,0.013244629,-22.374046,3.740458,1.1755725,2019-08-05 14:20:12,9.0
240.0,-0.00091552734,-0.13928223,0.004333496,-1.5648855,2.519084,2.2290077,2019-08-05 14:20:12,9.0
241.0,0.0022583008,-0.11895752,0.0026855469,14.541985,7.152672,-3.3282442000000003,2019-08-05 14:20:12,9.0
242.0,-0.00592041,-0.1381836,0.020080566,25.549618,1.4045801000000002,-4.114504,2019-08-05 14:20:12,9.0
243.0,-0.006225586,-0.12402344,0.026489258,17.694656,3.6335878,-3.259542,2019-08-05 14:20:12,9.0
244.0,-0.005859375,-0.12335205,0.024963379,8.572519,3.1984732000000005,-2.8549619,2019-08-05 14:20:12,9.0
245.0,0.0008544922000000001,-0.12414551,0.018371582,1.5496184,2.4198472,-7.541984599999998,2019-08-05 14:20:12,9.0
246.0,-0.0028076172,-0.13092041,0.016967773000000002,0.39694658,4.2061067,-0.7099236999999999,2019-08-05 14:20:13,9.0
247.0,0.0048217773,-0.12536621,0.015319824,-3.534351,0.24427481,1.8091604,2019-08-05 14:20:13,9.0
248.0,-0.0021362305,-0.112854004,0.018676758,1.4045801000000002,2.4732823,7.0076337,2019-08-05 14:20:13,9.0
249.0,-0.0049438477,-0.12121582,0.0256958,1.4885496,6.259542,-1.1908396,2019-08-05 14:20:13,9.0
250.0,-0.0154418945,-0.115722656,0.03765869,7.2290077,3.687023,0.6259541999999999,2019-08-05 14:20:13,9.0
251.0,-0.0067749023,-0.12335205,0.020996094,0.007633588,2.7633588,2.6412213,2019-08-05 14:20:13,9.0
252.0,-0.0036010742,-0.12219238,0.02734375,8.244275,-0.53435117,-2.183206,2019-08-05 14:20:13,9.0
253.0,-0.014282227,-0.120788574,0.030517578,7.091603299999999,-0.3053435,-2.2366412,2019-08-05 14:20:13,9.0
254.0,-0.0037841797,-0.13452148,0.023376465,1.70229,-0.34351146,-3.1374047000000003,2019-08-05 14:20:13,9.0
255.0,-0.002319336,-0.12609863,0.014953613,-5.908396700000001,-1.9007634,-1.29771,2019-08-05 14:20:13,9.0
256.0,-0.0034179688,-0.13006592,0.012268066,-11.458015,-0.091603056,-1.7175573,2019-08-05 14:20:13,9.0
257.0,0.0014038086,-0.12609863,0.005676269499999999,-9.557252,-0.16030534,-1.6870229,2019-08-05 14:20:13,9.0
258.0,-0.001159668,-0.12902832,0.01727295,-7.740458,1.4198474,-7.1755724,2019-08-05 14:20:13,9.0
259.0,-0.0017089844,-0.12463379,0.008666992,-7.6488547,-0.099236645,-1.9465649,2019-08-05 14:20:13,9.0
260.0,-0.010803223,-0.12561035,0.014587402,-1.4503816,0.5038168,-2.0229008,2019-08-05 14:20:13,9.0
261.0,-0.0036010742,-0.12756348,0.018188477,4.7328243,1.7862595,-0.122137405,2019-08-05 14:20:13,9.0
262.0,-0.006958008000000001,-0.12145996,0.017700195,4.9007635,2.2442749,-1.0305344,2019-08-05 14:20:13,9.0
263.0,-0.008911133,-0.12799072,0.020690918,6.9847326,4.3053436,-0.54198474,2019-08-05 14:20:13,9.0
264.0,-0.00024414062,-0.12420654,0.026184082,12.465649,4.2519083,-3.0152671000000004,2019-08-05 14:20:13,9.0
265.0,-0.0018920898,-0.12249756,0.033081055,14.274809,4.0458016,-2.5877862,2019-08-05 14:20:13,9.0
266.0,-0.0018310547,-0.1239624,0.02960205,13.687023000000002,1.6183206,-2.0992367,2019-08-05 14:20:13,9.0
267.0,-0.010009766,-0.11541748,0.022033691,8.938931,-0.16030534,-3.3664122000000005,2019-08-05 14:20:13,9.0
268.0,-0.008361816,-0.12054443,0.027404785,10.106871,1.7328244,-2.8473282,2019-08-05 14:20:13,9.0
269.0,-0.007446289,-0.12371826,0.022338867,11.366412,-0.5801527,-1.9160305,2019-08-05 14:20:13,9.0
270.0,-0.0056152344,-0.12664795,0.01965332,9.687023,2.053435,-4.3511453,2019-08-05 14:20:13,9.0
271.0,-0.0028076172,-0.13061523,0.024597168,12.274809,-1.8625954,-3.6564887,2019-08-05 14:20:13,9.0
272.0,0.0033569336,-0.1194458,0.019165039,1.7557251,-1.9770992,-4.885496,2019-08-05 14:20:13,9.0
273.0,0.013793945,-0.12713623,0.026611328,0.46564886,2.0687022,-4.396946400000001,2019-08-05 14:20:13,9.0
274.0,0.007446289,-0.12231445,0.021850586,1.4122137,2.6259542,-0.8091603,2019-08-05 14:20:13,9.0
275.0,-0.010864258,-0.12402344,0.026733398,3.8091602,3.961832,1.3740458,2019-08-05 14:20:13,9.0
276.0,-0.0063476562,-0.12213135,0.02935791,9.458015,2.1221373,-0.89312977,2019-08-05 14:20:13,9.0
277.0,-0.007446289,-0.11578369,0.03540039,11.664123,2.6793892,0.24427481,2019-08-05 14:20:13,9.0
278.0,-0.008300781,-0.12042236,0.038330078,9.7404585,2.8396947,-1.8244275,2019-08-05 14:20:13,9.0
279.0,-0.014099121,-0.12030029,0.030822754,6.59542,1.6335878,-4.5725193,2019-08-05 14:20:13,9.0
280.0,-0.007507324,-0.11907959,0.032958984,3.1526718,1.221374,-7.091603299999999,2019-08-05 14:20:13,9.0
281.0,-0.008117675999999999,-0.11993408,0.029846191,1.9312977,-0.19847329,-8.343511999999999,2019-08-05 14:20:13,9.0
282.0,-0.005004883,-0.1227417,0.036193848,-11.59542,3.0610688,-11.465649,2019-08-05 14:20:13,9.0
283.0,-0.0031738281,-0.12957764,0.029785156,-20.641222,1.7251909,-13.770992,2019-08-05 14:20:14,9.0
284.0,0.0006103515599999999,-0.128479,0.018188477,-19.473282,2.5877862,-10.923664,2019-08-05 14:20:14,9.0
285.0,0.0026855469,-0.11425781,0.018432617,2.908397,2.3587787,-7.7480917,2019-08-05 14:20:14,9.0
286.0,-0.0028076172,-0.12725830000000002,0.015808105,5.5038166,1.038168,-11.045801,2019-08-05 14:20:14,9.0
287.0,-0.0038452148,-0.121398926,0.025817871000000003,15.9007635,4.816794,-14.633588,2019-08-05 14:20:14,9.0
288.0,-0.006958008000000001,-0.11785889,0.023010254,26.93893,7.3206105,-15.2595415,2019-08-05 14:20:14,9.0
289.0,-0.0010375977,-0.12609863,0.039855957,35.85496,6.9847326,-36.76336,2019-08-05 14:20:14,9.0
290.0,-0.001953125,-0.12994385,0.03753662,32.748093,3.091603,-6.4274807,2019-08-05 14:20:14,9.0
291.0,-0.007690429699999998,-0.11505127,0.030700684,33.931297,3.9694657,-2.2442749,2019-08-05 14:20:14,9.0
292.0,-0.0009765625,-0.12188721,0.028930664,46.923664,5.3435115999999985,-4.6412215,2019-08-05 14:20:14,9.0
293.0,0.0064086914,-0.125,0.042114258,56.79389000000001,4.740458,-2.2900763,2019-08-05 14:20:14,9.0
294.0,0.0016479492000000002,-0.12023926,0.050231934000000006,42.82443,4.854962,-3.0229008,2019-08-05 14:20:14,9.0
295.0,0.002746582,-0.11376953,0.049804688,33.900764,4.0534352999999985,-5.2519083,2019-08-05 14:20:14,9.0
296.0,-0.0010986328,-0.12097168,0.049133300000000005,25.12977,3.572519,-2.3206108,2019-08-05 14:20:14,9.0
297.0,0.00048828125,-0.114746094,0.053771973,10.167939,2.4885497,-6.366412,2019-08-05 14:20:14,9.0
298.0,0.0018920898,-0.1194458,0.05609131,11.519084,2.6183207000000004,-1.9465649,2019-08-05 14:20:14,9.0
299.0,0.0006713867,-0.11859131,0.060668945,-10.076336,1.1526718,-1.1832061000000005,2019-08-05 14:20:14,9.0
300.0,0.0079956055,-0.11029053,0.05328369,-13.9007635,1.4580153,-0.6793893,2019-08-05 14:20:14,9.0
301.0,0.009094238,-0.120788574,0.053466797,-16.236639999999998,1.7099236,-1.6793894,2019-08-05 14:20:14,9.0
302.0,-0.0018310547,-0.112976074,0.047180176,-15.648855,1.4961832,-3.259542,2019-08-05 14:20:14,9.0
303.0,-0.0056152344,-0.12084961,0.05126953,-10.068703,0.34351146,-3.2824428,2019-08-05 14:20:14,9.0
304.0,0.008728027,-0.1227417,0.047180176,-21.175573,-0.35877863,-3.7633588,2019-08-05 14:20:14,9.0
305.0,-0.0017700195,-0.11828613,0.04309082,-22.145039,0.24427481,-1.3664122,2019-08-05 14:20:14,9.0
306.0,0.013977051,-0.12219238,0.043273926,-21.343512,-1.9847329,-2.687023,2019-08-05 14:20:14,9.0
307.0,-0.004699707,-0.12261963,0.044189453,-19.717558,-4.633588,-5.221374,2019-08-05 14:20:14,9.0
308.0,0.0007324219,-0.12133789,0.036987305,-4.2442746,-5.6183205,-4.7175574000000005,2019-08-05 14:20:14,9.0
309.0,-0.005737304699999999,-0.117614746,0.04437256,1.6641221000000002,-4.885496,-3.3587787,2019-08-05 14:20:14,9.0
310.0,-0.00024414062,-0.124694824,0.035888672,13.862596,-4.5038166,-7.458015400000002,2019-08-05 14:20:14,9.0
311.0,0.00024414062,-0.117248535,0.041870117000000005,25.717558,-5.8091599999999985,-4.3435115999999985,2019-08-05 14:20:14,9.0
312.0,-0.003540039,-0.11621094,0.061645508,6.9160304,-0.7633588000000001,0.7633588000000001,2019-08-05 14:20:14,9.0
313.0,0.004272461,-0.12084961,0.045776367000000005,-18.832062,-1.0305344,-1.0458015,2019-08-05 14:20:14,9.0
314.0,-0.0028686523,-0.120788574,0.042297363,-25.114504,-2.8244274,-3.778626,2019-08-05 14:20:14,9.0
315.0,0.003540039,-0.11956787,0.044128418,-23.496183,-5.5496182,-0.22900763,2019-08-05 14:20:14,9.0
316.0,0.0053100586,-0.12365723,0.037719727,-23.450382,1.2900764,2.5038168,2019-08-05 14:20:14,9.0
317.0,0.0034179688,-0.12451172,0.03326416,-27.282442,0.66412216,0.0,2019-08-05 14:20:14,9.0
318.0,0.0,-0.12109375,0.026428223,-7.3129773,1.9389313,-2.3664122000000005,2019-08-05 14:20:15,9.0
319.0,0.007690429699999998,-0.12036133,0.04144287,0.41221374,-0.18320611,-2.8625953,2019-08-05 14:20:15,9.0
320.0,-0.0017089844,-0.12548828,0.044006348,2.221374,-2.4580152,-4.4503818,2019-08-05 14:20:15,9.0
321.0,0.007568359399999999,-0.1194458,0.036376953,-0.34351146,-0.6259541999999999,2.5038168,2019-08-05 14:20:15,9.0
322.0,0.008178711,-0.11828613,0.03265381,6.854962,0.9541985,4.4580154,2019-08-05 14:20:15,9.0
323.0,0.0017700195,-0.120666504,0.042114258,5.4885497,0.78625953,-0.061068702,2019-08-05 14:20:15,9.0
324.0,0.010437012,-0.12628174,0.03967285,8.7786255,2.4503818,-0.9694657,2019-08-05 14:20:15,9.0
325.0,0.0032348633000000003,-0.12164307,0.038208008,10.992367,0.16793893,-0.20610687,2019-08-05 14:20:15,9.0
326.0,0.00793457,-0.121154785,0.037719727,9.541985,-0.46564886,-2.6030533,2019-08-05 14:20:15,9.0
327.0,0.006958008000000001,-0.1105957,0.041015625,6.9770994,-0.007633588,-1.519084,2019-08-05 14:20:15,9.0
328.0,-0.0037841797,-0.11682129,0.038757324,5.5343513,1.2671756,0.0,2019-08-05 14:20:15,9.0
329.0,0.009460449,-0.12176514,0.03942871,7.2442746,1.29771,-0.4351145000000001,2019-08-05 14:20:15,9.0
330.0,-0.00390625,-0.11608887,0.04071045,11.229008,1.5038168,-2.0229008,2019-08-05 14:20:15,9.0
331.0,-0.0029907227,-0.11999512,0.044311523,5.9694657,1.908397,-0.2519084,2019-08-05 14:20:15,9.0
332.0,-0.0045776367,-0.11730957,0.045410155999999986,1.648855,1.70229,-1.6335878,2019-08-05 14:20:15,9.0
333.0,-0.0018920898,-0.11279297,0.045776367000000005,-0.48854962,1.6641221000000002,-1.8244275,2019-08-05 14:20:15,9.0
334.0,0.0026855469,-0.117126465,0.04559326,-3.5267177000000003,0.4274809,-1.2900764,2019-08-05 14:20:15,9.0
335.0,-0.00091552734,-0.11578369,0.041625977,-4.4961834000000005,0.77862597,-1.5572518999999998,2019-08-05 14:20:15,9.0
336.0,0.0012817383,-0.117248535,0.0435791,-2.534351,1.4580153,-2.2748091,2019-08-05 14:20:15,9.0
337.0,0.00036621094,-0.11242676,0.047790527,-4.6870227,1.5038168,-2.076336,2019-08-05 14:20:15,9.0
338.0,-0.0028076172,-0.11785889,0.03668213,-7.068702,2.816794,-2.793893,2019-08-05 14:20:15,9.0
339.0,0.005432129,-0.12451172,0.039916992000000005,-7.8244276,2.610687,-2.946565,2019-08-05 14:20:15,9.0
340.0,0.0045776367,-0.11621094,0.039916992000000005,-11.923664,5.015267400000001,-0.77099234,2019-08-05 14:20:15,9.0
341.0,-0.0036010742,-0.12219238,0.044433594000000014,-8.580152499999999,1.9007634,0.7633588000000001,2019-08-05 14:20:15,9.0
342.0,-0.008300781,-0.11279297,0.040283203,-16.671754999999994,1.3969465,-0.19847329,2019-08-05 14:20:15,9.0
343.0,-0.0025024414000000004,-0.119628906,0.035095215,-26.992367,4.0610685,-1.9389313,2019-08-05 14:20:15,9.0
344.0,0.0138549805,-0.12237549,0.0368042,-19.603054,-1.9389313,-1.6259542,2019-08-05 14:20:15,9.0
345.0,0.006958008000000001,-0.119140625,0.036193848,-9.496183,-1.6259542,-0.9236641,2019-08-05 14:20:15,9.0
346.0,0.010681152,-0.119384766,0.035705566,-7.076336,0.79389316,0.77862597,2019-08-05 14:20:15,9.0
347.0,-0.0007934570299999999,-0.11859131,0.03778076,-6.6488547,4.8625956,2.7251909,2019-08-05 14:20:15,9.0
348.0,-0.008972168,-0.12145996,0.03363037,-5.2137403,5.8244276,3.076336,2019-08-05 14:20:15,9.0
349.0,-0.005981445300000001,-0.119140625,0.03515625,-6.9847326,2.5496182000000003,1.3587786,2019-08-05 14:20:15,9.0
350.0,0.010070801,-0.122558594,0.030639648,-4.2290077,-2.2290077,-5.89313,2019-08-05 14:20:15,9.0
351.0,-0.0010986328,-0.1237793,0.03527832,3.534351,0.29007635,-1.3816794,2019-08-05 14:20:15,9.0
352.0,6.1035156e-05,-0.12084961,0.038208008,0.49618322,2.8015267999999995,1.5954198999999998,2019-08-05 14:20:15,9.0
353.0,-0.006591797,-0.11956787,0.03765869,-15.236641,-1.0305344,0.65648854,2019-08-05 14:20:15,9.0
354.0,-0.0095825195,-0.11981201,0.03643799,-25.0,-0.99236643,-0.5954198,2019-08-05 14:20:16,9.0
355.0,-0.0010986328,-0.12109375,0.024414062,-19.61832,-1.2748091,0.53435117,2019-08-05 14:20:16,9.0
356.0,0.0041503906,-0.124694824,0.029052734,-15.702291,-0.49618322,4.5343513,2019-08-05 14:20:16,9.0
357.0,-0.0028076172,-0.11993408,0.022766113,-16.335878,0.8702290000000001,2.9770992,2019-08-05 14:20:16,9.0
358.0,0.0021972656,-0.12048339999999998,0.0211792,-2.870229,1.5267175,-0.06870229,2019-08-05 14:20:16,9.0
359.0,-0.006042480500000001,-0.12548828,0.02947998,2.480916,1.1984733,-2.335878,2019-08-05 14:20:16,9.0
360.0,-0.0032348633000000003,-0.12371826,0.03137207,0.114503816,3.7557251,2.183206,2019-08-05 14:20:16,9.0
361.0,-0.0028686523,-0.12414551,0.032958984,-2.091603,4.5343513,4.5801525000000005,2019-08-05 14:20:16,9.0
362.0,-0.0017089844,-0.12054443,0.023803711,1.7175573,2.5954200000000003,0.259542,2019-08-05 14:20:16,9.0
363.0,-0.009216309,-0.12432861,0.029785156,-0.49618322,1.5267175,-1.7480916000000002,2019-08-05 14:20:16,9.0
364.0,-0.0072021484,-0.12182617,0.030578613,-4.40458,1.0992366000000002,-0.55725193,2019-08-05 14:20:16,9.0
365.0,-0.0025024414000000004,-0.12438965,0.023071289,0.6259541999999999,0.35114503,-0.58778626,2019-08-05 14:20:16,9.0
366.0,-0.00048828125,-0.123413086,0.028808594,4.740458,1.6564884999999998,-0.49618322,2019-08-05 14:20:16,9.0
367.0,-0.006225586,-0.118652344,0.03326416,2.9541984,1.610687,-0.061068702,2019-08-05 14:20:16,9.0
368.0,-0.001953125,-0.124572754,0.027282715,3.7633588,1.7404580000000005,-1.480916,2019-08-05 14:20:16,9.0
369.0,-0.007385254,-0.12408447,0.029663086,-0.31297709999999995,0.86259544,-2.6717558,2019-08-05 14:20:16,9.0
370.0,-0.001159668,-0.12207031,0.025634766,-3.3816793,1.908397,-4.847328,2019-08-05 14:20:16,9.0
371.0,-0.0043945312,-0.12945557,0.0256958,-3.6412213,1.3282443000000002,-4.3282440000000015,2019-08-05 14:20:16,9.0
372.0,-0.00024414062,-0.12548828,0.0289917,0.41984734,1.1984733,-2.053435,2019-08-05 14:20:16,9.0
373.0,-0.0063476562,-0.120910645,0.03100586,5.603053599999999,2.534351,-2.6030533,2019-08-05 14:20:16,9.0
374.0,-0.0026245117,-0.12640381,0.02960205,7.59542,2.6030533,-0.99236643,2019-08-05 14:20:16,9.0
375.0,0.0017700195,-0.12335205,0.030090332,2.3664122000000005,2.70229,-0.007633588,2019-08-05 14:20:16,9.0
376.0,-0.0005493164,-0.12731934,0.03125,4.5496182,-0.17557251,-1.70229,2019-08-05 14:20:16,9.0
377.0,-0.00579834,-0.122802734,0.029052734,3.312977,-2.4122138,-4.8625956,2019-08-05 14:20:16,9.0
378.0,-0.001953125,-0.13055419999999998,0.033447266,2.9923663,-2.7328243,-5.0992365,2019-08-05 14:20:16,9.0
379.0,-0.006225586,-0.12164307,0.034423828,-3.923664,0.60305345,-0.5496183000000001,2019-08-05 14:20:16,9.0
380.0,-0.003967285,-0.12054443,0.028320312,-2.7328243,-0.007633588,-3.5114503,2019-08-05 14:20:16,9.0
381.0,-0.008117675999999999,-0.120910645,0.03265381,0.35114503,0.84732825,-3.3816793,2019-08-05 14:20:16,9.0
382.0,-0.008361816,-0.12371826,0.02734375,1.4503816,1.4732825,-3.312977,2019-08-05 14:20:16,9.0
383.0,0.0016479492000000002,-0.12640381,0.032836914,4.816794,-1.519084,-3.7175572,2019-08-05 14:20:16,9.0
384.0,-0.0005493164,-0.1194458,0.03955078,0.40458015,0.71755725,-4.9465647000000015,2019-08-05 14:20:16,9.0
385.0,0.0037841797,-0.12054443,0.030761719,-10.732824,0.4274809,-4.816794,2019-08-05 14:20:16,9.0
386.0,0.0021362305,-0.12817383,0.028076172000000003,-14.396947,3.0,-2.7328243,2019-08-05 14:20:16,9.0
387.0,0.007690429699999998,-0.11975098,0.027709961,-8.435115,3.7328243,1.7175573,2019-08-05 14:20:16,9.0
388.0,-0.006164551,-0.124938965,0.026977539,1.7480916000000002,1.8091604,-0.6259541999999999,2019-08-05 14:20:16,9.0
389.0,-0.0017700195,-0.119140625,0.035705566,3.7557251,0.6183206,-3.206107,2019-08-05 14:20:17,9.0
390.0,0.0013427734,-0.12359619,0.029785156,0.27480915,0.19083970000000006,-2.557252,2019-08-05 14:20:17,9.0
391.0,-0.0014648438,-0.12286377,0.028259277000000006,-0.65648854,0.9160305,-3.1450381000000003,2019-08-05 14:20:17,9.0
392.0,0.0022583008,-0.11871338,0.021911621000000003,2.8931298,0.79389316,-0.84732825,2019-08-05 14:20:17,9.0
393.0,-0.006591797,-0.12286377,0.029785156,3.7862597,1.1526718,-0.7251908,2019-08-05 14:20:17,9.0
394.0,-0.0016479492000000002,-0.12017822,0.033813477,-1.2671756,1.7099236,-1.648855,2019-08-05 14:20:17,9.0
395.0,0.011962891000000002,-0.12225342,0.028564453,-3.389313,2.6259542,-1.2824427,2019-08-05 14:20:17,9.0
396.0,-0.0030517578000000003,-0.12799072,0.025878906,-0.33587787,1.3282443000000002,-0.6793893,2019-08-05 14:20:17,9.0
397.0,0.0018310547,-0.120666504,0.027404785,8.549619,2.5801528,-2.5267177000000003,2019-08-05 14:20:17,9.0
398.0,-0.0049438477,-0.12286377,0.032043457000000004,8.641221,0.8091603,-1.4198474,2019-08-05 14:20:17,9.0
399.0,-0.003540039,-0.12231445,0.034484863,1.4198474,1.4045801000000002,-0.53435117,2019-08-05 14:20:17,9.0
400.0,-0.0068969727,-0.12176514,0.03186035,-2.8931298,2.6030533,-0.4351145000000001,2019-08-05 14:20:17,9.0
401.0,-0.005554199,-0.12347412,0.0289917,0.045801528,1.5725191,-3.0610688,2019-08-05 14:20:17,9.0
402.0,0.0034790040000000004,-0.12359619,0.024475098,-0.061068702,-0.122137405,-4.0458016,2019-08-05 14:20:17,9.0
403.0,-0.009033203,-0.12670898,0.035461426000000004,-2.2824428,1.0458015,-2.5038168,2019-08-05 14:20:17,9.0
404.0,0.00091552734,-0.12445068,0.02947998,-0.71755725,0.259542,-4.335878,2019-08-05 14:20:17,9.0
405.0,0.0015869141,-0.11810303,0.030517578,0.519084,0.54198474,-2.3282442000000003,2019-08-05 14:20:17,9.0
406.0,-0.0049438477,-0.1184082,0.029296875,-0.4274809,0.7480916,-2.5267177000000003,2019-08-05 14:20:17,9.0
407.0,0.0026855469,-0.12701416,0.029907227,-1.4885496,0.8549618,-1.4580153,2019-08-05 14:20:17,9.0
408.0,0.005432129,-0.12237549,0.031188965,-1.1145039,1.3587786,-2.4580152,2019-08-05 14:20:17,9.0
409.0,-0.010131836,-0.1227417,0.033813477,-1.8091604,2.312977,-2.534351,2019-08-05 14:20:17,9.0
410.0,0.0025024414000000004,-0.1171875,0.025756836,-0.122137405,2.961832,-1.961832,2019-08-05 14:20:17,9.0
411.0,0.002319336,-0.12286377,0.024108887,-0.47328246,1.7709924,-2.5877862,2019-08-05 14:20:17,9.0
412.0,-0.00048828125,-0.12542725,0.032470703,-2.4351146,1.2442749,-3.167939,2019-08-05 14:20:17,9.0
413.0,-0.0017089844,-0.11987305,0.030944824,-1.4732825,0.96183205,-3.610687,2019-08-05 14:20:17,9.0
414.0,-0.0031738281,-0.118652344,0.02508545,-1.8931298,0.84732825,-1.8396946,2019-08-05 14:20:17,9.0
415.0,-0.0028076172,-0.12261963,0.031921387,-1.6564884999999998,2.3969467,-2.335878,2019-08-05 14:20:17,9.0
416.0,-0.0033569336,-0.12121582,0.02935791,-0.9160305,1.6946564999999998,-2.053435,2019-08-05 14:20:17,9.0
417.0,0.0013427734,-0.12506104,0.029968262,-1.4961832,1.2519083999999998,-0.35114503,2019-08-05 14:20:17,9.0
418.0,-0.0028686523,-0.120788574,0.030578613,0.48091602,2.908397,-2.2519083,2019-08-05 14:20:17,9.0
419.0,0.00012207031,-0.12921143,0.032470703,-1.6641221000000002,1.7404580000000005,-1.8625954,2019-08-05 14:20:17,9.0
420.0,0.0026245117,-0.12158203,0.029968262,-0.9847328000000002,1.4580153,-2.3740458,2019-08-05 14:20:17,9.0
421.0,-0.0064697266000000005,-0.12347412,0.026489258,-3.0992367,2.4961832000000004,-3.1450381000000003,2019-08-05 14:20:17,9.0
422.0,-0.013122559,-0.12432861,0.030639648,-0.8015267,1.908397,-2.3282442000000003,2019-08-05 14:20:17,9.0
423.0,0.0021972656,-0.12219238,0.028442383,-2.1450381000000003,1.4503816,-2.1908398,2019-08-05 14:20:17,9.0
424.0,0.0053710938,-0.116882324,0.026123047000000003,-1.4045801000000002,2.2824428,-1.1603054,2019-08-05 14:20:18,9.0
425.0,-0.009033203,-0.12347412,0.02758789,0.78625953,1.9465649,-0.40458015,2019-08-05 14:20:18,9.0
426.0,-0.00579834,-0.11987305,0.031188965,-0.15267175,2.8625953,-1.2824427,2019-08-05 14:20:18,9.0
427.0,-0.00036621094,-0.12249756,0.03314209,-1.5343511,1.4961832,-0.015267176,2019-08-05 14:20:18,9.0
428.0,0.0014648438,-0.12347412,0.029968262,-1.0305344,1.9312977,-3.2519083,2019-08-05 14:20:18,9.0
429.0,-0.006713866999999999,-0.1194458,0.024047852,-1.6946564999999998,1.4503816,-1.4961832,2019-08-05 14:20:18,9.0
430.0,0.0030517578000000003,-0.118896484,0.03527832,-2.0839694,2.442748,-3.091603,2019-08-05 14:20:18,9.0
431.0,-0.008911133,-0.119262695,0.03277588,-1.4732825,2.0229008,-0.7480916,2019-08-05 14:20:18,9.0
432.0,0.0007324219,-0.118774414,0.032165527,0.6870229,0.9465649,-2.2290077,2019-08-05 14:20:18,9.0
433.0,-0.0004272461,-0.121520996,0.028442383,0.053435113,2.1908398,-1.8473282,2019-08-05 14:20:18,9.0
434.0,-0.0053100586,-0.12658691,0.028442383,0.16793893,1.5954198999999998,-2.0992367,2019-08-05 14:20:18,9.0
435.0,-0.0043945312,-0.12286377,0.029663086,-0.08396947,3.0610688,-2.7251909,2019-08-05 14:20:18,9.0
436.0,-0.0031738281,-0.12200928,0.027038574,0.7557252,1.4351145,-1.8473282,2019-08-05 14:20:18,9.0
437.0,-0.0030517578000000003,-0.11975098,0.029663086,-0.84732825,1.8778626,-2.5038168,2019-08-05 14:20:18,9.0
438.0,-0.0018310547,-0.12628174,0.026733398,-0.22900763,1.7862595,-3.2442749,2019-08-05 14:20:18,9.0
439.0,-0.001159668,-0.119506836,0.027893066,-2.557252,1.3129771,-3.335878,2019-08-05 14:20:18,9.0
440.0,-0.0024414062,-0.12371826,0.026550293,-2.6259542,2.9541984,-2.2824428,2019-08-05 14:20:18,9.0
441.0,0.005676269499999999,-0.1296997,0.02935791,-3.6717558,0.35877863,-2.7175572,2019-08-05 14:20:18,9.0
442.0,0.0016479492000000002,-0.12445068,0.018920898,-3.259542,0.7633588000000001,-2.6946564,2019-08-05 14:20:18,9.0
443.0,-0.008728027,-0.116760254,0.023620605,4.9160304,2.8854961,-1.648855,2019-08-05 14:20:18,9.0
444.0,-0.0068969727,-0.125,0.027770996000000003,2.3969467,1.7251909,-2.0458016,2019-08-05 14:20:18,9.0
445.0,-0.003112793,-0.121520996,0.035827637,-2.3282442000000003,1.6946564999999998,-1.9847329,2019-08-05 14:20:18,9.0
446.0,-0.00390625,-0.11999512,0.022766113,-4.7938933,2.687023,-3.5190839999999994,2019-08-05 14:20:18,9.0
447.0,-0.009887695,-0.12609863,0.02923584,-2.6183207000000004,1.1832061000000005,-2.7175572,2019-08-05 14:20:18,9.0
448.0,-0.005554199,-0.118774414,0.020263672,2.465649,4.9694657,-1.5954198999999998,2019-08-05 14:20:18,9.0
449.0,0.006286621,-0.122680664,0.033935547,0.83206105,2.1908398,-1.9236641,2019-08-05 14:20:18,9.0
450.0,-0.010864258,-0.123413086,0.033569336,0.52671754,2.167939,-0.20610687,2019-08-05 14:20:18,9.0
451.0,0.0031738281,-0.11816406,0.031555176000000004,0.5114504,2.5877862,-0.89312977,2019-08-05 14:20:18,9.0
452.0,0.0024414062,-0.12683105,0.026184082,0.24427481,2.5877862,-0.53435117,2019-08-05 14:20:18,9.0
453.0,-0.0063476562,-0.12658691,0.029724121000000006,0.061068702,1.9389313,-2.129771,2019-08-05 14:20:18,9.0
454.0,-0.0021362305,-0.1262207,0.019958496000000003,-0.84732825,2.129771,0.0,2019-08-05 14:20:18,9.0
455.0,-0.004272461,-0.11730957,0.032104492000000005,-1.3129771,0.86259544,-1.7862595,2019-08-05 14:20:18,9.0
456.0,-0.005676269499999999,-0.12048339999999998,0.025024414,-1.5801526,2.038168,-1.8396946,2019-08-05 14:20:18,9.0
457.0,-0.003540039,-0.12030029,0.025939941,-2.0152671000000004,2.7251909,-2.3969467,2019-08-05 14:20:18,9.0
458.0,-0.0037841797,-0.12048339999999998,0.03289795,-1.3129771,2.7328243,-3.2137403,2019-08-05 14:20:18,9.0
459.0,-0.00048828125,-0.12011719,0.029052734,-1.0610687,0.73282444,-2.7328243,2019-08-05 14:20:18,9.0
460.0,-0.006591797,-0.124694824,0.031555176000000004,-0.08396947,2.7175572,-2.1068702,2019-08-05 14:20:18,9.0
461.0,-0.0036010742,-0.12652588,0.02746582,-1.9923664,-0.030534351,-3.2748091,2019-08-05 14:20:19,9.0
462.0,-0.0029296875,-0.12359619,0.026550293,-3.221374,2.0839694,-3.6335878,2019-08-05 14:20:19,9.0
463.0,-0.0018310547,-0.12731934,0.02355957,-1.0,1.8625954,-2.70229,2019-08-05 14:20:19,9.0
464.0,-0.0025024414000000004,-0.12408447,0.025512695,-0.54198474,0.9847328000000002,-2.0229008,2019-08-05 14:20:19,9.0
465.0,-0.0107421875,-0.12664795,0.028808594,1.1450381,1.8778626,-1.9847329,2019-08-05 14:20:19,9.0
466.0,0.001159668,-0.12322998,0.030273438,0.7557252,2.427481,-3.8931298,2019-08-05 14:20:19,9.0
467.0,-0.0014038086,-0.12384033,0.027709961,-2.557252,2.2748091,-2.2290077,2019-08-05 14:20:19,9.0
468.0,-0.0017700195,-0.12237549,0.025756836,-0.099236645,1.7328244,-1.9007634,2019-08-05 14:20:19,9.0
469.0,-0.0025634766,-0.12872314,0.028015137,-3.6412213,3.9007633,-2.7862597,2019-08-05 14:20:19,9.0
470.0,0.00048828125,-0.12194824,0.021118164,-1.6564884999999998,1.7175573,-2.0229008,2019-08-05 14:20:19,9.0
471.0,-0.004028320300000001,-0.12219238,0.020446777,-0.35114503,1.8778626,-1.870229,2019-08-05 14:20:19,9.0
472.0,-0.0071411133,-0.124938965,0.026000977,0.2519084,1.2366412,-0.8702290000000001,2019-08-05 14:20:19,9.0
473.0,0.005554199,-0.11895752,0.027954102,2.335878,2.5038168,-0.3816794000000001,2019-08-05 14:20:19,9.0
474.0,-0.007507324,-0.119018555,0.02532959,1.1908396,2.4961832000000004,-1.9236641,2019-08-05 14:20:19,9.0
475.0,-0.0064086914,-0.1293335,0.031433105,0.8167939000000001,2.572519,-1.6717557,2019-08-05 14:20:19,9.0
476.0,-0.014099121,-0.121154785,0.028869629,-1.908397,2.0152671000000004,-2.5877862,2019-08-05 14:20:19,9.0
477.0,-0.0031738281,-0.119628906,0.026794434,-1.7175573,2.961832,-2.793893,2019-08-05 14:20:19,9.0
478.0,-0.00048828125,-0.12432861,0.028015137,-3.923664,1.7251909,-1.221374,2019-08-05 14:20:19,9.0
479.0,0.00024414062,-0.11859131,0.02734375,-0.8702290000000001,2.5496182000000003,0.22137405,2019-08-05 14:20:19,9.0
480.0,-0.0026245117,-0.12005615,0.020507812,0.41984734,-2.1755726,-4.1297708,2019-08-05 14:20:19,9.0
481.0,0.0020751953,-0.12042236,0.031982422,4.664122,3.2671757,-0.53435117,2019-08-05 14:20:19,9.0
482.0,-0.013427733999999998,-0.119262695,0.02947998,4.4961834000000005,5.3816795,0.3816794000000001,2019-08-05 14:20:19,9.0
483.0,-0.0056152344,-0.12420654,0.032714844,-0.4351145000000001,1.3816794,-1.7557251,2019-08-05 14:20:19,9.0
484.0,-0.007385254,-0.12536621,0.026855469,-3.0229008,1.9465649,-4.1908400000000015,2019-08-05 14:20:19,9.0
485.0,-0.007507324,-0.12237549,0.025512695,-3.465649,0.9160305,-4.8091599999999985,2019-08-05 14:20:19,9.0
486.0,-0.005004883,-0.12402344,0.027404785,-2.0076337,-0.35877863,-4.259542,2019-08-05 14:20:19,9.0
487.0,-0.00036621094,-0.11383057,0.02532959,-0.86259544,1.3816794,-2.9312978,2019-08-05 14:20:19,9.0
488.0,-0.00036621094,-0.12335205,0.03338623,3.167939,1.7786259999999998,-1.6183206,2019-08-05 14:20:19,9.0
489.0,-0.0053710938,-0.122924805,0.029724121000000006,2.1603053,2.1374047000000003,-3.2748091,2019-08-05 14:20:19,9.0
490.0,-0.001159668,-0.1239624,0.029296875,-3.0839694,2.29771,-2.1755726,2019-08-05 14:20:19,9.0
491.0,-0.015808105,-0.12335205,0.025024414,-2.2366412,1.6259542,-1.870229,2019-08-05 14:20:19,9.0
492.0,-0.0009765625,-0.12475586,0.026000977,0.70229006,0.6183206,-1.8854961,2019-08-05 14:20:19,9.0
493.0,-0.010986328,-0.12371826,0.022155762,-0.64122134,0.7480916,-4.4351144,2019-08-05 14:20:19,9.0
494.0,0.0034179688,-0.12738037,0.027648926,-1.9923664,0.610687,-2.7404580000000003,2019-08-05 14:20:19,9.0
495.0,-0.0063476562,-0.124938965,0.0256958,-1.6564884999999998,0.54198474,-3.6717558,2019-08-05 14:20:19,9.0
496.0,-0.009643555,-0.12213135,0.021240234,0.5801527,1.3969465,-2.5801528,2019-08-05 14:20:19,9.0
497.0,-0.0015258789,-0.12677002,0.02154541,2.534351,1.1603054,-1.2748091,2019-08-05 14:20:20,9.0
498.0,-0.0020751953,-0.121154785,0.029968262,-0.610687,2.2824428,-2.7099237,2019-08-05 14:20:20,9.0
499.0,-0.0051879883,-0.12231445,0.028015137,-1.6030535,0.8778626,-2.8244274,2019-08-05 14:20:20,9.0
500.0,-0.0017089844,-0.12243652,0.024475098,0.061068702,1.4656489,-4.0534352999999985,2019-08-05 14:20:20,9.0
501.0,-0.0061035156000000005,-0.12542725,0.026916504,0.54198474,3.40458,-0.7099236999999999,2019-08-05 14:20:20,9.0
502.0,-0.008728027,-0.12371826,0.027404785,0.46564886,3.4732823,-1.259542,2019-08-05 14:20:20,9.0
503.0,-0.0026245117,-0.124816895,0.024475098,1.351145,1.7328244,-2.29771,2019-08-05 14:20:20,9.0
504.0,-0.013671875,-0.11828613,0.024963379,-0.7251908,2.648855,-1.5343511,2019-08-05 14:20:20,9.0
505.0,-0.0010986328,-0.12194824,0.029846191,1.7404580000000005,2.335878,-2.0687022,2019-08-05 14:20:20,9.0
506.0,-0.0036010742,-0.12445068,0.03112793,0.27480915,2.465649,-3.0687022,2019-08-05 14:20:20,9.0
507.0,-0.0041503906,-0.12322998,0.025390625,-1.8015267,2.1145039,-1.1984733,2019-08-05 14:20:20,9.0
508.0,-0.004638672,-0.12390137,0.029724121000000006,-2.0992367,2.7404580000000003,-3.9923663,2019-08-05 14:20:20,9.0
509.0,-0.0014038086,-0.122558594,0.030456543,-2.7251909,1.5496184,-4.0610685,2019-08-05 14:20:20,9.0
510.0,0.0016479492000000002,-0.120788574,0.024169922000000003,-0.8702290000000001,2.0992367,-1.0839695,2019-08-05 14:20:20,9.0
511.0,-0.0045166016,-0.12652588,0.03125,-0.7557252,2.4732823,-3.1145039,2019-08-05 14:20:20,9.0
512.0,-0.00024414062,-0.1227417,0.022949219,-0.41221374,3.0152671000000004,-1.8549619,2019-08-05 14:20:20,9.0
513.0,0.0028076172,-0.12591553,0.030761719,-1.2366412,2.5496182000000003,-1.7938931,2019-08-05 14:20:20,9.0
514.0,-0.003967285,-0.11999512,0.030639648,-0.36641222,2.206107,-3.0458016,2019-08-05 14:20:20,9.0
515.0,-0.0025634766,-0.12231445,0.029174805,0.48091602,1.9694656000000004,-2.053435,2019-08-05 14:20:20,9.0
516.0,0.00390625,-0.120910645,0.02722168,0.022900764,1.961832,-1.7709924,2019-08-05 14:20:20,9.0
517.0,-0.007568359399999999,-0.121276855,0.030761719,-0.31297709999999995,3.0610688,-2.534351,2019-08-05 14:20:20,9.0
518.0,-6.1035156e-05,-0.12261963,0.026550293,-1.351145,1.7633588,-3.5038168,2019-08-05 14:20:20,9.0
519.0,-0.008056641,-0.119384766,0.031677246,0.45801526,3.6412213,-0.5648854999999999,2019-08-05 14:20:20,9.0
520.0,-0.0064697266000000005,-0.12774658,0.029174805,0.8091603,1.8015267,-2.8625953,2019-08-05 14:20:20,9.0
521.0,0.0041503906,-0.12188721,0.026855469,-0.8091603,1.8625954,-2.1984732000000005,2019-08-05 14:20:20,9.0
522.0,-0.0030517578000000003,-0.12097168,0.033081055,-0.3740458,0.8167939000000001,-0.16030534,2019-08-05 14:20:20,9.0
523.0,0.0006103515599999999,-0.1182251,0.02911377,-2.5954200000000003,1.8091604,-4.4809160000000015,2019-08-05 14:20:20,9.0
524.0,-0.009460449,-0.122680664,0.026550293,-1.1603054,1.4885496,-2.4351146,2019-08-05 14:20:20,9.0
525.0,-0.004028320300000001,-0.12432861,0.02758789,-0.8091603,0.22900763,-2.4961832000000004,2019-08-05 14:20:20,9.0
526.0,0.0031738281,-0.1260376,0.023010254,-2.8625953,2.427481,-4.0610685,2019-08-05 14:20:20,9.0
527.0,-0.0029296875,-0.12054443,0.022033691,-0.4351145000000001,3.335878,-4.2900763,2019-08-05 14:20:20,9.0
528.0,-0.008300781,-0.12518310000000002,0.03326416,0.96183205,3.091603,-1.519084,2019-08-05 14:20:20,9.0
529.0,-0.0068969727,-0.12335205,0.025756836,-0.48854962,0.79389316,-2.5954200000000003,2019-08-05 14:20:20,9.0
530.0,0.0020141602,-0.123168945,0.02532959,-2.312977,2.091603,-2.1984732000000005,2019-08-05 14:20:20,9.0
531.0,-0.0005493164,-0.11846924,0.029052734,-3.4198472,2.6946564,-2.6946564,2019-08-05 14:20:20,9.0
532.0,-0.0029296875,-0.12463379,0.028381348,-1.0152671,2.4351146,-2.3816793,2019-08-05 14:20:21,9.0
533.0,-0.010986328,-0.120910645,0.028381348,-1.9312977,2.5877862,-2.1755726,2019-08-05 14:20:21,9.0
534.0,-0.0041503906,-0.12042236,0.022888184,-2.793893,1.2519083999999998,-2.29771,2019-08-05 14:20:21,9.0
535.0,-0.0020751953,-0.11920166,0.029968262,-1.0839695,2.3740458,-1.7480916000000002,2019-08-05 14:20:21,9.0
536.0,-0.005676269499999999,-0.12609863,0.025756836,-0.32824427,1.519084,-1.5725191,2019-08-05 14:20:21,9.0
537.0,-0.006225586,-0.12384033,0.028747559,0.13740458,2.6030533,-1.908397,2019-08-05 14:20:21,9.0
538.0,0.00091552734,-0.12322998,0.026000977,0.3053435,2.29771,-1.8244275,2019-08-05 14:20:21,9.0
539.0,-0.007019043000000001,-0.11871338,0.025146484,0.9236641,2.908397,-1.3358778999999998,2019-08-05 14:20:21,9.0
540.0,-0.008605957,-0.123291016,0.020751953,0.19083970000000006,0.97709924,-2.3587787,2019-08-05 14:20:21,9.0
541.0,-0.0053100586,-0.119262695,0.028076172000000003,-0.66412216,2.6412213,-3.259542,2019-08-05 14:20:21,9.0
542.0,-0.008422852,-0.12005615,0.020629883,-2.2290077,2.2290077,-3.0229008,2019-08-05 14:20:21,9.0
543.0,-0.0071411133,-0.12188721,0.0289917,1.6412214,1.3206106000000002,-3.7633588,2019-08-05 14:20:21,9.0
544.0,-0.007873535,-0.12390137,0.028381348,0.053435113,2.1450381000000003,-2.4503818,2019-08-05 14:20:21,9.0
545.0,0.0032958984000000004,-0.12188721,0.024597168,-0.5954198,2.3511450000000003,-3.6717558,2019-08-05 14:20:21,9.0
546.0,-0.001953125,-0.12164307,0.02532959,-0.45801526,2.4122138,-3.465649,2019-08-05 14:20:21,9.0
547.0,-0.0087890625,-0.11743164,0.026916504,-0.8167939000000001,2.4580152,-3.9847329,2019-08-05 14:20:21,9.0
548.0,0.0015258789,-0.12683105,0.02734375,0.14503817,1.4961832,-3.4503818,2019-08-05 14:20:21,9.0
549.0,-0.007873535,-0.121520996,0.025756836,-1.4351145,2.6412213,-2.6641220000000003,2019-08-05 14:20:21,9.0
550.0,-0.0028076172,-0.12664795,0.028381348,-1.4656489,2.5648854,-2.6412213,2019-08-05 14:20:21,9.0
551.0,0.0008544922000000001,-0.12536621,0.023986816,-1.0534351,3.259542,-2.076336,2019-08-05 14:20:21,9.0
552.0,-0.0040893555,-0.11975098,0.028076172000000003,0.5648854999999999,1.5954198999999998,-2.832061,2019-08-05 14:20:21,9.0
553.0,-0.010620117,-0.12188721,0.029541016,1.3282443000000002,2.7099237,-2.9923663,2019-08-05 14:20:21,9.0
554.0,-0.007507324,-0.12249756,0.026428223,1.5038168,1.1984733,-2.4122138,2019-08-05 14:20:21,9.0
555.0,-0.0028076172,-0.1239624,0.028564453,-4.0,3.1068702,-3.7557251,2019-08-05 14:20:21,9.0
556.0,-0.0071411133,-0.12420654,0.02520752,0.2977099,7.6870227,-3.129771,2019-08-05 14:20:21,9.0
557.0,-0.004638672,-0.12164307,0.025756836,5.2061067,6.114504,-4.0839696000000005,2019-08-05 14:20:21,9.0
558.0,-0.0022583008,-0.12591553,0.028869629,9.183207,7.282442599999999,-6.931298,2019-08-05 14:20:21,9.0
559.0,-0.0029907227,-0.11682129,0.027526855,11.145039,12.450381,-4.2900763,2019-08-05 14:20:21,9.0
560.0,-0.0004272461,-0.12542725,0.036315918,5.4961834000000005,17.145039,-4.2519083,2019-08-05 14:20:21,9.0
561.0,-0.009460449,-0.12384033,0.023498535,2.2137403,18.221375,-6.2290077,2019-08-05 14:20:21,9.0
562.0,0.003967285,-0.12451172,0.02758789,4.0458016,14.465649,-8.312977,2019-08-05 14:20:21,9.0
563.0,0.0034790040000000004,-0.12530518,0.031982422,6.6412215,13.0992365,-6.59542,2019-08-05 14:20:21,9.0
564.0,-0.0053100586,-0.13043213,0.033203125,2.946565,15.78626,-12.969465,2019-08-05 14:20:21,9.0
565.0,-0.0064697266000000005,-0.12023926,0.03326416,33.656490000000005,16.167938,-5.0229006,2019-08-05 14:20:21,9.0
566.0,-0.006958008000000001,-0.12854004,0.03338623,34.221375,17.816793,9.290076,2019-08-05 14:20:21,9.0
567.0,-0.00579834,-0.11920166,0.04272461,20.435114,7.259542,5.89313,2019-08-05 14:20:21,9.0
568.0,0.00012207031,-0.13330078,0.03375244,110.19847,-23.740458,4.740458,2019-08-05 14:20:22,9.0
569.0,-0.015991211,-0.15466309,0.05609131,-103.28244,7.931298,-17.946566,2019-08-05 14:20:22,9.0
570.0,-0.00793457,-0.15905762,0.017028809,-172.55725,25.961832,-18.259542,2019-08-05 14:20:22,9.0
571.0,-0.0022583008,-0.094055176,-0.007751465,-213.38168,32.961834,-20.099237,2019-08-05 14:20:22,9.0
572.0,0.00012207031,-0.117614746,0.004638672,-121.35878,29.030535,-16.030535,2019-08-05 14:20:22,9.0
573.0,-0.0016479492000000002,-0.120666504,-0.0049438477,-71.23664000000002,26.557251,-12.832061,2019-08-05 14:20:22,9.0
574.0,0.00018310547,-0.11608887,-0.020080566,-58.83969499999999,31.625954,1.8854961,2019-08-05 14:20:22,9.0
575.0,-0.006591797,-0.12591553,-0.009643555,-51.755726,41.519085,3.923664,2019-08-05 14:20:22,9.0
576.0,-0.004638672,-0.121398926,-0.007507324,-98.20611,49.93893,6.1221375,2019-08-05 14:20:22,9.0
577.0,-0.005676269499999999,-0.119262695,-0.019897461,37.580154,29.183207,-2.7862597,2019-08-05 14:20:22,9.0
578.0,-0.008911133,-0.16326904,-0.0067749023,-188.17557,56.190838,-3.1526718,2019-08-05 14:20:22,9.0
579.0,6.1035156e-05,-0.10205078,-0.061157227,-208.3435,69.46565,3.6946564,2019-08-05 14:20:22,9.0
580.0,-6.1035156e-05,-0.095947266,-0.056274414,-194.19847,64.42748,6.3053436,2019-08-05 14:20:22,9.0
581.0,0.00579834,-0.09942627,-0.06359863,-75.38931,48.10687,12.076336,2019-08-05 14:20:22,9.0
582.0,0.007019043000000001,-0.09466553,-0.052490234,17.900763,30.030535,20.977098,2019-08-05 14:20:22,9.0
583.0,0.0048217773,-0.105895996,-0.039855957,14.534351,15.282443,33.87786,2019-08-05 14:20:22,9.0
584.0,0.008422852,-0.10046387,-0.03918457,-14.152672,-0.26717559,48.809162,2019-08-05 14:20:22,9.0
585.0,0.0020141602,-0.11956787,-0.02935791,-32.709923,-13.5801525,55.099236,2019-08-05 14:20:22,9.0
586.0,-0.0014038086,-0.14074707,-0.032226562,-66.816795,-6.236641400000001,30.549618,2019-08-05 14:20:22,9.0
587.0,-0.013061523,-0.125,-0.05090332,-58.40458,-11.114504,9.114504,2019-08-05 14:20:22,9.0
588.0,-0.015625,-0.11035156,-0.053649902,-27.343512,-9.465649,4.3053436,2019-08-05 14:20:22,9.0
589.0,-0.0211792,-0.101135254,-0.06365967,-50.885498,-13.152672,2.259542,2019-08-05 14:20:22,9.0
590.0,-0.010314941,-0.104003906,-0.06732178,-69.48855,-12.824428,0.32061067,2019-08-05 14:20:22,9.0
591.0,-0.008605957,-0.09490967,-0.07757568,-66.70992,-13.648855,-1.6259542,2019-08-05 14:20:22,9.0
592.0,-0.014221191,-0.09069824,-0.08282471,-48.129772,-7.7709923,-0.3053435,2019-08-05 14:20:22,9.0
593.0,-0.015380858999999997,-0.085754395,-0.08557129,-37.84733,-2.9389312000000003,-2.5954200000000003,2019-08-05 14:20:22,9.0
594.0,-0.014587402,-0.08795166,-0.09112549,-20.977098,-1.2061069,-1.3358778999999998,2019-08-05 14:20:22,9.0
595.0,-0.0026245117,-0.08666992,-0.08245849599999999,-5.4885497,-0.35877863,-1.0610687,2019-08-05 14:20:22,9.0
596.0,-0.014038086000000002,-0.09906006,-0.07458496,4.8015265,0.10687023,-2.7404580000000003,2019-08-05 14:20:22,9.0
597.0,-0.006164551,-0.08947754,-0.07708739999999999,5.3893127,1.8091604,-2.8931298,2019-08-05 14:20:22,9.0
598.0,-0.018188477,-0.09222412,-0.08001709,1.2137405,1.6183206,-2.5801528,2019-08-05 14:20:22,9.0
599.0,-0.010620117,-0.09100342,-0.07910156,0.5648854999999999,0.007633588,-4.1755724,2019-08-05 14:20:22,9.0
600.0,-0.013122559,-0.09161377,-0.07550049,1.3358778999999998,1.2137405,-4.1374044,2019-08-05 14:20:22,9.0
601.0,-0.017944336,-0.087890625,-0.083984375,-1.5114504,0.71755725,-2.870229,2019-08-05 14:20:22,9.0
602.0,-0.017700195,-0.09197998,-0.07781982400000001,-1.3587786,-0.52671754,-2.8549619,2019-08-05 14:20:22,9.0
603.0,-0.007507324,-0.09832764,-0.076049805,-2.6030533,1.8778626,-4.1908400000000015,2019-08-05 14:20:22,9.0
604.0,-0.014160156,-0.09240723,-0.080566406,-2.091603,-0.48091602,-3.5038168,2019-08-05 14:20:23,9.0
605.0,-0.014831543,-0.096191406,-0.08123779,-3.2137403,-0.6335878,-4.8015265,2019-08-05 14:20:23,9.0
606.0,-0.010498047,-0.093566895,-0.077941895,-4.9389315,0.90076333,-5.5496182,2019-08-05 14:20:23,9.0
607.0,-0.0071411133,-0.092041016,-0.08300781,-0.38931298,0.78625953,-4.0839696000000005,2019-08-05 14:20:23,9.0
608.0,-0.018981934,-0.08630371,-0.07751465,0.8396947,0.70229006,-5.1984735,2019-08-05 14:20:23,9.0
609.0,-0.011047363,-0.09411621,-0.0758667,-0.6870229,0.5801527,-4.89313,2019-08-05 14:20:23,9.0
610.0,-0.01159668,-0.09387207,-0.07891846,-2.7404580000000003,1.4580153,-5.603053599999999,2019-08-05 14:20:23,9.0
611.0,-0.0068969727,-0.08752441400000001,-0.07867432,-4.587786,2.1908398,-5.335878,2019-08-05 14:20:23,9.0
612.0,-0.010070801,-0.08947754,-0.08551025400000001,-1.610687,1.5877863,-2.8549619,2019-08-05 14:20:23,9.0
613.0,-0.010681152,-0.0914917,-0.07873535,-1.7938931,0.77862597,-2.389313,2019-08-05 14:20:23,9.0
614.0,-0.012939453,-0.08917236,-0.08166504,-0.24427481,1.2061069,-3.259542,2019-08-05 14:20:23,9.0
615.0,-0.018188477,-0.096191406,-0.08178711,-0.6183206,1.6335878,-1.1145039,2019-08-05 14:20:23,9.0
616.0,-0.013977051,-0.09161377,-0.08044433599999999,-1.9007634,0.114503816,-2.0839694,2019-08-05 14:20:23,9.0
617.0,-0.012939453,-0.09033203,-0.077941895,-1.4580153,1.5572518999999998,-3.0076337000000004,2019-08-05 14:20:23,9.0
618.0,-0.0079956055,-0.093566895,-0.08172607400000001,-3.5038168,2.1068702,-3.3587787,2019-08-05 14:20:23,9.0
619.0,-0.007690429699999998,-0.08831787,-0.08099365,-5.396946400000001,1.3969465,-1.8091604,2019-08-05 14:20:23,9.0
620.0,-0.0146484375,-0.0925293,-0.08026123,-1.8091604,1.3282443000000002,-3.4732823,2019-08-05 14:20:23,9.0
621.0,-0.015563965,-0.09387207,-0.07757568,-3.7557251,1.5038168,-3.8854961,2019-08-05 14:20:23,9.0
622.0,-0.010375977,-0.09362793,-0.08459473,-4.0076337,-0.78625953,-4.3053436,2019-08-05 14:20:23,9.0
623.0,-0.017150878999999997,-0.09436035,-0.0793457,-1.9007634,0.6946565,-3.648855,2019-08-05 14:20:23,9.0
624.0,-0.013916016000000002,-0.089904785,-0.083496094,-4.1297708,1.8778626,-4.076336,2019-08-05 14:20:23,9.0
625.0,-0.012512207,-0.08880615,-0.08270264,-2.1526718,1.5572518999999998,-2.9694657,2019-08-05 14:20:23,9.0
626.0,-0.010131836,-0.08758545,-0.08441162,-1.4045801000000002,0.9694657,-3.7480917,2019-08-05 14:20:23,9.0
627.0,-0.017028809,-0.09490967,-0.07788086,-2.2366412,1.5343511,-1.5343511,2019-08-05 14:20:23,9.0
628.0,-0.007385254,-0.087402344,-0.07965088,-2.038168,1.6717557,-2.8854961,2019-08-05 14:20:23,9.0
629.0,-0.016296387,-0.092041016,-0.07781982400000001,-0.45801526,0.45801526,-2.129771,2019-08-05 14:20:23,9.0
630.0,-0.0031738281,-0.08758545,-0.08441162,-1.0610687,1.4045801000000002,-2.8396947,2019-08-05 14:20:23,9.0
631.0,-0.017578125,-0.09063721,-0.08264160000000001,-1.5496184,1.610687,-2.4198472,2019-08-05 14:20:23,9.0
632.0,-0.00982666,-0.09039307,-0.080078125,0.2977099,1.2290076,-1.9541985,2019-08-05 14:20:23,9.0
633.0,-0.009643555,-0.09234619,-0.07940674,1.221374,2.793893,-1.2824427,2019-08-05 14:20:23,9.0
634.0,-0.012023926,-0.087402344,-0.07562256,-0.15267175,1.2748091,-1.6030535,2019-08-05 14:20:23,9.0
635.0,-0.012817383,-0.08886719,-0.08044433599999999,-0.5114504,1.70229,-1.5038168,2019-08-05 14:20:23,9.0
636.0,-0.016479492,-0.09674072,-0.08154297,-0.8854962,1.9007634,-3.221374,2019-08-05 14:20:23,9.0
637.0,-0.011962891000000002,-0.08880615,-0.076171875,-1.2671756,1.7251909,-2.4885497,2019-08-05 14:20:23,9.0
638.0,-0.017150878999999997,-0.093566895,-0.08245849599999999,-2.0687022,1.1908396,-2.1450381000000003,2019-08-05 14:20:24,9.0
639.0,-0.007385254,-0.09185791,-0.07788086,-1.832061,2.5038168,-1.5954198999999998,2019-08-05 14:20:24,9.0
640.0,-0.013122559,-0.08300781,-0.07379150400000001,-1.4961832,0.8396947,-2.3969467,2019-08-05 14:20:24,9.0
641.0,-0.008972168,-0.09429932,-0.08227539,-1.1068702,1.7709924,-2.4198472,2019-08-05 14:20:24,9.0
642.0,-0.009033203,-0.08270264,-0.08404541,-1.221374,2.8549619,-3.6412213,2019-08-05 14:20:24,9.0
643.0,-0.00970459,-0.083496094,-0.08380127,-0.8015267,1.0839695,-3.8931298,2019-08-05 14:20:24,9.0
644.0,-0.014465332,-0.092041016,-0.07910156,-0.99236643,2.557252,-2.9312978,2019-08-05 14:20:24,9.0
645.0,-0.0073242188,-0.09289551,-0.08160400400000001,-0.8244275,3.038168,-3.2748091,2019-08-05 14:20:24,9.0
646.0,-0.009521484,-0.08917236,-0.087768555,-1.8091604,2.5496182000000003,-2.2366412,2019-08-05 14:20:24,9.0
647.0,-0.022216797000000003,-0.08892822,-0.08282471,0.129771,2.6335877999999995,-1.2442749,2019-08-05 14:20:24,9.0
648.0,-0.007385254,-0.08856201,-0.08905029,-0.34351146,2.259542,-2.1374047000000003,2019-08-05 14:20:24,9.0
649.0,-0.015197754,-0.08654785,-0.08044433599999999,-0.65648854,3.8854961,-1.5343511,2019-08-05 14:20:24,9.0
650.0,-0.016540527,-0.095581055,-0.08111572,1.0305344,3.1221373,-1.1908396,2019-08-05 14:20:24,9.0
651.0,-0.014404297,-0.08734131,-0.082214355,-1.389313,4.2824426,-2.0152671000000004,2019-08-05 14:20:24,9.0
652.0,-0.01751709,-0.091796875,-0.08465576,-0.03816794,1.1068702,-3.59542,2019-08-05 14:20:24,9.0
653.0,-0.013061523,-0.080566406,-0.08093262,0.9236641,1.5038168,-2.9389312000000003,2019-08-05 14:20:24,9.0
654.0,-0.013305663999999998,-0.097229004,-0.08404541,0.66412216,2.1374047000000003,-3.778626,2019-08-05 14:20:24,9.0
655.0,-0.009643555,-0.089660645,-0.08489989999999999,-0.64122134,0.8778626,-3.2824428,2019-08-05 14:20:24,9.0
656.0,6.1035156e-05,-0.090026855,-0.08483887,-0.259542,2.4580152,-2.29771,2019-08-05 14:20:24,9.0
657.0,-0.013671875,-0.09057617,-0.08502197,-0.64122134,3.3206108,-2.8854961,2019-08-05 14:20:24,9.0
658.0,-0.008666992,-0.087402344,-0.0859375,-1.4961832,1.0839695,-2.7557251,2019-08-05 14:20:24,9.0
659.0,-0.007385254,-0.092041016,-0.07434082,-0.08396947,1.832061,-3.038168,2019-08-05 14:20:24,9.0
660.0,-0.01373291,-0.09100342,-0.08520508,-0.45801526,2.7633588,-2.2442749,2019-08-05 14:20:24,9.0
661.0,-0.015563965,-0.092163086,-0.07708739999999999,-0.60305345,1.9312977,-2.5419848,2019-08-05 14:20:24,9.0
662.0,-0.016601562,-0.09039307,-0.083496094,-0.053435113,1.8396946,-1.2442749,2019-08-05 14:20:24,9.0
663.0,-0.010925293,-0.09454346,-0.08251953,-1.351145,2.3969467,-3.389313,2019-08-05 14:20:24,9.0
664.0,-0.010620117,-0.09075928,-0.08135986,-0.6946565,1.6870229,-4.076336,2019-08-05 14:20:24,9.0
665.0,-0.013427733999999998,-0.08984375,-0.08239746,0.33587787,-0.08396947,-2.4885497,2019-08-05 14:20:24,9.0
666.0,-0.005737304699999999,-0.089904785,-0.08807373,-0.34351146,1.6946564999999998,-1.7862595,2019-08-05 14:20:24,9.0
667.0,-0.0051879883,-0.08770752,-0.08227539,0.0,1.4580153,-4.9389315,2019-08-05 14:20:24,9.0
668.0,-0.016845703,-0.08929443,-0.08215332,0.5496183000000001,2.480916,-2.7633588,2019-08-05 14:20:24,9.0
669.0,-0.020019531,-0.0881958,-0.0793457,-1.3664122,3.1908398,-1.3969465,2019-08-05 14:20:24,9.0
670.0,-0.015258788999999997,-0.09039307,-0.08624267599999999,1.9465649,1.221374,-1.9160305,2019-08-05 14:20:24,9.0
671.0,-0.016662598,-0.092041016,-0.07916260000000001,0.48854962,3.2824428,-3.3587787,2019-08-05 14:20:24,9.0
672.0,-0.017333984,-0.091430664,-0.08087158,-0.22137405,1.5419847,-2.70229,2019-08-05 14:20:24,9.0
673.0,-0.014892578,-0.092163086,-0.08416748,-0.48854962,1.3129771,-3.5877862,2019-08-05 14:20:24,9.0
674.0,-0.008972168,-0.087768555,-0.08843994,-1.8778626,2.0992367,-2.3664122000000005,2019-08-05 14:20:24,9.0
675.0,-0.020385742,-0.08782959,-0.08148193,-0.39694658,2.4580152,-1.870229,2019-08-05 14:20:25,9.0
676.0,-0.013977051,-0.08782959,-0.08111572,0.99236643,1.7328244,-1.5267175,2019-08-05 14:20:25,9.0
677.0,-0.0099487305,-0.08880615,-0.08142089999999999,0.48091602,1.908397,-0.4351145000000001,2019-08-05 14:20:25,9.0
678.0,-0.010192871,-0.08636474599999999,-0.08282471,0.114503816,1.8473282,-2.2671757,2019-08-05 14:20:25,9.0
679.0,-0.008728027,-0.0949707,-0.08416748,0.99236643,1.5877863,-3.0152671000000004,2019-08-05 14:20:25,9.0
680.0,-0.007690429699999998,-0.089660645,-0.08404541,-2.572519,3.2748091,-1.3969465,2019-08-05 14:20:25,9.0
681.0,-0.0064086914,-0.08502197,-0.08361816400000001,-2.648855,3.29771,-1.7328244,2019-08-05 14:20:25,9.0
682.0,-0.0107421875,-0.09039307,-0.08923339999999999,1.1984733,2.2519083,-4.5725193,2019-08-05 14:20:25,9.0
683.0,-0.0051879883,-0.08691406,-0.08013916,0.9541985,2.4351146,-1.8625954,2019-08-05 14:20:25,9.0
684.0,-0.012573242,-0.09857178,-0.07696533,-1.6946564999999998,1.3129771,-3.610687,2019-08-05 14:20:25,9.0
685.0,-0.010131836,-0.083496094,-0.08172607400000001,-1.5572518999999998,0.67175573,-2.70229,2019-08-05 14:20:25,9.0
686.0,-0.020507812,-0.087402344,-0.07849121,3.6412213,0.89312977,-2.129771,2019-08-05 14:20:25,9.0
687.0,-0.018310547,-0.097351074,-0.08001709,3.0076337000000004,2.557252,-3.0839694,2019-08-05 14:20:25,9.0
688.0,-0.016723633,-0.09265137,-0.082214355,-4.40458,1.8778626,-3.961832,2019-08-05 14:20:25,9.0
689.0,-0.018127441,-0.08782959,-0.08673096,-5.8244276,1.8549619,-1.9007634,2019-08-05 14:20:25,9.0
690.0,-0.0033569336,-0.08496094,-0.09075928,-4.259542,1.6793894,-2.9923663,2019-08-05 14:20:25,9.0
691.0,-0.009521484,-0.08721924,-0.08752441400000001,-1.2442749,0.29007635,-0.45038167,2019-08-05 14:20:25,9.0
692.0,-0.016906738,-0.09301758,-0.08581543,1.3587786,2.6183207000000004,-2.534351,2019-08-05 14:20:25,9.0
693.0,-0.010864258,-0.09185791,-0.08111572,0.77862597,2.1755726,-0.84732825,2019-08-05 14:20:25,9.0
694.0,-0.010620117,-0.09100342,-0.08453369,-0.2519084,1.221374,-3.70229,2019-08-05 14:20:25,9.0
695.0,-0.023925781,-0.09088135,-0.0803833,0.2519084,2.9923663,-2.221374,2019-08-05 14:20:25,9.0
696.0,-0.0146484375,-0.091918945,-0.08105469,-0.6793893,2.0305343,-3.427481,2019-08-05 14:20:25,9.0
697.0,-0.0126953125,-0.087890625,-0.08569336,-2.0458016,2.427481,-3.1450381000000003,2019-08-05 14:20:25,9.0
698.0,-0.015319824,-0.09362793,-0.08331299,-1.8396946,2.961832,-3.2442749,2019-08-05 14:20:25,9.0
699.0,-0.0087890625,-0.08630371,-0.08111572,-2.259542,2.167939,-2.9923663,2019-08-05 14:20:25,9.0
700.0,-0.013000488,-0.087768555,-0.081848145,0.07633588,2.4580152,-3.1068702,2019-08-05 14:20:25,9.0
701.0,-0.015563965,-0.09197998,-0.08624267599999999,-0.07633588,2.3587787,-1.3664122,2019-08-05 14:20:25,9.0
702.0,-0.016235351999999998,-0.09539795,-0.08264160000000001,0.740458,1.5267175,-2.8091602000000004,2019-08-05 14:20:25,9.0
703.0,-0.016296387,-0.08453369,-0.07757568,-0.6488550000000001,1.3740458,-2.1526718,2019-08-05 14:20:25,9.0
704.0,-0.0126953125,-0.08245849599999999,-0.083984375,-0.22900763,2.572519,-3.221374,2019-08-05 14:20:25,9.0
705.0,-0.012878418,-0.0803833,-0.07714844,-2.1450381000000003,3.7557251,-2.687023,2019-08-05 14:20:25,9.0
706.0,-0.012451172,-0.08886719,-0.07800293,0.5801527,1.9236641,-3.557252,2019-08-05 14:20:25,9.0
707.0,-0.0015869141,-0.08465576,-0.07659912,-1.5267175,1.648855,-2.1603053,2019-08-05 14:20:25,9.0
708.0,-0.0126953125,-0.082092285,-0.08361816400000001,-1.1450381,2.0687022,-2.908397,2019-08-05 14:20:25,9.0
709.0,-0.008544922,-0.09094238,-0.07672119,0.7251908,2.0,-2.1068702,2019-08-05 14:20:25,9.0
710.0,-0.014282227,-0.08764648400000001,-0.076171875,0.64122134,1.3969465,-2.038168,2019-08-05 14:20:26,9.0
711.0,-0.007385254,-0.09118652,-0.08013916,-0.030534351,0.3740458,-3.5190839999999994,2019-08-05 14:20:26,9.0
712.0,-0.013305663999999998,-0.082092285,-0.0904541,-1.480916,2.3511450000000003,-1.9389313,2019-08-05 14:20:26,9.0
713.0,-0.010620117,-0.08496094,-0.08239746,-1.4274809,2.9312978,-2.0610688,2019-08-05 14:20:26,9.0
714.0,-0.010986328,-0.09423828,-0.08282471,-0.8244275,1.7404580000000005,-3.70229,2019-08-05 14:20:26,9.0
715.0,-0.017944336,-0.08496094,-0.07855224599999999,0.03816794,0.65648854,-2.3435113,2019-08-05 14:20:26,9.0
716.0,-0.016479492,-0.09552002,-0.08154297,-0.89312977,2.0610688,-1.389313,2019-08-05 14:20:26,9.0
717.0,-0.011962891000000002,-0.08477783,-0.08392334,-1.5267175,2.129771,-3.3816793,2019-08-05 14:20:26,9.0
718.0,-0.01550293,-0.08709717,-0.07708739999999999,0.5954198,2.1374047000000003,-2.6335877999999995,2019-08-05 14:20:26,9.0
719.0,-0.012634277,-0.08813476599999999,-0.08160400400000001,-1.4732825,0.9847328000000002,-2.1984732000000005,2019-08-05 14:20:26,9.0
720.0,-0.021118164,-0.08648682,-0.07940674,-0.35877863,1.7938931,-2.389313,2019-08-05 14:20:26,9.0
721.0,-0.015808105,-0.092285156,-0.08300781,0.099236645,0.9160305,-3.8244274,2019-08-05 14:20:26,9.0
722.0,-0.01159668,-0.088378906,-0.08142089999999999,-0.03816794,2.7251909,-3.3816793,2019-08-05 14:20:26,9.0
723.0,-0.006591797,-0.08941650400000001,-0.08428955,-1.7251909,2.206107,-3.6335878,2019-08-05 14:20:26,9.0
724.0,-0.012023926,-0.09069824,-0.08074951,-0.71755725,1.8015267,-2.6412213,2019-08-05 14:20:26,9.0
725.0,-0.00592041,-0.08959961,-0.083862305,0.6793893,3.1068702,-2.648855,2019-08-05 14:20:26,9.0
726.0,-0.020874023,-0.09246826,-0.08380127,0.24427481,1.480916,-1.6870229,2019-08-05 14:20:26,9.0
727.0,-0.016113281,-0.08416748,-0.08294678,-0.48091602,2.572519,-2.3740458,2019-08-05 14:20:26,9.0
728.0,-0.008911133,-0.08862305,-0.08544922,0.79389316,2.572519,-3.6412213,2019-08-05 14:20:26,9.0
729.0,-0.020935059,-0.08843994,-0.078308105,1.1984733,0.41984734,-3.908397,2019-08-05 14:20:26,9.0
730.0,-0.0115356445,-0.09283447,-0.07708739999999999,-0.19847329,2.4885497,-3.687023,2019-08-05 14:20:26,9.0
731.0,-0.0012207031,-0.09106445,-0.08160400400000001,-2.0229008,3.9312978,-3.167939,2019-08-05 14:20:26,9.0
732.0,-0.007385254,-0.085754395,-0.08160400400000001,-1.2061069,2.4732823,-1.038168,2019-08-05 14:20:26,9.0
733.0,-0.016418457,-0.08666992,-0.08435058599999999,0.40458015,1.2900764,-0.8778626,2019-08-05 14:20:26,9.0
734.0,-0.010253906,-0.093933105,-0.08081055,-0.5038168,2.0458016,-2.6183207000000004,2019-08-05 14:20:26,9.0
735.0,-0.01159668,-0.088378906,-0.08496094,-1.4122137,1.7404580000000005,-1.7480916000000002,2019-08-05 14:20:26,9.0
736.0,-0.00982666,-0.09082031,-0.08178711,-2.0992367,2.129771,-3.1603053,2019-08-05 14:20:26,9.0
737.0,-0.018737793,-0.08868408,-0.08227539,-0.07633588,1.908397,-2.7862597,2019-08-05 14:20:26,9.0
738.0,-0.01373291,-0.08843994,-0.07836914,-1.3664122,1.3129771,-2.5419848,2019-08-05 14:20:26,9.0
739.0,-0.009155273,-0.091674805,-0.08239746,-0.13740458,2.4198472,-2.8244274,2019-08-05 14:20:26,9.0
740.0,-0.007507324,-0.08898926,-0.07696533,-0.78625953,0.8778626,-2.8625953,2019-08-05 14:20:26,9.0
741.0,-0.012268066,-0.095581055,-0.079589844,0.20610687,2.1755726,-3.465649,2019-08-05 14:20:26,9.0
742.0,-0.018310547,-0.085998535,-0.08312988,-0.89312977,2.5114503,-1.3969465,2019-08-05 14:20:26,9.0
743.0,-0.0126953125,-0.085998535,-0.08300781,-1.8854961,2.5114503,-1.0687023,2019-08-05 14:20:26,9.0
744.0,-0.013122559,-0.09082031,-0.08044433599999999,-0.091603056,2.0305343,-1.1908396,2019-08-05 14:20:26,9.0
745.0,-0.015563965,-0.09020996,-0.07946777,-0.3053435,2.3206108,-3.312977,2019-08-05 14:20:26,9.0
746.0,-0.0134887695,-0.0881958,-0.084106445,-1.3282443000000002,2.2671757,-3.2900763,2019-08-05 14:20:27,9.0
747.0,-0.01574707,-0.08764648400000001,-0.07940674,0.21374045,2.5877862,-1.70229,2019-08-05 14:20:27,9.0
748.0,-0.0095825195,-0.08648682,-0.08325195,-0.36641222,1.5343511,-3.3969467000000004,2019-08-05 14:20:27,9.0
749.0,-0.020629883,-0.08898926,-0.08178711,-0.57251906,1.6183206,-1.6870229,2019-08-05 14:20:27,9.0
750.0,-0.019470215,-0.09277344,-0.08258057,-0.17557251,2.8091602000000004,-2.778626,2019-08-05 14:20:27,9.0
751.0,-0.008117675999999999,-0.09246826,-0.082214355,-0.33587787,1.6259542,-2.3816793,2019-08-05 14:20:27,9.0
752.0,-0.0053100586,-0.091308594,-0.07977295,-0.045801528,1.9236641,-2.1145039,2019-08-05 14:20:27,9.0
753.0,-0.008178711,-0.086120605,-0.07843017599999999,0.053435113,3.038168,-2.3740458,2019-08-05 14:20:27,9.0
754.0,-0.0044555664,-0.0970459,-0.08282471,0.31297709999999995,2.0458016,-2.6641220000000003,2019-08-05 14:20:27,9.0
755.0,-0.012268066,-0.09197998,-0.07757568,0.4274809,1.961832,-2.427481,2019-08-05 14:20:27,9.0
756.0,-0.013427733999999998,-0.09423828,-0.08135986,0.16793893,2.6564887,-2.3816793,2019-08-05 14:20:27,9.0
757.0,-0.020141602,-0.09008789,-0.07885742,-1.038168,2.2748091,-1.0,2019-08-05 14:20:27,9.0
758.0,-0.009643555,-0.09020996,-0.07800293,-1.9007634,1.4198474,-2.3664122000000005,2019-08-05 14:20:27,9.0
759.0,-0.011962891000000002,-0.08972168,-0.08416748,0.34351146,2.1221373,-3.3816793,2019-08-05 14:20:27,9.0
760.0,-0.014160156,-0.09631348,-0.07922363,-1.3816794,1.6641221000000002,-2.0839694,2019-08-05 14:20:27,9.0
761.0,-0.020080566,-0.089660645,-0.083862305,-0.35114503,1.1755725,-3.2366412,2019-08-05 14:20:27,9.0
762.0,-0.016479492,-0.08697510000000001,-0.07891846,0.07633588,2.335878,-2.4503818,2019-08-05 14:20:27,9.0
763.0,-0.0134887695,-0.09051514,-0.08648682,0.114503816,1.480916,-2.6793892,2019-08-05 14:20:27,9.0
764.0,-0.012207031,-0.08306885,-0.07354736,-1.0076336,1.2671756,-2.221374,2019-08-05 14:20:27,9.0
765.0,-0.010925293,-0.087768555,-0.07977295,-1.2061069,1.480916,-2.2748091,2019-08-05 14:20:27,9.0
766.0,-0.008300781,-0.086120605,-0.082092285,1.0610687,2.1374047000000003,-1.3129771,2019-08-05 14:20:27,9.0
767.0,-0.021118164,-0.089660645,-0.08758545,1.5343511,1.8167939,-3.5648854,2019-08-05 14:20:27,9.0
768.0,-0.02166748,-0.0914917,-0.08544922,-1.961832,1.8473282,-1.7938931,2019-08-05 14:20:27,9.0
769.0,-0.016845703,-0.08477783,-0.08709717,-0.36641222,2.465649,-0.07633588,2019-08-05 14:20:27,9.0
770.0,-0.012268066,-0.09313965,-0.08465576,0.259542,1.5114504,-1.4351145,2019-08-05 14:20:27,9.0
771.0,-0.013305663999999998,-0.09033203,-0.08514404,0.39694658,1.7557251,-2.4885497,2019-08-05 14:20:27,9.0
772.0,-0.011108398,-0.08697510000000001,-0.07434082,-2.427481,2.0610688,-1.3129771,2019-08-05 14:20:27,9.0
773.0,-0.009033203,-0.09283447,-0.085876465,-0.6870229,1.7099236,-1.5114504,2019-08-05 14:20:27,9.0
774.0,-0.013183594,-0.093811035,-0.078308105,1.961832,2.0610688,-1.8091604,2019-08-05 14:20:27,9.0
775.0,-0.0048828125,-0.097839355,-0.08215332,-0.86259544,2.519084,-2.6335877999999995,2019-08-05 14:20:27,9.0
776.0,-0.013000488,-0.08868408,-0.08068848,-1.3358778999999998,2.0305343,-1.5954198999999998,2019-08-05 14:20:27,9.0
777.0,-0.018920898,-0.08526611,-0.08459473,-0.099236645,1.6335878,-1.3664122,2019-08-05 14:20:27,9.0
778.0,-0.013916016000000002,-0.08441162,-0.08032226599999999,0.35114503,2.29771,-1.6946564999999998,2019-08-05 14:20:27,9.0
779.0,-0.01940918,-0.09008789,-0.079956055,-0.57251906,2.5877862,-2.389313,2019-08-05 14:20:27,9.0
780.0,-0.015014648,-0.08685303,-0.07696533,-0.66412216,1.480916,-2.0152671000000004,2019-08-05 14:20:27,9.0
781.0,-0.0065307617,-0.08898926,-0.08880615,-1.7709924,2.0687022,-2.5114503,2019-08-05 14:20:27,9.0
782.0,-0.01776123,-0.08905029,-0.08282471,-0.49618322,1.9007634,-2.053435,2019-08-05 14:20:27,9.0
783.0,-0.012878418,-0.08416748,-0.083496094,3.9923663,1.870229,-3.1221373,2019-08-05 14:20:28,9.0
784.0,-0.0178833,-0.08831787,-0.083496094,0.89312977,2.221374,-2.2671757,2019-08-05 14:20:28,9.0
785.0,-0.014953613,-0.097229004,-0.08337402,-0.8167939000000001,2.4122138,-2.6946564,2019-08-05 14:20:28,9.0
786.0,-0.010559082,-0.09313965,-0.07775879,-1.1908396,1.0839695,-4.6870227,2019-08-05 14:20:28,9.0
787.0,-0.0049438477,-0.090026855,-0.07946777,-0.022900764,1.1068702,-2.7404580000000003,2019-08-05 14:20:28,9.0
788.0,-0.015380858999999997,-0.08886719,-0.07867432,1.3816794,1.7175573,-3.5267177000000003,2019-08-05 14:20:28,9.0
789.0,-0.016174316,-0.08105469,-0.08898926,0.015267176,2.427481,-3.8244274,2019-08-05 14:20:28,9.0
790.0,-0.016296387,-0.091796875,-0.07775879,0.45801526,1.3816794,-2.3969467,2019-08-05 14:20:28,9.0
791.0,-0.010559082,-0.087890625,-0.07824707,2.8778627,0.77862597,-3.4503818,2019-08-05 14:20:28,9.0
792.0,-0.01550293,-0.090270996,-0.07983398400000001,1.2900764,1.5038168,-4.1221375,2019-08-05 14:20:28,9.0
793.0,-0.019104004,-0.08880615,-0.08270264,1.4580153,0.03816794,-2.9389312000000003,2019-08-05 14:20:28,9.0
794.0,-0.016845703,-0.092163086,-0.07897949,-0.053435113,1.6183206,-4.2671757,2019-08-05 14:20:28,9.0
795.0,-0.008361816,-0.09118652,-0.08880615,-1.1145039,1.648855,-3.816794,2019-08-05 14:20:28,9.0
796.0,-0.021850586,-0.07824707,-0.08496094,-1.1755725,2.5877862,-3.2442749,2019-08-05 14:20:28,9.0
797.0,-0.009155273,-0.084472656,-0.07928467,1.6412214,2.519084,-2.6641220000000003,2019-08-05 14:20:28,9.0
798.0,-0.0072021484,-0.09527588,-0.08093262,2.7862597,2.6641220000000003,-2.793893,2019-08-05 14:20:28,9.0
799.0,-0.009216309,-0.09649658,-0.08306885,3.6335878,1.8625954,-2.7862597,2019-08-05 14:20:28,9.0
800.0,-0.014953613,-0.085754395,-0.078186035,0.77099234,2.076336,-1.9007634,2019-08-05 14:20:28,9.0
801.0,-0.0126953125,-0.093933105,-0.0758667,1.908397,2.519084,-2.7480917,2019-08-05 14:20:28,9.0
802.0,-0.016174316,-0.09008789,-0.07507324,1.8015267,1.5038168,-1.4274809,2019-08-05 14:20:28,9.0
803.0,-0.016174316,-0.093444824,-0.08581543,1.519084,2.8625953,-3.335878,2019-08-05 14:20:28,9.0
804.0,-0.010864258,-0.0914917,-0.07446289,-0.40458015,2.3282442000000003,-2.3282442000000003,2019-08-05 14:20:28,9.0
805.0,-0.018554688,-0.091552734,-0.07879639,-1.4732825,2.8396947,-1.5267175,2019-08-05 14:20:28,9.0
806.0,-0.009094238,-0.09429932,-0.080566406,-0.29007635,2.3282442000000003,-2.3816793,2019-08-05 14:20:28,9.0
807.0,-0.0072631836,-0.09222412,-0.07623291,-1.8473282,2.389313,-2.40458,2019-08-05 14:20:28,9.0
808.0,-0.016479492,-0.08917236,-0.08068848,-1.9847329,1.870229,-2.2366412,2019-08-05 14:20:28,9.0
809.0,-0.004333496,-0.09246826,-0.08178711,-2.3587787,2.6717558,-2.427481,2019-08-05 14:20:28,9.0
810.0,-0.0064086914,-0.095458984,-0.083984375,0.84732825,1.7404580000000005,-2.5954200000000003,2019-08-05 14:20:28,9.0
811.0,-0.0095825195,-0.08764648400000001,-0.07922363,0.29007635,2.480916,-2.206107,2019-08-05 14:20:28,9.0
812.0,-0.023071289,-0.089904785,-0.0871582,-2.0610688,1.7175573,-2.221374,2019-08-05 14:20:28,9.0
813.0,-0.010803223,-0.09283447,-0.076660156,0.7251908,1.29771,-4.59542,2019-08-05 14:20:28,9.0
814.0,-0.009521484,-0.09313965,-0.085998535,-1.3816794,2.3435113,-3.740458,2019-08-05 14:20:28,9.0
815.0,-0.02166748,-0.09075928,-0.08489989999999999,-1.7633588,2.0458016,-1.8778626,2019-08-05 14:20:28,9.0
816.0,-0.0072021484,-0.08752441400000001,-0.0847168,-0.022900764,2.129771,-2.0229008,2019-08-05 14:20:28,9.0
817.0,-0.01171875,-0.08691406,-0.08648682,1.1679389999999998,1.7175573,-2.0687022,2019-08-05 14:20:28,9.0
818.0,-0.016174316,-0.08947754,-0.07867432,0.35114503,1.6793894,-1.7175573,2019-08-05 14:20:29,9.0
819.0,-0.017150878999999997,-0.091430664,-0.08264160000000001,-0.41221374,1.1145039,-1.8778626,2019-08-05 14:20:29,9.0
820.0,-0.014465332,-0.085754395,-0.08532715,-0.14503817,1.8091604,-1.29771,2019-08-05 14:20:29,9.0
821.0,-0.020996094,-0.08917236,-0.07946777,0.53435117,0.740458,-2.7099237,2019-08-05 14:20:29,9.0
822.0,-0.019592285,-0.08618164,-0.08215332,-0.90839696,2.7633588,-1.7404580000000005,2019-08-05 14:20:29,9.0
823.0,-0.0126953125,-0.09643555,-0.08343506,-1.4427481000000002,2.7480917,-2.4580152,2019-08-05 14:20:29,9.0
824.0,-0.016967773000000002,-0.09008789,-0.08105469,-0.14503817,1.4580153,-1.4122137,2019-08-05 14:20:29,9.0
825.0,-0.014160156,-0.09075928,-0.078308105,-0.7557252,2.8244274,-3.206107,2019-08-05 14:20:29,9.0
826.0,-0.009399414,-0.09472656,-0.07733154,-0.19847329,0.8396947,-2.4122138,2019-08-05 14:20:29,9.0
827.0,-0.008056641,-0.0904541,-0.07769775400000001,-0.045801528,2.3282442000000003,-2.946565,2019-08-05 14:20:29,9.0
828.0,-0.01739502,-0.09289551,-0.08050537,1.0,0.8015267,-2.053435,2019-08-05 14:20:29,9.0
829.0,-0.020446777,-0.08856201,-0.078186035,0.8167939000000001,0.23664123,-1.3282443000000002,2019-08-05 14:20:29,9.0
830.0,-0.014282227,-0.089782715,-0.08032226599999999,-0.15267175,3.2824428,-1.610687,2019-08-05 14:20:29,9.0
831.0,-0.0064697266000000005,-0.08770752,-0.08331299,0.90839696,1.9465649,-1.3206106000000002,2019-08-05 14:20:29,9.0
832.0,-0.0028686523,-0.08831787,-0.07952881,1.5648855,2.5267177000000003,-2.1068702,2019-08-05 14:20:29,9.0
833.0,-0.01574707,-0.08520508,-0.083984375,0.66412216,2.4961832000000004,-1.4503816,2019-08-05 14:20:29,9.0
834.0,-0.015625,-0.09063721,-0.08068848,-0.19083970000000006,2.0152671000000004,-1.6259542,2019-08-05 14:20:29,9.0
835.0,-0.01739502,-0.08886719,-0.08563232400000001,1.6030535,1.9389313,-2.5954200000000003,2019-08-05 14:20:29,9.0
836.0,-0.018066406,-0.08856201,-0.0803833,-0.015267176,3.572519,-2.816794,2019-08-05 14:20:29,9.0
837.0,-0.0056152344,-0.087890625,-0.07867432,0.030534351,1.8549619,-2.687023,2019-08-05 14:20:29,9.0
838.0,-0.016357422,-0.093933105,-0.08422851599999999,-0.35114503,2.1374047000000003,-1.7328244,2019-08-05 14:20:29,9.0
839.0,-0.018859863,-0.09240723,-0.08544922,-0.9236641,2.3282442000000003,-1.5496184,2019-08-05 14:20:29,9.0
840.0,-0.015319824,-0.092285156,-0.08435058599999999,0.23664123,1.7404580000000005,-1.8778626,2019-08-05 14:20:29,9.0
841.0,-0.003540039,-0.093688965,-0.080200195,1.4885496,1.3740458,-3.0229008,2019-08-05 14:20:29,9.0
842.0,-0.018737793,-0.0904541,-0.082214355,-0.053435113,2.778626,-2.3969467,2019-08-05 14:20:29,9.0
843.0,-0.018859863,-0.09173584,-0.0803833,1.4274809,0.65648854,-2.5038168,2019-08-05 14:20:29,9.0
844.0,-0.012084961000000002,-0.09033203,-0.08337402,-1.221374,3.2290077,-3.3664122000000005,2019-08-05 14:20:29,9.0
845.0,-0.01739502,-0.08770752,-0.078308105,-0.45038167,1.1984733,-2.129771,2019-08-05 14:20:29,9.0
846.0,-0.0004272461,-0.09625244,-0.08428955,-0.27480915,1.129771,-2.778626,2019-08-05 14:20:29,9.0
847.0,-0.006286621,-0.09265137,-0.080078125,-1.2061069,1.3740458,-2.3816793,2019-08-05 14:20:29,9.0
848.0,-0.009521484,-0.089904785,-0.08111572,-1.1755725,2.6641220000000003,-3.221374,2019-08-05 14:20:29,9.0
849.0,-0.013000488,-0.09106445,-0.07714844,-0.07633588,1.480916,-1.870229,2019-08-05 14:20:29,9.0
850.0,-0.009094238,-0.09088135,-0.08251953,-0.519084,0.32824427,-2.7862597,2019-08-05 14:20:29,9.0
851.0,-0.01159668,-0.08691406,-0.08538818,-0.007633588,3.335878,-2.038168,2019-08-05 14:20:29,9.0
852.0,-0.0154418945,-0.093444824,-0.08374023400000001,-0.5114504,3.793893,-1.5954198999999998,2019-08-05 14:20:29,9.0
853.0,-0.010192871,-0.08630371,-0.07501221,-1.091603,1.9236641,-2.923664,2019-08-05 14:20:30,9.0
854.0,-0.008666992,-0.09075928,-0.07623291,0.77862597,3.9847329,-2.206107,2019-08-05 14:20:30,9.0
855.0,-0.016174316,-0.09448242,-0.08050537,0.8244275,2.091603,-2.3511450000000003,2019-08-05 14:20:30,9.0
856.0,-0.0079956055,-0.09490967,-0.08032226599999999,-1.0534351,2.519084,-3.7251909,2019-08-05 14:20:30,9.0
857.0,-0.009521484,-0.09161377,-0.08068848,-0.55725193,2.1374047000000003,-1.2061069,2019-08-05 14:20:30,9.0
858.0,-0.017150878999999997,-0.09118652,-0.072753906,-0.10687023,1.8931298,-0.90839696,2019-08-05 14:20:30,9.0
859.0,-0.01184082,-0.095581055,-0.07983398400000001,-1.1603054,1.908397,-1.4427481000000002,2019-08-05 14:20:30,9.0
860.0,-0.016418457,-0.09698486,-0.08111572,0.03816794,1.3129771,-3.3435113,2019-08-05 14:20:30,9.0
861.0,-0.016174316,-0.09088135,-0.07977295,-0.740458,3.1068702,-3.206107,2019-08-05 14:20:30,9.0
862.0,-0.0146484375,-0.08843994,-0.078186035,-2.3664122000000005,2.9007633,-2.9160306,2019-08-05 14:20:30,9.0
863.0,-0.018188477,-0.08660889,-0.083496094,-0.07633588,3.1526718,-3.0076337000000004,2019-08-05 14:20:30,9.0
864.0,-0.011230469,-0.09680176,-0.0793457,-1.2748091,2.4580152,-3.0839694,2019-08-05 14:20:30,9.0
865.0,-0.014465332,-0.08428955,-0.08435058599999999,-0.90839696,2.3282442000000003,-1.8854961,2019-08-05 14:20:30,9.0
866.0,-0.015075684,-0.08868408,-0.08111572,-0.519084,1.9465649,-0.22900763,2019-08-05 14:20:30,9.0
867.0,-0.008056641,-0.092163086,-0.07678223,0.061068702,1.5648855,-1.9389313,2019-08-05 14:20:30,9.0
868.0,-0.018066406,-0.09234619,-0.07836914,0.86259544,3.0610688,-3.389313,2019-08-05 14:20:30,9.0
869.0,-0.012451172,-0.08770752,-0.078125,-0.24427481,1.7938931,-2.183206,2019-08-05 14:20:30,9.0
870.0,-0.010437012,-0.08898926,-0.07965088,-0.5496183000000001,4.374046,-1.5801526,2019-08-05 14:20:30,9.0
871.0,-0.016967773000000002,-0.085998535,-0.08459473,0.36641222,1.2290076,-3.5496182000000003,2019-08-05 14:20:30,9.0
872.0,-0.02331543,-0.089782715,-0.08062744,-2.076336,2.9312978,-1.7328244,2019-08-05 14:20:30,9.0
873.0,-0.0072631836,-0.08538818,-0.07379150400000001,-1.0610687,1.5877863,-2.7480917,2019-08-05 14:20:30,9.0
874.0,-0.015380858999999997,-0.08087158,-0.06500244,-0.2977099,2.8015267999999995,-2.312977,2019-08-05 14:20:30,9.0
875.0,-0.015319824,-0.08935547,-0.07989502,1.0763359,3.5038168,-1.7251909,2019-08-05 14:20:30,9.0
876.0,-0.014282227,-0.08807373,-0.083862305,-0.15267175,1.1832061000000005,-2.7862597,2019-08-05 14:20:30,9.0
877.0,-0.007873535,-0.092163086,-0.07580566400000001,-2.8473282,-1.0,-2.8625953,2019-08-05 14:20:30,9.0
878.0,-0.013549805,-0.08563232400000001,-0.07836914,-0.6488550000000001,1.9923664,-3.0687022,2019-08-05 14:20:30,9.0
879.0,-0.015075684,-0.0904541,-0.07537842,-2.3435113,2.9541984,-2.3969467,2019-08-05 14:20:30,9.0
880.0,-0.016662598,-0.08752441400000001,-0.07843017599999999,-0.3053435,3.6259542,-3.6335878,2019-08-05 14:20:30,9.0
881.0,-0.010498047,-0.09075928,-0.07421875,0.15267175,1.2442749,-2.870229,2019-08-05 14:20:30,9.0
882.0,-0.014526367,-0.09008789,-0.07946777,-2.5954200000000003,1.519084,-3.2366412,2019-08-05 14:20:30,9.0
883.0,-0.005676269499999999,-0.08709717,-0.082092285,-0.8167939000000001,2.8778627,-1.648855,2019-08-05 14:20:30,9.0
884.0,-0.012756348,-0.090148926,-0.07965088,0.9236641,3.5496182000000003,-1.7251909,2019-08-05 14:20:30,9.0
885.0,-0.011108398,-0.09448242,-0.08929443,1.9923664,2.4503818,-2.7099237,2019-08-05 14:20:30,9.0
886.0,-0.010314941,-0.099121094,-0.08233642599999999,-4.6412215,1.7557251,-1.5572518999999998,2019-08-05 14:20:30,9.0
887.0,-0.018127441,-0.0881958,-0.09118652,3.389313,0.65648854,-2.0610688,2019-08-05 14:20:30,9.0
888.0,-0.0032348633000000003,-0.08795166,-0.08892822,2.8549619,3.183206,-1.038168,2019-08-05 14:20:30,9.0
889.0,-0.008056641,-0.093566895,-0.08129883,-1.259542,2.8015267999999995,-3.0610688,2019-08-05 14:20:30,9.0
890.0,-0.009399414,-0.09020996,-0.07659912,-1.610687,2.0076337,-2.1984732000000005,2019-08-05 14:20:31,9.0
891.0,-0.009887695,-0.09161377,-0.08306885,-0.36641222,0.41221374,-3.6717558,2019-08-05 14:20:31,9.0
892.0,-0.00970459,-0.08477783,-0.08721924,1.29771,0.9389313,-2.7099237,2019-08-05 14:20:31,9.0
893.0,-0.01550293,-0.09338379,-0.08251953,-0.13740458,1.29771,-3.2824428,2019-08-05 14:20:31,9.0
894.0,-0.011962891000000002,-0.08532715,-0.07836914,-0.8549618,3.4961832000000004,-3.3664122000000005,2019-08-05 14:20:31,9.0
895.0,-0.011474608999999998,-0.08813476599999999,-0.07373047,-0.519084,1.5801526,-3.2824428,2019-08-05 14:20:31,9.0
896.0,-0.013183594,-0.08538818,-0.08001709,-0.40458015,1.4427481000000002,-3.961832,2019-08-05 14:20:31,9.0
897.0,-0.011413574,-0.095947266,-0.0803833,-1.1832061000000005,1.0610687,-2.1068702,2019-08-05 14:20:31,9.0
898.0,-0.01953125,-0.094177246,-0.07733154,-1.6259542,1.1221374,-2.9541984,2019-08-05 14:20:31,9.0
899.0,-0.0068359375,-0.091918945,-0.07836914,-0.34351146,3.0,-2.312977,2019-08-05 14:20:31,9.0
900.0,-0.020019531,-0.08984375,-0.0758667,0.9312977,1.961832,0.4351145000000001,2019-08-05 14:20:31,9.0
901.0,-0.018066406,-0.0904541,-0.07971191400000001,0.54198474,2.465649,-2.0992367,2019-08-05 14:20:31,9.0
902.0,-0.014343262,-0.08886719,-0.076049805,0.96183205,2.0839694,-2.335878,2019-08-05 14:20:31,9.0
903.0,-0.013305663999999998,-0.08984375,-0.07891846,-1.6793894,1.389313,-3.0687022,2019-08-05 14:20:31,9.0
904.0,-0.011657715,-0.091552734,-0.08813476599999999,-0.55725193,1.7328244,-3.1068702,2019-08-05 14:20:31,9.0
905.0,-0.010925293,-0.08673096,-0.07885742,-1.6030535,0.8702290000000001,-2.6412213,2019-08-05 14:20:31,9.0
906.0,-0.005981445300000001,-0.08721924,-0.083862305,0.48091602,0.0,-2.3969467,2019-08-05 14:20:31,9.0
907.0,-0.010192871,-0.08886719,-0.07843017599999999,-0.03816794,2.6335877999999995,-2.3816793,2019-08-05 14:20:31,9.0
908.0,-0.009887695,-0.093811035,-0.08172607400000001,-0.15267175,0.8015267,-1.1450381,2019-08-05 14:20:31,9.0
909.0,-0.016723633,-0.08953857400000001,-0.079956055,-1.4427481000000002,2.4122138,-2.8244274,2019-08-05 14:20:31,9.0
910.0,-0.010192871,-0.08929443,-0.08355713,1.8625954,3.076336,-2.076336,2019-08-05 14:20:31,9.0
911.0,-0.015197754,-0.0847168,-0.07580566400000001,0.35114503,0.8854962,-0.60305345,2019-08-05 14:20:31,9.0
912.0,-0.013366699,-0.095458984,-0.07940674,-1.2519083999999998,2.7862597,-2.465649,2019-08-05 14:20:31,9.0
913.0,-0.020324707,-0.08947754,-0.08233642599999999,-0.77862597,1.9236641,-1.9160305,2019-08-05 14:20:31,9.0
914.0,-0.007751465,-0.09069824,-0.07867432,-2.0229008,1.1908396,-2.0152671000000004,2019-08-05 14:20:31,9.0
915.0,-0.0063476562,-0.08856201,-0.08142089999999999,-0.259542,2.1145039,-1.0687023,2019-08-05 14:20:31,9.0
916.0,-0.0078125,-0.09338379,-0.08081055,-0.90076333,3.2442749,-4.236641400000001,2019-08-05 14:20:31,9.0
917.0,-0.013977051,-0.08227539,-0.078308105,0.19083970000000006,1.9465649,-1.3587786,2019-08-05 14:20:31,9.0
918.0,-0.021728516,-0.08514404,-0.07745361,-0.7251908,2.0839694,-3.0152671000000004,2019-08-05 14:20:31,9.0
919.0,-0.006652831999999999,-0.08685303,-0.07879639,-1.8549619,0.86259544,-2.6259542,2019-08-05 14:20:31,9.0
920.0,-0.013671875,-0.09301758,-0.08123779,0.55725193,2.7404580000000003,-4.587786,2019-08-05 14:20:31,9.0
921.0,-0.012329102,-0.09094238,-0.07342529,0.84732825,1.961832,-3.8473282,2019-08-05 14:20:31,9.0
922.0,-0.006591797,-0.0859375,-0.07647705,-1.2519083999999998,3.7099237,-3.7480917,2019-08-05 14:20:31,9.0
923.0,-0.0073242188,-0.0859375,-0.0793457,0.60305345,1.1068702,-2.0687022,2019-08-05 14:20:31,9.0
924.0,-0.016784668,-0.09631348,-0.0725708,0.8396947,1.3664122,-3.351145,2019-08-05 14:20:31,9.0
925.0,-0.0087890625,-0.08892822,-0.07940674,-2.335878,2.4580152,-2.5114503,2019-08-05 14:20:31,9.0
926.0,-0.015380858999999997,-0.092163086,-0.08117676,-2.5648854,0.7633588000000001,-4.221374,2019-08-05 14:20:32,9.0
927.0,-0.018066406,-0.091796875,-0.07678223,0.015267176,1.6030535,-2.2137403,2019-08-05 14:20:32,9.0
928.0,-0.008972168,-0.093811035,-0.08374023400000001,0.114503816,0.90076333,0.48854962,2019-08-05 14:20:32,9.0
929.0,-0.013916016000000002,-0.08947754,-0.07684326,0.27480915,1.4122137,-0.045801528,2019-08-05 14:20:32,9.0
930.0,-0.0119018555,-0.09387207,-0.07904053,-1.1755725,1.351145,-1.3129771,2019-08-05 14:20:32,9.0
931.0,-0.017089844,-0.08782959,-0.07824707,-0.41984734,2.3511450000000003,-2.167939,2019-08-05 14:20:32,9.0
932.0,-0.018737793,-0.08605957,-0.07836914,-1.29771,1.038168,-2.4885497,2019-08-05 14:20:32,9.0
933.0,-0.009338379,-0.08160400400000001,-0.07769775400000001,-2.2137403,0.77862597,-2.946565,2019-08-05 14:20:32,9.0
934.0,-0.01739502,-0.0871582,-0.08416748,0.19083970000000006,2.6030533,-3.427481,2019-08-05 14:20:32,9.0
935.0,-0.017944336,-0.08654785,-0.08117676,-0.030534351,1.2671756,-2.3435113,2019-08-05 14:20:32,9.0
936.0,-0.017822266,-0.096191406,-0.07720947,-2.2900763,0.6870229,-3.480916000000001,2019-08-05 14:20:32,9.0
937.0,-0.016296387,-0.095458984,-0.079589844,-1.0229008,1.0229008,-2.5267177000000003,2019-08-05 14:20:32,9.0
938.0,-0.007019043000000001,-0.09423828,-0.08276367,-2.5954200000000003,2.793893,-1.6793894,2019-08-05 14:20:32,9.0
939.0,-0.017822266,-0.08892822,-0.080566406,-0.86259544,-0.34351146,-3.351145,2019-08-05 14:20:32,9.0
940.0,-0.01550293,-0.088012695,-0.083496094,-0.20610687,1.3664122,-3.0152671000000004,2019-08-05 14:20:32,9.0
941.0,-0.011108398,-0.09082031,-0.080200195,-1.0076336,1.8015267,-2.8549619,2019-08-05 14:20:32,9.0
942.0,-0.01751709,-0.08856201,-0.08117676,-0.8396947,1.7251909,-2.0229008,2019-08-05 14:20:32,9.0
943.0,-0.012756348,-0.08227539,-0.08172607400000001,1.0,2.0687022,-2.2290077,2019-08-05 14:20:32,9.0
944.0,-0.01171875,-0.08892822,-0.08227539,0.6259541999999999,3.167939,-1.7862595,2019-08-05 14:20:32,9.0
945.0,-0.0211792,-0.09033203,-0.08404541,0.8396947,1.648855,-1.0839695,2019-08-05 14:20:32,9.0
946.0,-0.009765625,-0.08770752,-0.084106445,-1.3129771,3.2366412,-3.2900763,2019-08-05 14:20:32,9.0
947.0,-0.012207031,-0.09246826,-0.08453369,-1.2137405,2.3282442000000003,-2.7709923,2019-08-05 14:20:32,9.0
948.0,-0.008850098,-0.08856201,-0.087402344,-0.84732825,0.41984734,-1.4656489,2019-08-05 14:20:32,9.0
949.0,-0.020446777,-0.08581543,-0.08496094,-1.1755725,1.5801526,-1.4580153,2019-08-05 14:20:32,9.0
950.0,-0.022216797000000003,-0.09375,-0.08172607400000001,0.19847329,1.129771,-2.1755726,2019-08-05 14:20:32,9.0
951.0,-0.014953613,-0.08691406,-0.08233642599999999,-0.26717559,0.26717559,-2.465649,2019-08-05 14:20:32,9.0
952.0,-0.015380858999999997,-0.09429932,-0.08624267599999999,-0.70229006,0.7633588000000001,-1.9160305,2019-08-05 14:20:32,9.0
953.0,-0.0095825195,-0.082092285,-0.08435058599999999,0.16030534,1.5114504,-1.8473282,2019-08-05 14:20:32,9.0
954.0,-0.01184082,-0.08892822,-0.08135986,0.4274809,1.7404580000000005,-3.3053436,2019-08-05 14:20:32,9.0
955.0,-0.007629394499999998,-0.08911133,-0.08294678,0.5801527,3.4198472,-3.7175572,2019-08-05 14:20:32,9.0
956.0,-0.010437012,-0.08843994,-0.08569336,0.6259541999999999,2.519084,-4.557252,2019-08-05 14:20:32,9.0
957.0,-0.010620117,-0.093811035,-0.07940674,-0.7251908,0.57251906,-3.2671757,2019-08-05 14:20:32,9.0
958.0,-0.008422852,-0.08465576,-0.08374023400000001,-0.32061067,1.7786259999999998,-3.0687022,2019-08-05 14:20:32,9.0
959.0,-0.0079956055,-0.0982666,-0.08508301,-1.832061,2.2290077,-2.2519083,2019-08-05 14:20:32,9.0
960.0,-0.01928711,-0.08947754,-0.08111572,-2.1221373,2.2366412,-1.7862595,2019-08-05 14:20:33,9.0
961.0,-0.0064697266000000005,-0.09075928,-0.07489014,-1.7480916000000002,2.4885497,-2.6717558,2019-08-05 14:20:33,9.0
962.0,-0.017333984,-0.08953857400000001,-0.080566406,0.77862597,1.0305344,-1.6335878,2019-08-05 14:20:33,9.0
963.0,-0.007019043000000001,-0.09033203,-0.08337402,-0.86259544,2.5496182000000003,-3.2366412,2019-08-05 14:20:33,9.0
964.0,-0.013366699,-0.091796875,-0.08190918,-0.9465649,2.1984732000000005,-2.793893,2019-08-05 14:20:33,9.0
965.0,-0.011230469,-0.08843994,-0.08215332,-0.26717559,2.6412213,-3.167939,2019-08-05 14:20:33,9.0
966.0,-0.007751465,-0.087890625,-0.07653808599999999,0.64122134,1.5343511,-1.5419847,2019-08-05 14:20:33,9.0
967.0,-0.014709473,-0.08642578,-0.08306885,0.27480915,2.053435,-2.5648854,2019-08-05 14:20:33,9.0
968.0,-0.0065307617,-0.084106445,-0.08624267599999999,-2.7480917,2.4580152,-0.8702290000000001,2019-08-05 14:20:33,9.0
969.0,-0.010986328,-0.08868408,-0.07714844,-1.3282443000000002,1.6335878,-2.038168,2019-08-05 14:20:33,9.0
970.0,-0.0087890625,-0.08544922,-0.07720947,-0.90076333,0.28244275,-3.1984732000000005,2019-08-05 14:20:33,9.0
971.0,-0.013671875,-0.09442139,-0.08117676,-0.610687,2.5877862,-1.6335878,2019-08-05 14:20:33,9.0
972.0,-0.013366699,-0.08813476599999999,-0.08435058599999999,-0.6870229,2.1984732000000005,-2.1603053,2019-08-05 14:20:33,9.0
973.0,-0.018066406,-0.08642578,-0.08190918,-1.8625954,2.40458,-2.2671757,2019-08-05 14:20:33,9.0
974.0,-0.008483886999999999,-0.09057617,-0.07867432,-0.19083970000000006,0.67175573,-1.8091604,2019-08-05 14:20:33,9.0
975.0,-0.015930176,-0.08898926,-0.07971191400000001,0.77862597,3.7633588,-2.8854961,2019-08-05 14:20:33,9.0
976.0,-0.014404297,-0.083862305,-0.08392334,1.4503816,1.4732825,-2.7175572,2019-08-05 14:20:33,9.0
977.0,-0.011779785,-0.08654785,-0.08178711,-0.7251908,1.5877863,-3.6793892,2019-08-05 14:20:33,9.0
978.0,-0.012817383,-0.08441162,-0.082214355,-1.2290076,2.0152671000000004,-2.8473282,2019-08-05 14:20:33,9.0
979.0,-0.0072021484,-0.08752441400000001,-0.08251953,-1.4656489,0.5648854999999999,-1.6259542,2019-08-05 14:20:33,9.0
980.0,-0.013793945,-0.090270996,-0.07824707,-0.9236641,2.1908398,-2.9541984,2019-08-05 14:20:33,9.0
981.0,-0.01965332,-0.0949707,-0.07867432,1.3587786,1.9465649,-2.7633588,2019-08-05 14:20:33,9.0
982.0,-0.007385254,-0.087768555,-0.08239746,-0.34351146,0.97709924,-2.1068702,2019-08-05 14:20:33,9.0
983.0,-0.012878418,-0.091918945,-0.08538818,-0.5801527,2.2671757,-1.7175573,2019-08-05 14:20:33,9.0
984.0,-0.010437012,-0.09552002,-0.082092285,-0.9160305,1.2900764,-1.3664122,2019-08-05 14:20:33,9.0
985.0,-0.014343262,-0.08703613,-0.08428955,-0.061068702,1.5801526,-2.312977,2019-08-05 14:20:33,9.0
986.0,-0.0119018555,-0.09552002,-0.08111572,0.8244275,3.9312978,-2.480916,2019-08-05 14:20:33,9.0
987.0,-0.01373291,-0.09490967,-0.081848145,-0.3740458,1.1374046,-0.6488550000000001,2019-08-05 14:20:33,9.0
988.0,-0.011352538999999998,-0.093811035,-0.079956055,-1.3587786,1.4351145,-2.076336,2019-08-05 14:20:33,9.0
989.0,-0.012023926,-0.09320068,-0.08300781,-1.259542,2.1603053,-1.5725191,2019-08-05 14:20:33,9.0
990.0,-0.012573242,-0.09680176,-0.08251953,-0.40458015,2.259542,-1.9694656000000004,2019-08-05 14:20:33,9.0
991.0,-0.017822266,-0.09057617,-0.08050537,0.015267176,1.8244275,-3.557252,2019-08-05 14:20:33,9.0
992.0,-0.012939453,-0.092285156,-0.08435058599999999,-0.90076333,0.9236641,-1.8015267,2019-08-05 14:20:33,9.0
993.0,-0.012207031,-0.08673096,-0.07647705,-2.4198472,1.4045801000000002,-2.610687,2019-08-05 14:20:33,9.0
994.0,-0.015563965,-0.084106445,-0.08233642599999999,-0.9160305,1.389313,-2.038168,2019-08-05 14:20:33,9.0
995.0,-0.01953125,-0.08782959,-0.08215332,-0.22137405,2.2366412,-2.70229,2019-08-05 14:20:33,9.0
996.0,-0.0134887695,-0.087402344,-0.07672119,0.015267176,2.2290077,-1.6717557,2019-08-05 14:20:33,9.0
997.0,-0.018310547,-0.09118652,-0.07580566400000001,-0.519084,2.5877862,-1.0229008,2019-08-05 14:20:34,9.0
998.0,-0.017028809,-0.08880615,-0.08178711,0.45801526,1.0992366000000002,-2.312977,2019-08-05 14:20:34,9.0
999.0,-0.010620117,-0.08551025400000001,-0.082214355,0.96183205,2.8473282,-2.4580152,2019-08-05 14:20:34,9.0
1000.0,-0.009094238,-0.08868408,-0.08233642599999999,1.6335878,1.9465649,-2.3587787,2019-08-05 14:20:34,9.0
1001.0,-0.015075684,-0.08923339999999999,-0.08459473,0.96183205,1.221374,-1.9236641,2019-08-05 14:20:34,9.0
1002.0,-0.016967773000000002,-0.08905029,-0.08569336,-0.16030534,2.1450381000000003,-2.534351,2019-08-05 14:20:34,9.0
1003.0,-0.013122559,-0.089904785,-0.08294678,0.8396947,0.740458,-1.6030535,2019-08-05 14:20:34,9.0
1004.0,-0.020202637,-0.095825195,-0.08422851599999999,0.54198474,3.5190839999999994,-2.2671757,2019-08-05 14:20:34,9.0
1005.0,-0.01965332,-0.09222412,-0.08203125,1.1221374,1.091603,-2.3816793,2019-08-05 14:20:34,9.0
1006.0,-0.015991211,-0.08923339999999999,-0.08557129,0.8549618,2.1374047000000003,-3.2824428,2019-08-05 14:20:34,9.0
1007.0,-0.008911133,-0.08831787,-0.08129883,1.1984733,1.6946564999999998,-2.6335877999999995,2019-08-05 14:20:34,9.0
1008.0,-0.011291504,-0.08764648400000001,-0.08178711,-1.8015267,1.8854961,-2.648855,2019-08-05 14:20:34,9.0
1009.0,-0.0073242188,-0.08795166,-0.08325195,-0.41221374,3.2442749,-2.70229,2019-08-05 14:20:34,9.0
1010.0,-0.022277832,-0.093322754,-0.085754395,-0.7251908,1.1984733,-2.5648854,2019-08-05 14:20:34,9.0
1011.0,-0.016479492,-0.081970215,-0.07623291,0.48091602,0.33587787,-3.557252,2019-08-05 14:20:34,9.0
1012.0,-0.018432617,-0.09069824,-0.08160400400000001,-0.70229006,0.84732825,-2.0152671000000004,2019-08-05 14:20:34,9.0
1013.0,-0.01940918,-0.08709717,-0.08245849599999999,0.8015267,2.0,-3.4198472,2019-08-05 14:20:34,9.0
1014.0,-0.009216309,-0.08660889,-0.08270264,-0.9236641,2.0839694,-3.5877862,2019-08-05 14:20:34,9.0
1015.0,-0.013122559,-0.08911133,-0.082092285,0.08396947,2.6641220000000003,-2.9007633,2019-08-05 14:20:34,9.0
1016.0,-0.0138549805,-0.089782715,-0.07891846,-1.3969465,1.9770992,-3.076336,2019-08-05 14:20:34,9.0
1017.0,-0.014770508,-0.08923339999999999,-0.08355713,-1.9465649,2.1526718,-2.3511450000000003,2019-08-05 14:20:34,9.0
1018.0,-0.011779785,-0.08953857400000001,-0.08264160000000001,-1.6946564999999998,3.076336,-2.4503818,2019-08-05 14:20:34,9.0
1019.0,-0.014465332,-0.08770752,-0.08258057,0.16030534,1.6335878,-2.0076337,2019-08-05 14:20:34,9.0
1020.0,-0.022216797000000003,-0.09442139,-0.08233642599999999,-0.5114504,1.129771,-0.4351145000000001,2019-08-05 14:20:34,9.0
1021.0,-0.01776123,-0.08563232400000001,-0.08026123,1.6183206,1.2290076,-3.0687022,2019-08-05 14:20:34,9.0
1022.0,-0.018981934,-0.09387207,-0.0836792,0.03816794,1.0152671,-2.1755726,2019-08-05 14:20:34,9.0
1023.0,-0.009887695,-0.09375,-0.08105469,-0.9236641,1.3053435,-3.3206108,2019-08-05 14:20:34,9.0
1024.0,-0.011291504,-0.09307861,-0.08544922,-0.48854962,1.9160305,-3.427481,2019-08-05 14:20:34,9.0
1025.0,-0.013122559,-0.09411621,-0.07727051,-0.41221374,1.7709924,-4.183206,2019-08-05 14:20:34,9.0
1026.0,-0.00592041,-0.09020996,-0.08392334,-1.7480916000000002,1.3587786,-4.3053436,2019-08-05 14:20:34,9.0
1027.0,-0.012756348,-0.09234619,-0.08422851599999999,-2.4198472,1.129771,-2.70229,2019-08-05 14:20:34,9.0
1028.0,-0.013793945,-0.08850098,-0.08477783,-0.21374045,2.2671757,-2.1984732000000005,2019-08-05 14:20:34,9.0
1029.0,-0.017456055,-0.08227539,-0.08288574,-0.2519084,0.7633588000000001,-3.3587787,2019-08-05 14:20:34,9.0
1030.0,-0.016235351999999998,-0.09423828,-0.085998535,-1.3740458,1.8778626,-2.1526718,2019-08-05 14:20:34,9.0
1031.0,-0.004699707,-0.08465576,-0.08215332,-1.0763359,3.0229008,-3.7709923,2019-08-05 14:20:34,9.0
1032.0,-0.019470215,-0.08508301,-0.08526611,-1.3587786,2.053435,-2.6030533,2019-08-05 14:20:35,9.0
1033.0,-0.014892578,-0.09350586,-0.07928467,-0.091603056,2.778626,-0.6488550000000001,2019-08-05 14:20:35,9.0
1034.0,-0.010437012,-0.09509277,-0.08380127,0.5038168,2.259542,-2.465649,2019-08-05 14:20:35,9.0
1035.0,-0.015563965,-0.088378906,-0.08300781,-0.7099236999999999,2.7862597,-2.9312978,2019-08-05 14:20:35,9.0
1036.0,-0.012817383,-0.09124756,-0.08465576,-0.9847328000000002,0.9694657,-2.534351,2019-08-05 14:20:35,9.0
1037.0,-0.01727295,-0.09008789,-0.07733154,0.114503816,1.1450381,-2.1755726,2019-08-05 14:20:35,9.0
1038.0,-0.006286621,-0.08648682,-0.08441162,-0.40458015,1.4961832,-3.7099237,2019-08-05 14:20:35,9.0
1039.0,-0.012329102,-0.08416748,-0.08233642599999999,0.0,1.9465649,-1.9236641,2019-08-05 14:20:35,9.0
1040.0,-0.008239746,-0.08532715,-0.08044433599999999,0.35114503,1.9847329,-2.9694657,2019-08-05 14:20:35,9.0
1041.0,-0.018798828,-0.08654785,-0.08026123,-1.7328244,1.3587786,-2.4503818,2019-08-05 14:20:35,9.0
1042.0,-0.0095825195,-0.08868408,-0.07733154,-2.076336,1.4885496,-3.6183207,2019-08-05 14:20:35,9.0
1043.0,-0.01574707,-0.08734131,-0.083984375,-1.5419847,0.9389313,-3.4885497,2019-08-05 14:20:35,9.0
1044.0,-0.016235351999999998,-0.08734131,-0.08270264,-2.427481,2.534351,-1.4198474,2019-08-05 14:20:35,9.0
1045.0,-0.015197754,-0.09051514,-0.08264160000000001,-0.4351145000000001,2.870229,-1.7557251,2019-08-05 14:20:35,9.0
1046.0,-0.017150878999999997,-0.08178711,-0.08148193,-1.4122137,3.534351,-0.21374045,2019-08-05 14:20:35,9.0
1047.0,-0.008422852,-0.09295654,-0.08361816400000001,-1.2290076,2.4198472,-0.78625953,2019-08-05 14:20:35,9.0
1048.0,-0.011169434,-0.09222412,-0.08190918,-0.6793893,3.1526718,-2.8396947,2019-08-05 14:20:35,9.0
1049.0,-0.020324707,-0.08953857400000001,-0.08135986,1.7633588,2.6946564,-2.6030533,2019-08-05 14:20:35,9.0
1050.0,-0.014892578,-0.09082031,-0.08728027,3.3816793,3.2671757,-0.86259544,2019-08-05 14:20:35,9.0
1051.0,-0.010620117,-0.08898926,-0.08459473,1.908397,1.7557251,-1.4961832,2019-08-05 14:20:35,9.0
1052.0,-0.013549805,-0.09423828,-0.08898926,0.16793893,2.0610688,-0.73282444,2019-08-05 14:20:35,9.0
1053.0,-0.015075684,-0.085754395,-0.08624267599999999,1.9694656000000004,3.0076337000000004,-3.221374,2019-08-05 14:20:35,9.0
1054.0,-0.014099121,-0.091308594,-0.08093262,3.2366412,2.0992367,-1.7404580000000005,2019-08-05 14:20:35,9.0
1055.0,-0.011352538999999998,-0.08770752,-0.08630371,3.6412213,1.3740458,-3.2366412,2019-08-05 14:20:35,9.0
1056.0,-0.014221191,-0.08526611,-0.083862305,0.519084,1.1908396,-3.4732823,2019-08-05 14:20:35,9.0
1057.0,-0.007507324,-0.08905029,-0.082214355,-3.3435113,-0.2519084,-2.687023,2019-08-05 14:20:35,9.0
1058.0,-0.009765625,-0.08044433599999999,-0.08081055,-3.610687,-1.0305344,-6.0458016,2019-08-05 14:20:35,9.0
1059.0,-0.0095825195,-0.085876465,-0.082214355,-1.5343511,0.8854962,-3.091603,2019-08-05 14:20:35,9.0
1060.0,-0.008178711,-0.08862305,-0.08435058599999999,1.4122137,1.610687,-2.038168,2019-08-05 14:20:35,9.0
1061.0,-0.019348145,-0.08892822,-0.09008789,2.1145039,0.3816794000000001,-2.7099237,2019-08-05 14:20:35,9.0
1062.0,-0.0045166016,-0.08465576,-0.08276367,-1.1603054,2.1221373,-2.5648854,2019-08-05 14:20:35,9.0
1063.0,-0.017333984,-0.08825683599999999,-0.07940674,-0.67175573,-0.17557251,-2.7328243,2019-08-05 14:20:35,9.0
1064.0,-0.0119018555,-0.08764648400000001,-0.07788086,1.5725191,1.6793894,-1.5648855,2019-08-05 14:20:35,9.0
1065.0,-0.015686035,-0.08489989999999999,-0.083862305,1.7862595,2.1068702,-1.6259542,2019-08-05 14:20:35,9.0
1066.0,-0.008422852,-0.090026855,-0.07788086,4.2900763,2.8015267999999995,-2.427481,2019-08-05 14:20:35,9.0
1067.0,-0.009460449,-0.09301758,-0.07946777,-0.40458015,1.1374046,-0.114503816,2019-08-05 14:20:35,9.0
1068.0,-0.018920898,-0.08905029,-0.08282471,-2.427481,1.8167939,-2.5038168,2019-08-05 14:20:35,9.0
1069.0,-0.012084961000000002,-0.08935547,-0.08502197,1.6183206,2.961832,-3.7099237,2019-08-05 14:20:36,9.0
1070.0,-0.015075684,-0.08758545,-0.07843017599999999,1.3664122,1.9389313,-2.3282442000000003,2019-08-05 14:20:36,9.0
1071.0,-0.011108398,-0.091308594,-0.08105469,2.442748,2.0229008,-2.793893,2019-08-05 14:20:36,9.0
1072.0,-0.016418457,-0.08905029,-0.083862305,-1.7709924,0.21374045,-4.931298,2019-08-05 14:20:36,9.0
1073.0,-0.015014648,-0.08984375,-0.087890625,-7.2061066999999985,0.10687023,-5.076336,2019-08-05 14:20:36,9.0
1074.0,-0.013122559,-0.08563232400000001,-0.08734131,-5.7328243,3.0,-4.3816795,2019-08-05 14:20:36,9.0
1075.0,-0.010681152,-0.088012695,-0.08050537,2.5038168,1.1450381,0.122137405,2019-08-05 14:20:36,9.0
1076.0,-0.011108398,-0.09429932,-0.0803833,3.389313,1.3587786,0.08396947,2019-08-05 14:20:36,9.0
1077.0,-0.011962891000000002,-0.08728027,-0.07678223,-2.0992367,1.7709924,-3.2900763,2019-08-05 14:20:36,9.0
1078.0,-0.013671875,-0.08917236,-0.07904053,-2.687023,2.29771,-2.40458,2019-08-05 14:20:36,9.0
1079.0,-0.010803223,-0.09051514,-0.085754395,-2.1755726,2.2366412,-2.1068702,2019-08-05 14:20:36,9.0
1080.0,-0.012756348,-0.09197998,-0.08557129,0.259542,2.4885497,-1.8625954,2019-08-05 14:20:36,9.0
1081.0,-0.017150878999999997,-0.08898926,-0.07696533,-1.870229,2.8396947,-1.4961832,2019-08-05 14:20:36,9.0
1082.0,-0.012817383,-0.09399414,-0.087402344,-1.4732825,1.3664122,-2.465649,2019-08-05 14:20:36,9.0
1083.0,-0.014892578,-0.09429932,-0.08099365,-0.57251906,2.3282442000000003,-3.389313,2019-08-05 14:20:36,9.0
1084.0,-0.014953613,-0.090026855,-0.08172607400000001,1.7633588,-0.48854962,-2.908397,2019-08-05 14:20:36,9.0
1085.0,-0.015930176,-0.08758545,-0.08105469,0.53435117,0.015267176,-2.3511450000000003,2019-08-05 14:20:36,9.0
1086.0,-0.0095825195,-0.09039307,-0.08062744,-0.90076333,2.40458,-3.0152671000000004,2019-08-05 14:20:36,9.0
1087.0,-0.012573242,-0.09051514,-0.07684326,1.1603054,1.6870229,-3.1221373,2019-08-05 14:20:36,9.0
1088.0,-0.015014648,-0.08654785,-0.08148193,1.2519083999999998,1.3206106000000002,-0.84732825,2019-08-05 14:20:36,9.0
1089.0,-0.017028809,-0.0927124,-0.08441162,2.3740458,1.8473282,-2.534351,2019-08-05 14:20:36,9.0
1090.0,-0.011657715,-0.09100342,-0.083984375,0.8091603,1.4503816,-2.2290077,2019-08-05 14:20:36,9.0
1091.0,-0.013977051,-0.089660645,-0.08428955,-0.6793893,1.4580153,-3.4580152,2019-08-05 14:20:36,9.0
1092.0,-0.015991211,-0.09283447,-0.08312988,0.03816794,0.8091603,-3.1145039,2019-08-05 14:20:36,9.0
1093.0,-0.018737793,-0.08831787,-0.07965088,-2.259542,0.9694657,-2.0076337,2019-08-05 14:20:36,9.0
1094.0,-0.015808105,-0.087768555,-0.08160400400000001,-0.19083970000000006,1.1679389999999998,-2.778626,2019-08-05 14:20:36,9.0
1095.0,-0.010864258,-0.08972168,-0.07769775400000001,1.3282443000000002,2.6793892,-1.351145,2019-08-05 14:20:36,9.0
1096.0,-0.012145996,-0.088012695,-0.08172607400000001,1.0458015,2.519084,-1.5648855,2019-08-05 14:20:36,9.0
1097.0,-0.015075684,-0.09362793,-0.08569336,-1.0,1.832061,-0.8778626,2019-08-05 14:20:36,9.0
1098.0,-0.012390137,-0.08654785,-0.087402344,-2.2824428,2.5114503,-2.6946564,2019-08-05 14:20:36,9.0
1099.0,-0.013977051,-0.088378906,-0.08489989999999999,-0.10687023,2.6183207000000004,-1.6564884999999998,2019-08-05 14:20:36,9.0
1100.0,-0.020019531,-0.08905029,-0.08068848,-1.0305344,1.8473282,-3.5496182000000003,2019-08-05 14:20:36,9.0
1101.0,-0.017333984,-0.091552734,-0.08532715,0.099236645,1.908397,-4.0305343,2019-08-05 14:20:36,9.0
1102.0,-0.014709473,-0.08959961,-0.08178711,0.7633588000000001,1.7480916000000002,-1.4427481000000002,2019-08-05 14:20:36,9.0
1103.0,-0.008666992,-0.08850098,-0.08508301,-0.8854962,1.8854961,-2.076336,2019-08-05 14:20:36,9.0
1104.0,-0.014953613,-0.08911133,-0.08544922,-0.31297709999999995,0.96183205,-1.7480916000000002,2019-08-05 14:20:37,9.0
1105.0,-0.009155273,-0.09246826,-0.08282471,-1.1603054,1.648855,-3.3053436,2019-08-05 14:20:37,9.0
1106.0,-0.012390137,-0.08441162,-0.08605957,0.23664123,1.5343511,-3.5190839999999994,2019-08-05 14:20:37,9.0
1107.0,-0.00592041,-0.09295654,-0.08288574,-1.2442749,1.6183206,-3.4351146,2019-08-05 14:20:37,9.0
1108.0,-0.010620117,-0.08654785,-0.080566406,0.015267176,3.572519,-2.2748091,2019-08-05 14:20:37,9.0
1109.0,-0.015686035,-0.09161377,-0.07263183599999999,-0.9389313,0.9847328000000002,-2.648855,2019-08-05 14:20:37,9.0
1110.0,-0.017028809,-0.092041016,-0.08276367,-0.08396947,2.2366412,-0.73282444,2019-08-05 14:20:37,9.0
1111.0,-0.013549805,-0.085754395,-0.075683594,-0.8167939000000001,1.8244275,-2.3282442000000003,2019-08-05 14:20:37,9.0
1112.0,-0.01361084,-0.085754395,-0.08489989999999999,-1.5801526,2.076336,-2.6641220000000003,2019-08-05 14:20:37,9.0
1113.0,-0.012207031,-0.08361816400000001,-0.08050537,1.4580153,1.1603054,-1.3129771,2019-08-05 14:20:37,9.0
1114.0,-0.023742676,-0.08605957,-0.079956055,1.6870229,1.6564884999999998,-2.7709923,2019-08-05 14:20:37,9.0
1115.0,-0.010131836,-0.09326172,-0.07855224599999999,-0.23664123,3.3664122000000005,-2.3053436,2019-08-05 14:20:37,9.0
1116.0,-0.009643555,-0.08422851599999999,-0.07556152,0.15267175,2.8854961,-2.870229,2019-08-05 14:20:37,9.0
1117.0,-0.010314941,-0.093688965,-0.07940674,-2.1526718,1.5267175,-2.687023,2019-08-05 14:20:37,9.0
1118.0,-0.010498047,-0.085998535,-0.08508301,-0.8091603,1.4580153,-3.2900763,2019-08-05 14:20:37,9.0
1119.0,-0.014038086000000002,-0.08892822,-0.07977295,0.5954198,1.0839695,-3.7480917,2019-08-05 14:20:37,9.0
1120.0,-0.0078125,-0.09075928,-0.07611084,0.34351146,0.122137405,-4.9694657,2019-08-05 14:20:37,9.0
1121.0,-0.015075684,-0.08917236,-0.08422851599999999,0.14503817,2.1450381000000003,-0.96183205,2019-08-05 14:20:37,9.0
1122.0,-0.02545166,-0.08972168,-0.08483887,-1.7938931,1.7633588,-2.1145039,2019-08-05 14:20:37,9.0
1123.0,-0.016418457,-0.095703125,-0.08306885,-2.961832,2.7328243,-4.114504,2019-08-05 14:20:37,9.0
1124.0,-0.022155762,-0.09094238,-0.08770752,-0.48091602,2.7175572,-4.2748094000000005,2019-08-05 14:20:37,9.0
1125.0,-0.008666992,-0.09082031,-0.07507324,1.3053435,3.6564887,-1.6030535,2019-08-05 14:20:37,9.0
1126.0,-0.016784668,-0.08831787,-0.07769775400000001,-0.31297709999999995,2.2671757,-4.1603055,2019-08-05 14:20:37,9.0
1127.0,-0.016052246000000003,-0.08709717,-0.08270264,-1.3053435,1.3664122,-1.6564884999999998,2019-08-05 14:20:37,9.0
1128.0,-0.020080566,-0.08703613,-0.08331299,-0.22900763,2.038168,-2.519084,2019-08-05 14:20:37,9.0
1129.0,-0.014404297,-0.08654785,-0.08135986,2.7251909,2.8396947,-0.740458,2019-08-05 14:20:37,9.0
1130.0,-0.015258788999999997,-0.0947876,-0.08081055,1.389313,4.0992365,-1.8473282,2019-08-05 14:20:37,9.0
1131.0,-0.007873535,-0.08807373,-0.08294678,-1.3435115,2.2671757,-2.9007633,2019-08-05 14:20:37,9.0
1132.0,-0.019348145,-0.09051514,-0.07788086,0.32061067,2.5114503,-2.6946564,2019-08-05 14:20:37,9.0
1133.0,-0.014892578,-0.08862305,-0.07836914,-0.77099234,1.9236641,-2.259542,2019-08-05 14:20:37,9.0
1134.0,-0.018920898,-0.08496094,-0.07855224599999999,-0.045801528,1.6870229,-2.8244274,2019-08-05 14:20:37,9.0
1135.0,-0.01776123,-0.092041016,-0.08074951,0.9694657,1.9007634,-1.7709924,2019-08-05 14:20:37,9.0
1136.0,-0.011291504,-0.09063721,-0.08166504,-1.2137405,1.1526718,-4.183206,2019-08-05 14:20:37,9.0
1137.0,-0.016418457,-0.091430664,-0.08044433599999999,-2.8549619,0.71755725,-1.6412214,2019-08-05 14:20:37,9.0
1138.0,-0.016906738,-0.08538818,-0.08178711,1.2366412,1.9465649,-2.40458,2019-08-05 14:20:37,9.0
1139.0,-0.012268066,-0.09625244,-0.084106445,1.9770992,1.1908396,-0.4427481,2019-08-05 14:20:37,9.0
1140.0,-0.018554688,-0.09387207,-0.07623291,0.17557251,1.9236641,-4.7557254,2019-08-05 14:20:38,9.0
1141.0,-0.008483886999999999,-0.092041016,-0.086120605,-1.351145,1.648855,-2.3053436,2019-08-05 14:20:38,9.0
1142.0,-0.016723633,-0.08953857400000001,-0.087402344,-0.610687,2.5038168,-3.0992367,2019-08-05 14:20:38,9.0
1143.0,-0.014587402,-0.094177246,-0.08300781,-0.07633588,3.2366412,-3.740458,2019-08-05 14:20:38,9.0
1144.0,-0.015380858999999997,-0.089904785,-0.07989502,1.1679389999999998,2.9770992,-0.73282444,2019-08-05 14:20:38,9.0
1145.0,-0.0095825195,-0.0925293,-0.08068848,0.9312977,3.2671757,-1.351145,2019-08-05 14:20:38,9.0
1146.0,-0.016662598,-0.08105469,-0.08764648400000001,0.610687,2.3511450000000003,-2.2748091,2019-08-05 14:20:38,9.0
1147.0,-0.018249512,-0.08972168,-0.07336426,5.2900763,1.221374,-0.053435113,2019-08-05 14:20:38,9.0
1148.0,-0.016906738,-0.0904541,-0.07836914,5.0,1.4045801000000002,0.045801528,2019-08-05 14:20:38,9.0
1149.0,-0.020568848,-0.0927124,-0.08160400400000001,5.183206,1.5877863,-0.6946565,2019-08-05 14:20:38,9.0
1150.0,-0.0138549805,-0.08856201,-0.07800293,2.312977,1.9923664,-2.2137403,2019-08-05 14:20:38,9.0
1151.0,-0.013916016000000002,-0.09051514,-0.07977295,1.7328244,1.8244275,-2.0610688,2019-08-05 14:20:38,9.0
1152.0,-0.010375977,-0.09118652,-0.07836914,1.3969465,0.7633588000000001,-2.908397,2019-08-05 14:20:38,9.0
1153.0,-0.0146484375,-0.09320068,-0.075683594,3.5190839999999994,2.7251909,-0.83206105,2019-08-05 14:20:38,9.0
1154.0,-0.016906738,-0.08813476599999999,-0.08068848,2.9770992,1.0152671,-1.2366412,2019-08-05 14:20:38,9.0
1155.0,-0.017150878999999997,-0.092285156,-0.07653808599999999,0.3816794000000001,1.129771,-2.0839694,2019-08-05 14:20:38,9.0
1156.0,-0.012145996,-0.09112549,-0.08514404,1.1603054,1.9465649,-3.8549619,2019-08-05 14:20:38,9.0
1157.0,-0.011962891000000002,-0.091552734,-0.08001709,2.29771,3.5801528,-3.7099237,2019-08-05 14:20:38,9.0
1158.0,-0.010192871,-0.09484863,-0.07751465,2.1908398,1.389313,-4.908396700000001,2019-08-05 14:20:38,9.0
1159.0,-0.014831543,-0.089782715,-0.08453369,-0.22900763,3.053435,-6.3129773,2019-08-05 14:20:38,9.0
1160.0,-0.007629394499999998,-0.093566895,-0.08563232400000001,1.610687,4.6717559999999985,-5.9389315,2019-08-05 14:20:38,9.0
1161.0,-0.010498047,-0.09008789,-0.07843017599999999,6.236641400000001,4.7938933,-4.5419846,2019-08-05 14:20:38,9.0
1162.0,-0.006225586,-0.08892822,-0.07757568,9.656488,4.7328243,-4.9007635,2019-08-05 14:20:38,9.0
1163.0,-0.00982666,-0.09350586,-0.07611084,7.8244276,4.664122,-4.3893127,2019-08-05 14:20:38,9.0
1164.0,-0.007873535,-0.09197998,-0.07531738,9.755725,7.10687,-4.6488547,2019-08-05 14:20:38,9.0
1165.0,-0.015380858999999997,-0.09173584,-0.07885742,21.87023,3.5419848,-7.625953999999999,2019-08-05 14:20:38,9.0
1166.0,-0.009216309,-0.099609375,-0.07263183599999999,21.267176,6.1297708,-7.4274807,2019-08-05 14:20:38,9.0
1167.0,-0.016296387,-0.095581055,-0.07055664,19.541985,5.183206,-4.29771,2019-08-05 14:20:38,9.0
1168.0,-0.012268066,-0.09686279,-0.07092285,19.862595,5.7099237,-5.885496,2019-08-05 14:20:38,9.0
1169.0,-0.01373291,-0.09442139,-0.07641601599999999,19.045801,7.9923663,-7.7175574,2019-08-05 14:20:38,9.0
1170.0,-0.011779785,-0.099975586,-0.06921387,17.992367,7.7557254,-8.381680000000001,2019-08-05 14:20:38,9.0
1171.0,-0.0068969727,-0.0982666,-0.0680542,20.519083,7.3816795,-8.450381,2019-08-05 14:20:38,9.0
1172.0,-0.0029907227,-0.099487305,-0.07183838,18.664122,7.0229006,-7.9923663,2019-08-05 14:20:38,9.0
1173.0,-0.012145996,-0.11090088,-0.068847656,18.76336,10.297709,-10.396947,2019-08-05 14:20:38,9.0
1174.0,-0.012573242,-0.10241699,-0.064331055,17.725191,11.656488,-11.106871,2019-08-05 14:20:38,9.0
1175.0,-0.007751465,-0.10675049,-0.07104492,11.244275,17.145039,-11.938931,2019-08-05 14:20:39,9.0
1176.0,-0.01184082,-0.103515625,-0.072387695,13.21374,17.877863,-12.748092,2019-08-05 14:20:39,9.0
1177.0,-0.0020141602,-0.09967041,-0.06738281,16.305344,15.343512,-9.80916,2019-08-05 14:20:39,9.0
1178.0,-0.0026855469,-0.105041504,-0.058532715,11.114504,13.480916,-3.5877862,2019-08-05 14:20:39,9.0
1179.0,-0.0064697266000000005,-0.10491943,-0.059143066,4.1297708,11.938931,-0.4274809,2019-08-05 14:20:39,9.0
1180.0,-0.002380371,-0.10699463,-0.049438477,-13.053435,13.496182999999998,1.5114504,2019-08-05 14:20:39,9.0
1181.0,-0.009765625,-0.12261963,-0.05944824200000001,-5.9389315,3.8396947,3.183206,2019-08-05 14:20:39,9.0
1182.0,-0.0146484375,-0.11993408,-0.05621338,-56.48855,7.6870227,10.183207,2019-08-05 14:20:39,9.0
1183.0,-0.012268066,-0.115234375,-0.07312012,-97.19847,16.236639999999998,9.503817,2019-08-05 14:20:39,9.0
1184.0,-0.00579834,-0.08959961,-0.06860351599999999,-97.42748,13.282443,10.458015,2019-08-05 14:20:39,9.0
1185.0,-0.001159668,-0.09979248,-0.07104492,-98.54962,4.5496182,15.633588,2019-08-05 14:20:39,9.0
1186.0,-0.0078125,-0.08758545,-0.09039307,-107.98473,14.572519,24.633587,2019-08-05 14:20:39,9.0
1187.0,-0.0016479492000000002,-0.06286621,-0.10626221,-73.900764,12.297709,6.854962,2019-08-05 14:20:39,9.0
1188.0,0.007629394499999998,-0.06976318,-0.08459473,-6.70229,13.824428,-1.0763359,2019-08-05 14:20:39,9.0
1189.0,0.01373291,-0.076293945,-0.077941895,31.80916,-2.4122138,1.0229008,2019-08-05 14:20:39,9.0
1190.0,0.005065918,-0.08807373,-0.06774902,24.419847,-16.587785999999998,-3.7633588,2019-08-05 14:20:39,9.0
1191.0,-0.008239746,-0.083496094,-0.06982422,9.061069,-21.908398,-6.1679387000000006,2019-08-05 14:20:39,9.0
1192.0,-0.0048828125,-0.08551025400000001,-0.078186035,7.099236500000001,-22.38168,-11.938931,2019-08-05 14:20:39,9.0
1193.0,-0.010620117,-0.08068848,-0.092041016,46.10687,-15.328244,-14.374045,2019-08-05 14:20:39,9.0
1194.0,-0.012145996,-0.10443115,-0.08825683599999999,59.648853,-22.328245000000006,-17.816793,2019-08-05 14:20:39,9.0
1195.0,-0.007629394499999998,-0.07940674,-0.09295654,65.099236,-6.5648856,-16.832062,2019-08-05 14:20:39,9.0
1196.0,-0.018798828,-0.08679199,-0.08435058599999999,85.79389,-15.694656,-18.839695000000006,2019-08-05 14:20:39,9.0
1197.0,0.003112793,-0.09124756,-0.08062744,131.66412,-22.580153,-14.503817000000002,2019-08-05 14:20:39,9.0
1198.0,-0.010925293,-0.09851074,-0.07727051,108.0,-17.236639999999998,-14.053435,2019-08-05 14:20:39,9.0
1199.0,-0.007751465,-0.10058594,-0.06768799,74.0458,-8.465649,-12.541985,2019-08-05 14:20:39,9.0
1200.0,-0.0078125,-0.111694336,-0.064941406,68.16031,-6.3282440000000015,-4.2442746,2019-08-05 14:20:39,9.0
1201.0,-0.014038086000000002,-0.10736084,-0.06378174,89.98473,-3.0152671000000004,-5.076336,2019-08-05 14:20:39,9.0
1202.0,-0.002319336,-0.10601807,-0.04675293,71.83206,0.89312977,-8.908397,2019-08-05 14:20:39,9.0
1203.0,-0.01751709,-0.11010742,-0.041992188,93.25191,-2.1221373,-10.40458,2019-08-05 14:20:39,9.0
1204.0,-0.011108398,-0.11468506,-0.03765869,69.92367,-1.8167939,-11.19084,2019-08-05 14:20:39,9.0
1205.0,-0.016113281,-0.12585449,-0.034240723,80.938934,-5.1984735,-15.862596,2019-08-05 14:20:39,9.0
1206.0,-0.012512207,-0.13275146,-0.034729004,81.42748,-2.129771,-27.045801,2019-08-05 14:20:39,9.0
1207.0,-0.007446289,-0.114868164,-0.03173828,74.19084000000002,-2.29771,-32.198475,2019-08-05 14:20:39,9.0
1208.0,-0.011169434,-0.11151123,-0.011474608999999998,93.15267,1.0229008,-33.541985,2019-08-05 14:20:39,9.0
1209.0,0.0018920898,-0.13256836,-0.006286621,31.328245000000006,18.641222,-32.137405,2019-08-05 14:20:39,9.0
1210.0,0.0065307617,-0.11871338,-0.021240234,93.496185,-1.9694656000000004,-34.87786,2019-08-05 14:20:39,9.0
1211.0,0.013793945,-0.105407715,0.002319336,106.580154,-15.412213,-44.045803,2019-08-05 14:20:40,9.0
1212.0,0.016052246000000003,-0.12072754,0.030700684,139.28243999999998,-27.725191,-42.694656,2019-08-05 14:20:40,9.0
1213.0,0.020507812,-0.114868164,0.013427733999999998,107.51145,-16.480917,-38.580154,2019-08-05 14:20:40,9.0
1214.0,0.019042969,-0.0904541,0.016479492,131.85497,-10.282443,-18.603054,2019-08-05 14:20:40,9.0
1215.0,0.022277832,-0.101867676,0.038208008,159.21375,-20.70229,13.732824,2019-08-05 14:20:40,9.0
1216.0,0.0048828125,-0.12438965,0.08093262,111.099236,-34.206109999999995,11.465649,2019-08-05 14:20:40,9.0
1217.0,0.018188477,-0.11389160000000002,0.005737304699999999,117.71756,-18.503817,7.587786,2019-08-05 14:20:40,9.0
1218.0,-0.010986328,-0.16296387,0.052978516,92.0458,-2.038168,3.1145039,2019-08-05 14:20:40,9.0
1219.0,0.002746582,-0.09881592,0.006652831999999999,-81.47328,13.251907999999998,-3.0992367,2019-08-05 14:20:40,9.0
1220.0,0.0056152344,-0.095581055,0.041625977,162.59541000000004,9.725191,-3.8244274,2019-08-05 14:20:40,9.0
1221.0,0.009460449,-0.13745117,0.08923339999999999,111.73283,11.549619,-9.129771,2019-08-05 14:20:40,9.0
1222.0,-0.017822266,-0.115356445,0.049987793,63.541985,21.709923,-22.42748,2019-08-05 14:20:40,9.0
1223.0,0.018249512,-0.10736084,0.08685303,37.50382000000001,14.847328,-33.053436,2019-08-05 14:20:40,9.0
1224.0,0.007446289,-0.115234375,0.07745361,96.80916,20.465649,-43.038166,2019-08-05 14:20:40,9.0
1225.0,0.012145996,-0.109313965,0.085876465,36.076336,13.19084,-45.816795,2019-08-05 14:20:40,9.0
1226.0,-0.0006713867,-0.10974121,0.07824707,59.52672,16.877863,-49.045803,2019-08-05 14:20:40,9.0
1227.0,0.018127441,-0.115112305,0.10345459,21.740458,20.648855,-54.53435,2019-08-05 14:20:40,9.0
1228.0,0.01586914,-0.107910156,0.080566406,-28.564886,17.335878,-60.69465600000001,2019-08-05 14:20:40,9.0
1229.0,0.028625488,-0.09887695,0.07507324,-20.580153,21.312977,-58.908398,2019-08-05 14:20:40,9.0
1230.0,0.004699707,-0.09472656,0.054626465,-18.633587,11.137404,-40.603054,2019-08-05 14:20:40,9.0
1231.0,-0.002319336,-0.105285645,0.07122803,-24.76336,37.572517,-26.419847,2019-08-05 14:20:40,9.0
1232.0,0.011291504,-0.08831787,0.05029297,-77.8855,43.267174,-23.404581,2019-08-05 14:20:40,9.0
1233.0,-0.0017700195,-0.07733154,0.057800293,-36.992367,48.27481,-12.679389,2019-08-05 14:20:40,9.0
1234.0,0.018493652,-0.061340332,0.078125,-32.862595,60.78626,-8.977099,2019-08-05 14:20:40,9.0
1235.0,0.025939941,-0.06707764,0.08306885,-20.007633,55.564884,3.4198472,2019-08-05 14:20:40,9.0
1236.0,0.0007934570299999999,-0.088378906,0.08148193,-5.9007635,49.709923,10.412213,2019-08-05 14:20:40,9.0
1237.0,0.011962891000000002,-0.08001709,0.08703613,-17.183207,48.85496,6.8320613,2019-08-05 14:20:40,9.0
1238.0,0.013183594,-0.08435058599999999,0.09631348,37.65649000000001,46.64122,6.0229006,2019-08-05 14:20:40,9.0
1239.0,0.026000977,-0.08886719,0.108947754,35.51145,37.778625,4.3511453,2019-08-05 14:20:40,9.0
1240.0,0.024597168,-0.11907959,0.12182617,55.007633,43.29771,3.9847329,2019-08-05 14:20:40,9.0
1241.0,0.022521973,-0.09448242,0.099487305,-64.0687,-59.900764,-15.816793,2019-08-05 14:20:40,9.0
1242.0,0.00048828125,-0.098083496,0.12591553,-3.8931298,14.61832,-8.251908,2019-08-05 14:20:40,9.0
1243.0,0.0048828125,-0.097595215,0.05609131,-55.580154,-5.0534352999999985,-11.2213745,2019-08-05 14:20:40,9.0
1244.0,-0.014587402,-0.10772705,0.083496094,-23.946566,1.8396946,3.534351,2019-08-05 14:20:40,9.0
1245.0,0.007568359399999999,-0.11273193,0.08050537,-112.816795,11.534351,8.297709,2019-08-05 14:20:40,9.0
1246.0,0.0043945312,-0.09503174,0.06341553,-101.55725,4.396946400000001,18.351145,2019-08-05 14:20:40,9.0
1247.0,0.017150878999999997,-0.09362793,0.06561279,-90.03817,0.96183205,20.526718,2019-08-05 14:20:41,9.0
1248.0,0.015014648,-0.11834717,0.07348633,-61.732826,-7.900763499999999,18.656488,2019-08-05 14:20:41,9.0
1249.0,-0.00018310547,-0.10595703,0.045654297,-58.129772,-8.343511999999999,19.351145,2019-08-05 14:20:41,9.0
1250.0,-0.00048828125,-0.12487793,0.0513916,-29.770992,-12.503817,12.664123,2019-08-05 14:20:41,9.0
1251.0,-0.0037231445,-0.11828613,0.043701172,-48.221375,-5.740458,11.4198475,2019-08-05 14:20:41,9.0
1252.0,-0.013000488,-0.11920166,0.03942871,-31.717558,-6.2442746,8.480916,2019-08-05 14:20:41,9.0
1253.0,0.0052490234,-0.12084961,0.04119873,-29.633587,-1.9770992,2.0076337,2019-08-05 14:20:41,9.0
1254.0,-0.0087890625,-0.113098145,0.04296875,-21.007633,-1.5038168,0.9389313,2019-08-05 14:20:41,9.0
1255.0,-0.0073242188,-0.11657715,0.0513916,-21.122137,2.9007633,0.18320611,2019-08-05 14:20:41,9.0
1256.0,0.0036621094,-0.11383057,0.043640137,-19.335878,2.9923663,-1.4656489,2019-08-05 14:20:41,9.0
1257.0,0.0017700195,-0.12017822,0.045715332,-10.694656,4.0610685,0.15267175,2019-08-05 14:20:41,9.0
1258.0,0.0025024414000000004,-0.12670898,0.03552246,-13.832060999999998,4.412214,-0.259542,2019-08-05 14:20:41,9.0
1259.0,0.0032958984000000004,-0.11480713,0.038757324,-12.0,5.1603055,0.22137405,2019-08-05 14:20:41,9.0
1260.0,-0.0028686523,-0.11846924,0.035217285,-2.091603,2.0458016,0.86259544,2019-08-05 14:20:41,9.0
1261.0,-0.005493164,-0.121398926,0.0357666,-4.3282440000000015,2.8854961,-1.5801526,2019-08-05 14:20:41,9.0
1262.0,-0.010986328,-0.11706543,0.046020508,3.6030533,2.8473282,0.38931298,2019-08-05 14:20:41,9.0
1263.0,-0.0119018555,-0.11907959,0.038146973,-4.0610685,3.3206108,-0.6870229,2019-08-05 14:20:41,9.0
1264.0,-0.006591797,-0.11779785,0.042541504,9.847328,2.5954200000000003,-0.4427481,2019-08-05 14:20:41,9.0
1265.0,-0.012878418,-0.11419678,0.041992188,12.206107,3.7633588,-3.1603053,2019-08-05 14:20:41,9.0
1266.0,-0.003112793,-0.12414551,0.037597656,28.923664,2.221374,-3.610687,2019-08-05 14:20:41,9.0
1267.0,-0.009399414,-0.12475586,0.04827881,16.167938,1.1679389999999998,-5.0076337,2019-08-05 14:20:41,9.0
1268.0,0.0007324219,-0.12475586,0.043884277,2.167939,-0.5038168,-3.8396947,2019-08-05 14:20:41,9.0
1269.0,0.0049438477,-0.11468506,0.042785645,-7.8778625,-2.6183207000000004,-3.7328243,2019-08-05 14:20:41,9.0
1270.0,0.0016479492000000002,-0.11413574,0.041381836,-11.679389,-3.8396947,-2.2290077,2019-08-05 14:20:41,9.0
1271.0,0.0049438477,-0.123168945,0.04284668,-9.297709,-0.10687023,-0.99236643,2019-08-05 14:20:41,9.0
1272.0,0.0024414062,-0.11694336,0.03869629,-13.488549,-0.52671754,-3.1145039,2019-08-05 14:20:41,9.0
1273.0,-0.0005493164,-0.11645508,0.038085938,-5.145038,-0.19083970000000006,-2.7175572,2019-08-05 14:20:41,9.0
1274.0,-0.0028076172,-0.11651611,0.043273926,-4.1755724,0.061068702,-1.6641221000000002,2019-08-05 14:20:41,9.0
1275.0,-0.006225586,-0.12176514,0.039123535,-3.038168,0.58778626,-2.5419848,2019-08-05 14:20:41,9.0
1276.0,-0.0043945312,-0.117248535,0.032714844,4.6488547,0.8091603,-3.1984732000000005,2019-08-05 14:20:41,9.0
1277.0,-0.0031738281,-0.124572754,0.04425049,5.4274807,0.519084,-3.557252,2019-08-05 14:20:41,9.0
1278.0,0.0068969727,-0.12762451,0.03741455,2.465649,1.5267175,-3.3969467000000004,2019-08-05 14:20:41,9.0
1279.0,0.0028686523,-0.12860107,0.031677246,-1.0458015,0.519084,-2.3664122000000005,2019-08-05 14:20:41,9.0
1280.0,0.004760742,-0.123168945,0.039245605,0.60305345,0.86259544,-2.1755726,2019-08-05 14:20:41,9.0
1281.0,-0.0016479492000000002,-0.12097168,0.039245605,3.8778627,0.22137405,-2.053435,2019-08-05 14:20:42,9.0
1282.0,-0.0036621094,-0.12927246,0.039123535,0.46564886,0.045801528,-0.3816794000000001,2019-08-05 14:20:42,9.0
1283.0,-0.00390625,-0.12133789,0.037719727,-1.8931298,1.4122137,-3.5648854,2019-08-05 14:20:42,9.0
1284.0,0.005554199,-0.1171875,0.036987305,0.14503817,0.9694657,-5.5725193,2019-08-05 14:20:42,9.0
1285.0,0.0006103515599999999,-0.11981201,0.03717041,1.4198474,1.1221374,-2.3587787,2019-08-05 14:20:42,9.0
1286.0,0.0032348633000000003,-0.117004395,0.036987305,1.1145039,3.534351,-2.687023,2019-08-05 14:20:42,9.0
1287.0,-0.00579834,-0.12225342,0.04345703,2.2671757,1.5267175,-3.4198472,2019-08-05 14:20:42,9.0
1288.0,-0.0053710938,-0.123168945,0.042175293,4.778626,1.3129771,-2.7862597,2019-08-05 14:20:42,9.0
1289.0,-0.0024414062,-0.11846924,0.03656006,1.5801526,1.3282443000000002,-2.908397,2019-08-05 14:20:42,9.0
1290.0,0.0037231445,-0.12615967,0.03869629,-3.9541984,3.0839694,-1.7099236,2019-08-05 14:20:42,9.0
1291.0,-0.0014648438,-0.118652344,0.039855957,-2.442748,1.1145039,-1.9236641,2019-08-05 14:20:42,9.0
1292.0,-0.00018310547,-0.12438965,0.038879395,-1.5801526,0.8854962,-3.5496182000000003,2019-08-05 14:20:42,9.0
1293.0,0.0051879883,-0.12072754,0.036743164,-1.5267175,1.9923664,-1.1908396,2019-08-05 14:20:42,9.0
1294.0,-0.007019043000000001,-0.12884521,0.03363037,-1.610687,2.5267177000000003,-1.4351145,2019-08-05 14:20:42,9.0
1295.0,-0.0014648438,-0.121520996,0.03753662,1.0229008,2.312977,-3.778626,2019-08-05 14:20:42,9.0
1296.0,-0.0015258789,-0.11773682,0.036193848,0.053435113,3.259542,-2.4122138,2019-08-05 14:20:42,9.0
1297.0,0.0008544922000000001,-0.11907959,0.031799316,2.129771,2.3206108,-2.3740458,2019-08-05 14:20:42,9.0
1298.0,-0.00048828125,-0.12231445,0.040771484,-1.0839695,1.5496184,-2.2366412,2019-08-05 14:20:42,9.0
1299.0,-0.0041503906,-0.12176514,0.046325684000000006,-0.67175573,2.1221373,-3.2366412,2019-08-05 14:20:42,9.0
1300.0,-0.0043945312,-0.11437988,0.03845215,1.9160305,0.07633588,-1.9007634,2019-08-05 14:20:42,9.0
1301.0,-0.010925293,-0.12445068,0.04095459,-1.961832,2.5801528,-2.1068702,2019-08-05 14:20:42,9.0
1302.0,-0.008972168,-0.115112305,0.04144287,-0.8244275,0.21374045,-2.206107,2019-08-05 14:20:42,9.0
1303.0,0.009033203,-0.12097168,0.037902832,0.4274809,0.9694657,-1.8091604,2019-08-05 14:20:42,9.0
1304.0,-0.007690429699999998,-0.11431885,0.040527344,-1.351145,0.7099236999999999,-2.0992367,2019-08-05 14:20:42,9.0
1305.0,-0.008483886999999999,-0.125,0.040283203,0.099236645,2.8549619,-3.2748091,2019-08-05 14:20:42,9.0
1306.0,-0.0017700195,-0.11871338,0.0435791,0.53435117,1.3740458,-2.2290077,2019-08-05 14:20:42,9.0
1307.0,-0.002319336,-0.121154785,0.045410155999999986,-0.58778626,1.5267175,-3.29771,2019-08-05 14:20:42,9.0
1308.0,-0.009887695,-0.12634277,0.032409668,-0.46564886,2.427481,-1.5954198999999998,2019-08-05 14:20:42,9.0
1309.0,-0.0016479492000000002,-0.121154785,0.036865234,0.4351145000000001,1.038168,-0.114503816,2019-08-05 14:20:42,9.0
1310.0,0.0014038086,-0.12030029,0.03552246,0.7099236999999999,1.2748091,-1.9770992,2019-08-05 14:20:42,9.0
1311.0,-0.006591797,-0.118896484,0.044555664,-1.0152671,2.6259542,-3.6793892,2019-08-05 14:20:42,9.0
1312.0,-0.003967285,-0.11755371,0.039733887,1.0534351,2.1603053,-2.427481,2019-08-05 14:20:42,9.0
1313.0,0.0,-0.12261963,0.039367676,-1.4274809,1.4580153,-3.4122138,2019-08-05 14:20:42,9.0
1314.0,-0.009155273,-0.119384766,0.041870117000000005,4.6946564,0.9236641,-2.7633588,2019-08-05 14:20:42,9.0
1315.0,-0.0021362305,-0.123291016,0.041809082,-1.70229,3.4885497,-1.7709924,2019-08-05 14:20:42,9.0
1316.0,-0.007629394499999998,-0.119262695,0.03942871,-1.5496184,1.5954198999999998,-2.4580152,2019-08-05 14:20:42,9.0
