measurement,Acc_X,Acc_Y,Acc_Z,Gyr_X,Gyr_Y,Gyr_Z,Time(hh:mm:ss),Label
0.0,0.12072754,0.049560547,-0.02319336,-44.946564,-0.77862597,28.282442,2019-08-19 11:23:44,10.0
1.0,0.11883545,0.04925537,-0.018493652,-41.206109999999995,-0.114503816,24.740458,2019-08-19 11:23:44,10.0
2.0,0.11462402,0.05493164,-0.025695799999999998,-37.83206,5.1755724,22.312977,2019-08-19 11:23:44,10.0
3.0,0.115234375,0.048461914,-0.020446777,-29.564885999999998,6.671755999999999,19.57252,2019-08-19 11:23:44,10.0
4.0,0.11755371,0.053649902,-0.030578612999999998,-25.053434,7.0534353,13.908397,2019-08-19 11:23:44,10.0
5.0,0.115722656,0.05303955,-0.028686523,-17.824427,6.4580154,7.259542,2019-08-19 11:23:44,10.0
6.0,0.11639404,0.051818848,-0.030273438,-16.290077,1.4732825,3.7633588,2019-08-19 11:23:44,10.0
7.0,0.12011719,0.04071045,-0.026672362999999998,-21.351145000000002,-0.8015267,0.54198474,2019-08-19 11:23:44,10.0
8.0,0.12280273400000001,0.05041504,-0.034057617000000005,-21.641222,-3.9007633000000004,-1.7786259999999998,2019-08-19 11:23:44,10.0
9.0,0.12268066400000001,0.04638672,-0.02758789,-21.122137,-6.183206,-2.908397,2019-08-19 11:23:44,10.0
10.0,0.1295166,0.044189453,-0.033996582000000004,-18.0,-7.534351299999999,-6.038168,2019-08-19 11:23:44,10.0
11.0,0.12359619,0.043884277,-0.033996582000000004,-10.297709,-5.931298,-8.206107000000001,2019-08-19 11:23:44,10.0
12.0,0.12738037,0.043823242000000005,-0.025390625,-6.259542,-6.4198474999999995,-7.59542,2019-08-19 11:23:44,10.0
13.0,0.12561035,0.046081542999999996,-0.022399902000000003,0.65648854,-5.8702292,-8.290076,2019-08-19 11:23:44,10.0
14.0,0.12573242,0.040771484,-0.026062012000000002,-0.38931298,-6.59542,-7.2442746,2019-08-19 11:23:44,10.0
15.0,0.12573242,0.033813477,-0.025939941,1.648855,-4.091603299999999,-5.740458,2019-08-19 11:23:44,10.0
16.0,0.13085938,0.040222167999999996,-0.026733398,7.4198475,-3.7328242999999994,-3.40458,2019-08-19 11:23:44,10.0
17.0,0.12792969,0.038879395,-0.022888184,6.6946563999999995,-2.427481,-1.1984733,2019-08-19 11:23:44,10.0
18.0,0.12371826,0.03277588,-0.024291992000000002,7.259542,-3.8854961,3.0305343,2019-08-19 11:23:44,10.0
19.0,0.12780762,0.035583496,-0.024291992000000002,3.0687022,-4.3893127,1.961832,2019-08-19 11:23:44,10.0
20.0,0.12109375,0.038269042999999996,-0.025695799999999998,-1.4656489,-7.480916000000001,3.4351146,2019-08-19 11:23:44,10.0
21.0,0.12084961,0.030639648,-0.020874023000000002,-5.1297708,-9.442748,3.1145039,2019-08-19 11:23:44,10.0
22.0,0.12066650400000001,0.039855957000000004,-0.024475097999999997,-12.885496,-14.412213000000001,1.0076336,2019-08-19 11:23:44,10.0
23.0,0.12469482400000001,0.038391113,-0.019897461,-18.809160000000002,-14.854961,-2.1374047000000003,2019-08-19 11:23:44,10.0
24.0,0.12573242,0.03125,-0.012756348,-24.603054,-16.007633,-5.923664,2019-08-19 11:23:44,10.0
25.0,0.11212158,0.034973145,-0.011291503999999999,-28.412214000000002,-13.38168,-5.8320612999999994,2019-08-19 11:23:44,10.0
26.0,0.11303711,0.039001465,-0.016113281,-26.900763,-6.145038,-4.1755724,2019-08-19 11:23:44,10.0
27.0,0.11242676,0.03967285,-0.01361084,-8.908397,0.6488550000000001,-0.32061067,2019-08-19 11:23:44,10.0
28.0,0.12048339999999998,0.03186035,-0.021972656,6.374046,7.221374000000001,5.1984735,2019-08-19 11:23:44,10.0
29.0,0.11590576,0.031677246,-0.022460938,9.732824,13.488548999999999,12.381680000000001,2019-08-19 11:23:44,10.0
30.0,0.12109375,0.03253174,-0.020751953,4.374046,13.450381,16.190839999999998,2019-08-19 11:23:44,10.0
31.0,0.11798096,0.03564453,-0.026306152000000003,-1.8702290000000001,13.244275,15.732823999999999,2019-08-19 11:23:44,10.0
32.0,0.12835693,0.040771484,-0.024719237999999998,-11.572519,10.564885,17.091601999999998,2019-08-19 11:23:45,10.0
33.0,0.12780762,0.045715332000000004,-0.024780273,-15.511451000000001,12.954199000000001,18.267176,2019-08-19 11:23:45,10.0
34.0,0.12902832,0.044799805,-0.020385742,-12.770992,11.053435,16.519083,2019-08-19 11:23:45,10.0
35.0,0.12628174,0.041015625,-0.020629883,-21.923664000000002,12.595419999999999,15.007632999999998,2019-08-19 11:23:45,10.0
36.0,0.12579346,0.043945312,-0.023803711,-16.435114000000002,12.755725,11.702291,2019-08-19 11:23:45,10.0
37.0,0.12426758,0.04699707,-0.026123047000000003,-10.755725,12.610686999999999,6.4274807,2019-08-19 11:23:45,10.0
38.0,0.11376953,0.049194336,-0.02545166,-6.557252,12.374044999999999,4.038168,2019-08-19 11:23:45,10.0
39.0,0.11431885,0.049682617000000005,-0.03173828,-3.59542,14.366412,2.870229,2019-08-19 11:23:45,10.0
40.0,0.11254883,0.04443359400000001,-0.030334472999999997,2.0152671000000004,14.259541500000001,0.8015267,2019-08-19 11:23:45,10.0
41.0,0.10455322,0.050354004,-0.024597168,8.007633,14.053435,-3.076336,2019-08-19 11:23:45,10.0
42.0,0.1104126,0.049072265999999996,-0.02319336,13.977098999999999,13.519084,-0.96183205,2019-08-19 11:23:45,10.0
43.0,0.09698486,0.039611816,-0.026000977,16.091601999999998,6.9465647,-2.5954200000000003,2019-08-19 11:23:45,10.0
44.0,0.10620117,0.04736328,-0.024108887000000002,7.793893300000001,5.633588,-4.1984735,2019-08-19 11:23:45,10.0
45.0,0.1149292,0.047729492000000005,-0.022155762000000002,13.022901,2.9389312000000003,-5.038168,2019-08-19 11:23:45,10.0
46.0,0.12640381,0.05230713,-0.026062012000000002,-0.84732825,-4.412214,-9.030535,2019-08-19 11:23:45,10.0
47.0,0.13531494,0.047546387,-0.024169922000000003,-10.045800999999999,-10.427481,-17.832062,2019-08-19 11:23:45,10.0
48.0,0.12371826,0.054992676,-0.01965332,-8.816792999999999,-12.488549,-30.259542,2019-08-19 11:23:45,10.0
49.0,0.1227417,0.04925537,-0.016235351999999998,3.3587787000000002,-6.5038165999999995,-35.725190000000005,2019-08-19 11:23:45,10.0
50.0,0.1083374,0.04272461,-0.028503418,21.38168,-1.9923664,-37.328243,2019-08-19 11:23:45,10.0
51.0,0.10272217,0.039978027,-0.022949219,42.770992,3.038168,-35.10687,2019-08-19 11:23:45,10.0
52.0,0.11096191400000001,0.038208007999999995,-0.020263672,46.954197,8.648855000000001,-27.442749,2019-08-19 11:23:45,10.0
53.0,0.11505127,0.03729248,-0.01776123,52.335876,12.267176,-16.160304999999997,2019-08-19 11:23:45,10.0
54.0,0.11047363,0.02911377,-0.020141601999999998,47.923664,12.656488000000001,-5.480916000000001,2019-08-19 11:23:45,10.0
55.0,0.11108398400000001,0.03918457,-0.022827148,42.74046,12.541985,0.9541985000000001,2019-08-19 11:23:45,10.0
56.0,0.10809326,0.040893555,-0.020080566,46.801525,20.473282,7.3053436000000005,2019-08-19 11:23:45,10.0
57.0,0.097473145,0.04626465,-0.026367188,63.351147,24.328245000000003,8.465649,2019-08-19 11:23:45,10.0
58.0,0.09527588,0.044616699999999995,-0.024536132999999998,61.84733000000001,26.38168,9.320611,2019-08-19 11:23:45,10.0
59.0,0.11206055,0.04260254,-0.023132324,85.19084000000001,25.38168,11.007633,2019-08-19 11:23:45,10.0
60.0,0.12310791,0.03704834,-0.020141601999999998,91.70229,32.618320000000004,21.786259,2019-08-19 11:23:45,10.0
61.0,0.12615967,0.043029785,-0.014160156,78.70229,34.16794,29.053434000000003,2019-08-19 11:23:45,10.0
62.0,0.14379883,0.057250977,-0.016174316,64.778625,35.900764,30.847328000000005,2019-08-19 11:23:45,10.0
63.0,0.13165283,0.05279541,-0.018127441,59.320609999999995,44.793890000000005,32.389313,2019-08-19 11:23:45,10.0
64.0,0.13311768,0.060913086,-0.015930176,89.03817,53.389313,31.992366999999998,2019-08-19 11:23:45,10.0
65.0,0.12902832,0.06201172,-0.012512207,106.63358999999998,60.984733999999996,26.099237,2019-08-19 11:23:45,10.0
66.0,0.13165283,0.061462402,-0.0087890625,132.0,64.458015,18.748089999999998,2019-08-19 11:23:45,10.0
67.0,0.14031982,0.053955078,-0.0041503906,161.41985,71.75572,15.625955,2019-08-19 11:23:45,10.0
68.0,0.12774658,0.050720215,-0.0099487305,169.05344,73.145035,12.106871,2019-08-19 11:23:46,10.0
69.0,0.12554932,0.047302246,-0.005004883,172.51908999999998,68.20611,11.412213000000001,2019-08-19 11:23:46,10.0
70.0,0.11376953,0.036132812,-0.003540039,166.16794,55.396946,10.946565,2019-08-19 11:23:46,10.0
71.0,0.11657715,0.036865234,-0.0036010741999999997,140.59541000000002,37.496179999999995,12.923664,2019-08-19 11:23:46,10.0
72.0,0.12908936,0.035217285,-0.008300781,103.061066,19.809160000000002,8.450381,2019-08-19 11:23:46,10.0
73.0,0.13055419999999998,0.031799316,0.0038452148,63.648853,-4.366412,3.778626,2019-08-19 11:23:46,10.0
74.0,0.12994385,0.042663574,0.0015869141,21.603054,-17.221375,-7.465648700000001,2019-08-19 11:23:46,10.0
75.0,0.12982178,0.04144287,-0.0014038085999999999,0.89312977,-27.87023,-16.587785999999998,2019-08-19 11:23:46,10.0
76.0,0.12792969,0.04296875,0.0006713867,9.625955000000001,-33.15267,-25.045801,2019-08-19 11:23:46,10.0
77.0,0.12329101599999999,0.038208007999999995,0.00042724610000000003,15.908397,-24.603054,-31.022902000000002,2019-08-19 11:23:46,10.0
78.0,0.12841797,0.030212402000000003,-0.0006713867,32.572517,-24.954199,-31.862595000000002,2019-08-19 11:23:46,10.0
79.0,0.12017822,0.027832031,0.00030517577999999995,40.44275,-22.625954,-27.167938,2019-08-19 11:23:46,10.0
80.0,0.12994385,0.030456543,-0.0034179688000000002,36.0,-17.435114000000002,-22.007633,2019-08-19 11:23:46,10.0
81.0,0.121154785,0.032836914,-0.0022583008,35.748093,-12.816792999999999,-13.007633,2019-08-19 11:23:46,10.0
82.0,0.12170410000000002,0.031433105,-0.006652831999999999,33.603054,-13.732823999999999,-5.5725193,2019-08-19 11:23:46,10.0
83.0,0.122924805,0.032592773,-0.0067749023,22.687023,-13.748092000000002,-0.5648854999999999,2019-08-19 11:23:46,10.0
84.0,0.14117432,0.034606934,-0.0087890625,16.167938,-10.633588,1.8167938999999997,2019-08-19 11:23:46,10.0
85.0,0.13879395,0.041931152,-0.015319824,16.900763,-5.1221375,1.961832,2019-08-19 11:23:46,10.0
86.0,0.11798096,0.033447266,-0.019714355,23.648854999999998,-3.3358779999999997,-4.076336,2019-08-19 11:23:46,10.0
87.0,0.115722656,0.034240723,-0.023620605,14.465648999999999,4.152672,-13.007633,2019-08-19 11:23:46,10.0
88.0,0.12738037,0.03729248,-0.028564452999999997,20.824427,9.374044999999999,-14.610686999999999,2019-08-19 11:23:46,10.0
89.0,0.13024902,0.03656006,-0.03125,64.0229,14.557251999999998,-11.732824,2019-08-19 11:23:46,10.0
90.0,0.13189697,0.032287598,-0.033935547,75.46565,24.717558,-8.450381,2019-08-19 11:23:46,10.0
91.0,0.119628906,0.021972656,-0.03564453,76.39695,17.404581,-14.320610999999998,2019-08-19 11:23:46,10.0
92.0,0.123046875,0.01574707,-0.03704834,63.961833999999996,12.526717,-22.832062,2019-08-19 11:23:46,10.0
93.0,0.12042236,0.025024414,-0.037902832000000004,48.0,9.068703,-26.687022999999996,2019-08-19 11:23:46,10.0
94.0,0.12408447,0.013366699,-0.036743164,52.06107,1.2900764,-29.099237,2019-08-19 11:23:46,10.0
95.0,0.13018799,0.026367188,-0.031982422,53.84733000000001,-2.9541984,-32.160305,2019-08-19 11:23:46,10.0
96.0,0.11541748,0.029174805,-0.029846191,50.687022999999996,-3.091603,-32.51145,2019-08-19 11:23:46,10.0
97.0,0.121276855,0.020507812,-0.033081055,53.16030500000001,2.1603053,-32.404579999999996,2019-08-19 11:23:46,10.0
98.0,0.11663818,0.027709961,-0.038146973,57.885498,7.9541984,-31.534351,2019-08-19 11:23:46,10.0
99.0,0.12780762,0.032165527,-0.03552246,65.80915999999999,6.7328243,-29.076335999999998,2019-08-19 11:23:46,10.0
100.0,0.12030029,0.024841309,-0.03918457,73.183205,5.9160304,-28.32061,2019-08-19 11:23:46,10.0
101.0,0.119018555,0.021240234,-0.03778076,66.900764,6.603053599999999,-24.0,2019-08-19 11:23:46,10.0
102.0,0.11254883,0.024780273,-0.035217285,64.19847,5.3511453,-19.564885999999998,2019-08-19 11:23:46,10.0
103.0,0.115722656,0.023071289,-0.041015625,58.32824300000001,8.572519,-15.862596,2019-08-19 11:23:47,10.0
104.0,0.11108398400000001,0.028869628999999997,-0.040527344,53.206109999999995,12.732824,-12.122137,2019-08-19 11:23:47,10.0
105.0,0.11230469,0.028259277000000003,-0.044799805,55.900764,13.083969,-11.862596,2019-08-19 11:23:47,10.0
106.0,0.107421875,0.022766112999999998,-0.043701172,46.83206,11.595419999999999,-10.885496,2019-08-19 11:23:47,10.0
107.0,0.11596680000000001,0.029846191,-0.04510498,45.389313,11.206107000000001,-6.183206,2019-08-19 11:23:47,10.0
108.0,0.10888672,0.026184082,-0.040039062,49.480915,11.351144999999999,-3.7480917000000002,2019-08-19 11:23:47,10.0
109.0,0.11291504,0.02935791,-0.046691895,38.961834,9.770992,-1.9770991999999998,2019-08-19 11:23:47,10.0
110.0,0.10650635,0.028564452999999997,-0.04901123,24.0,7.9541984,-3.7251909,2019-08-19 11:23:47,10.0
111.0,0.10809326,0.026123047000000003,-0.046936035,7.40458,9.427481,-3.076336,2019-08-19 11:23:47,10.0
112.0,0.10601807,0.028930664,-0.05053711,1.8015267,13.923664000000002,-0.8396947,2019-08-19 11:23:47,10.0
113.0,0.10870361,0.036254882999999995,-0.04559326,5.366412,21.671754999999997,4.1297708,2019-08-19 11:23:47,10.0
114.0,0.10968017599999999,0.030822753999999997,-0.053344727,17.190839999999998,28.847328000000005,7.9389315,2019-08-19 11:23:47,10.0
115.0,0.12072754,0.033081055,-0.053833007999999995,22.832062,25.91603,8.969465,2019-08-19 11:23:47,10.0
116.0,0.12506104,0.028747559,-0.04699707,18.068703,25.755726,11.977099,2019-08-19 11:23:47,10.0
117.0,0.12133789,0.028503418,-0.04534912,7.10687,22.503817,9.801527,2019-08-19 11:23:47,10.0
118.0,0.13360596,0.022766112999999998,-0.048217773,-4.923664,20.946566,4.1221375,2019-08-19 11:23:47,10.0
119.0,0.14099121,0.025817871000000003,-0.04345703,-15.908397,19.08397,0.26717559,2019-08-19 11:23:47,10.0
120.0,0.15307617,0.03729248,-0.043945312,-27.213741,16.549618,0.48091602,2019-08-19 11:23:47,10.0
121.0,0.13427734,0.030639648,-0.04083252,-23.57252,14.534351000000001,-5.5419846,2019-08-19 11:23:47,10.0
122.0,0.13989258,0.02960205,-0.035949707000000004,-41.709922999999996,11.839694999999999,-5.3816795,2019-08-19 11:23:47,10.0
123.0,0.152771,0.028930664,-0.041320800000000005,-43.0229,2.0229008,-8.114504,2019-08-19 11:23:47,10.0
124.0,0.14526367,0.0357666,-0.04156494,-35.618320000000004,-6.839694500000001,-11.183207000000001,2019-08-19 11:23:47,10.0
125.0,0.12408447,0.045715332000000004,-0.038146973,-20.320610000000002,-15.725191,-15.328244,2019-08-19 11:23:47,10.0
126.0,0.12634277,0.03540039,-0.030822753999999997,-0.60305345,-28.007633000000002,-17.847328,2019-08-19 11:23:47,10.0
127.0,0.12554932,0.02947998,-0.030395507999999998,1.0687023,-42.396946,-16.015266,2019-08-19 11:23:47,10.0
128.0,0.12860107,0.02935791,-0.025390625,-9.145039,-51.603054,-14.175572,2019-08-19 11:23:47,10.0
129.0,0.12060547,0.024963378999999997,-0.020507812,-43.21374,-61.793890000000005,-10.870229,2019-08-19 11:23:47,10.0
130.0,0.11187744,0.028076172000000003,-0.016662598,-62.916030000000006,-61.435116,-12.633588,2019-08-19 11:23:47,10.0
131.0,0.10467529,0.023132324,-0.028015137000000002,-57.732826,-54.725190000000005,-11.381680000000001,2019-08-19 11:23:47,10.0
132.0,0.10589599599999999,0.02532959,-0.028015137000000002,-56.656490000000005,-43.679390000000005,-2.0992367,2019-08-19 11:23:47,10.0
133.0,0.10595703,0.022216797000000003,-0.03527832,-32.595420000000004,-34.48855,13.007633,2019-08-19 11:23:47,10.0
134.0,0.10168457,0.025512695,-0.036193848,-24.656488,-21.610687,26.732824,2019-08-19 11:23:47,10.0
135.0,0.09741211,0.026672362999999998,-0.032043457000000004,-32.091602,-12.7786255,37.816795,2019-08-19 11:23:47,10.0
136.0,0.10644531,0.020507812,-0.03778076,-30.824427000000004,-11.496183,45.91603,2019-08-19 11:23:47,10.0
137.0,0.10797119,0.023925781,-0.043518065999999994,-45.183205,-7.1755724,49.16794,2019-08-19 11:23:47,10.0
138.0,0.11071777,0.023925781,-0.03161621,-72.70229,-12.2595415,47.946564,2019-08-19 11:23:47,10.0
139.0,0.11364746,0.026000977,-0.03253174,-97.76335999999999,-18.48855,47.923664,2019-08-19 11:23:47,10.0
140.0,0.1182251,0.0178833,-0.026916503999999997,-111.55725,-18.137404999999998,46.44275,2019-08-19 11:23:48,10.0
141.0,0.12921143,0.022338867000000002,-0.018066406,-130.94656,-19.87023,47.396946,2019-08-19 11:23:48,10.0
142.0,0.13494873,0.024475097999999997,-0.024108887000000002,-139.2519,-19.030535,48.541985,2019-08-19 11:23:48,10.0
143.0,0.15502929999999998,0.03692627,-0.012145996000000001,-148.15266,-13.977098999999999,55.908398,2019-08-19 11:23:48,10.0
144.0,0.17834473,0.045532227,-0.011047363000000001,-142.05344,-12.938931,58.335876,2019-08-19 11:23:48,10.0
145.0,0.14764404,0.046447754,-0.031433105,-84.72519,-7.8015265,53.038166000000004,2019-08-19 11:23:48,10.0
146.0,0.14642334,0.04248047,-0.03704834,-93.39695,24.412214000000002,65.0229,2019-08-19 11:23:48,10.0
147.0,0.12823486,0.030334472999999997,-0.012145996000000001,-81.96183,4.053435299999999,56.068703,2019-08-19 11:23:48,10.0
148.0,0.12023926,0.039733887,-0.020141601999999998,-85.908394,-31.564885999999998,41.351147,2019-08-19 11:23:48,10.0
149.0,0.12023926,0.040283203,-0.018859863,-91.44275,-31.221375,27.732824,2019-08-19 11:23:48,10.0
150.0,0.12634277,0.03338623,-0.0095825195,-91.89313,-38.06107,23.51145,2019-08-19 11:23:48,10.0
151.0,0.12365723,0.021118164,-0.0034790040000000004,-85.74045600000001,-48.91603,13.862596,2019-08-19 11:23:48,10.0
152.0,0.10687256,0.018249512,0.001159668,-107.69466000000001,-50.396946,9.946565,2019-08-19 11:23:48,10.0
153.0,0.09613037,0.020263672,-0.015563965,-115.35113999999999,-41.0,9.007633,2019-08-19 11:23:48,10.0
154.0,0.09143066400000001,0.02532959,-0.0072631836,-127.42748,-26.57252,16.10687,2019-08-19 11:23:48,10.0
155.0,0.08898926,0.03173828,-0.013183594,-108.15267,-24.229008,21.259542,2019-08-19 11:23:48,10.0
156.0,0.099609375,0.03137207,-0.009338379,-84.10687,-17.824427,29.740458,2019-08-19 11:23:48,10.0
157.0,0.10723877,0.032165527,-0.016601562,-64.9771,-5.633588,32.099236,2019-08-19 11:23:48,10.0
158.0,0.09527588,0.030273438,-0.022216797000000003,-55.549618,9.916031,34.74046,2019-08-19 11:23:48,10.0
159.0,0.10437012,0.03173828,-0.02319336,-65.05344000000001,12.442748,38.564884,2019-08-19 11:23:48,10.0
160.0,0.11920166,0.025024414,-0.0154418945,-75.74809,5.40458,33.961834,2019-08-19 11:23:48,10.0
161.0,0.13677979,0.030395507999999998,-0.008850098,-91.41984599999999,-15.557251999999998,33.519085,2019-08-19 11:23:48,10.0
162.0,0.17346191,0.040527344,-0.009460449000000001,-81.12214,-20.51145,41.343509999999995,2019-08-19 11:23:48,10.0
163.0,0.15820312,0.028808594,-0.0072021483999999995,-53.007633,-26.778625,36.664124,2019-08-19 11:23:48,10.0
164.0,0.14862060000000002,0.024536132999999998,0.0028076171999999997,-93.48092,-26.480916999999998,28.335878000000005,2019-08-19 11:23:48,10.0
165.0,0.1529541,0.023498535,-0.001953125,-112.20611000000001,-28.335878000000005,17.57252,2019-08-19 11:23:48,10.0
166.0,0.14428711,0.030395507999999998,-0.00012207031000000001,-98.16794,-18.923664000000002,24.793894,2019-08-19 11:23:48,10.0
167.0,0.13989258,0.027648926,0.0036621094,-69.381676,-11.992367,39.221375,2019-08-19 11:23:48,10.0
168.0,0.14672852,0.033447266,0.0033569335999999996,-59.25954,-4.366412,46.343509999999995,2019-08-19 11:23:48,10.0
169.0,0.14215088,0.023986816,0.0,-51.816795,10.328244,48.06107,2019-08-19 11:23:48,10.0
170.0,0.14178467,0.032165527,-0.004272461,-52.809162,22.0,45.618320000000004,2019-08-19 11:23:48,10.0
171.0,0.13519287,0.02947998,-0.0072631836,-35.412212,30.526718,48.12214,2019-08-19 11:23:48,10.0
172.0,0.13696289,0.030700684,-0.012817383,-5.6488547,37.015266,49.404579999999996,2019-08-19 11:23:48,10.0
173.0,0.13006592,0.020690918,-0.013793945,2.2595419999999997,26.656488,42.068703,2019-08-19 11:23:48,10.0
174.0,0.12628174,0.018371582,-0.0154418945,-2.1374047000000003,15.580152499999999,28.87023,2019-08-19 11:23:48,10.0
175.0,0.11480713,0.010620117,-0.0075683593999999995,-26.557251,9.519084,23.419847,2019-08-19 11:23:49,10.0
176.0,0.12145996,0.0115356445,-0.00970459,-44.633587,5.2519083,20.786259,2019-08-19 11:23:49,10.0
177.0,0.11566162,0.014282227,-0.011047363000000001,-31.274809,4.1984735,24.610687,2019-08-19 11:23:49,10.0
178.0,0.12310791,0.024902344,-0.009399414,-19.206106,12.297709,31.374046000000003,2019-08-19 11:23:49,10.0
179.0,0.12591553,0.03137207,-0.0119018555,13.152672,24.51145,30.503816999999998,2019-08-19 11:23:49,10.0
180.0,0.12988281,0.02557373,-0.0126953125,24.832062,36.648853,22.183207,2019-08-19 11:23:49,10.0
181.0,0.13397217,0.024841309,-0.014221191000000001,31.480916999999998,42.671757,15.152672,2019-08-19 11:23:49,10.0
182.0,0.14276123,0.015380858999999998,-0.0048828125,40.374046,42.08397,11.793892999999999,2019-08-19 11:23:49,10.0
183.0,0.13171387,0.010314941,-0.004272461,25.740458,28.74809,3.0,2019-08-19 11:23:49,10.0
184.0,0.12884521,0.010437011999999999,-0.00036621094,20.549618,23.12977,-0.6259541999999999,2019-08-19 11:23:49,10.0
185.0,0.1361084,0.008483886999999999,0.0029907227,17.167938,21.007633,-2.221374,2019-08-19 11:23:49,10.0
186.0,0.13214111,0.00793457,-0.0012207030999999999,4.9160304,23.648854999999998,-3.9541983999999997,2019-08-19 11:23:49,10.0
187.0,0.12756348,0.015563965,-0.014282227,33.076336,35.137405,-4.8625956,2019-08-19 11:23:49,10.0
188.0,0.1296997,0.010070800999999999,-0.0031738281,58.82443000000001,40.0229,-4.6488547,2019-08-19 11:23:49,10.0
189.0,0.12286377,0.008422852,0.0008544922000000001,81.47328,34.25954,-6.7480917,2019-08-19 11:23:49,10.0
190.0,0.12164307,-0.0026245116999999997,0.0020141601999999997,91.145035,26.961832,-11.954199000000001,2019-08-19 11:23:49,10.0
191.0,0.11437988,-0.013549805,0.0026855469,67.99235999999999,11.755725,-13.961832000000001,2019-08-19 11:23:49,10.0
192.0,0.11938476599999999,-0.011962891000000002,0.009338379,38.923664,4.5114503,-11.412213000000001,2019-08-19 11:23:49,10.0
193.0,0.1182251,-0.012939453,0.005859375,14.7786255,-9.549619,-1.0458015,2019-08-19 11:23:49,10.0
194.0,0.11401367,-0.005737304699999999,0.018920898000000002,4.9007635,-16.198473,2.8091602000000004,2019-08-19 11:23:49,10.0
195.0,0.12194824,0.005981445300000001,0.025756836,-16.816793,-22.335878,7.709923700000001,2019-08-19 11:23:49,10.0
196.0,0.13391113,0.0044555664,0.02178955,-29.152671999999995,-27.305344,8.458015,2019-08-19 11:23:49,10.0
197.0,0.13647461,0.019714355,0.023620605,-34.25954,-23.335878,13.358779,2019-08-19 11:23:49,10.0
198.0,0.1428833,0.01159668,0.033691406,-31.557251,-26.984734000000003,14.0,2019-08-19 11:23:49,10.0
199.0,0.12139892599999999,0.011352538999999998,0.025268555,-33.08397,-18.007633,12.145039,2019-08-19 11:23:49,10.0
200.0,0.1328125,0.017028809,0.01727295,-37.946564,-2.2290077,15.648855,2019-08-19 11:23:49,10.0
201.0,0.12762451,0.0154418945,0.014709473,-21.053434,9.862596,22.755726,2019-08-19 11:23:49,10.0
202.0,0.12542725,0.012329102,0.013793945,-23.022902,14.465648999999999,26.89313,2019-08-19 11:23:49,10.0
203.0,0.12915039,0.014160156,0.012634277,-29.900763,17.114504,24.068703,2019-08-19 11:23:49,10.0
204.0,0.12548828,0.014160156,0.013061523,-26.519083000000002,13.106871,22.015266,2019-08-19 11:23:49,10.0
205.0,0.11883545,0.023071289,0.015808105,-32.396946,11.061069,21.08397,2019-08-19 11:23:49,10.0
206.0,0.13024902,0.020202637,0.009460449000000001,-13.282442999999999,7.328244000000001,17.847328,2019-08-19 11:23:49,10.0
207.0,0.12261963,0.018493652,0.0053100586,-10.19084,20.0,16.656488,2019-08-19 11:23:49,10.0
208.0,0.14044189999999998,0.017211914,0.010803223,-17.328245000000003,20.465649,12.885496,2019-08-19 11:23:49,10.0
209.0,0.1531372,0.021362305,0.007629394499999999,-11.572519,18.793894,13.396947,2019-08-19 11:23:49,10.0
210.0,0.12158203,0.009399414,-6.1035155999999994e-05,-1.3816794,21.931297,-1.7557251,2019-08-19 11:23:49,10.0
211.0,0.12634277,0.010498047,-0.0033569335999999996,-13.412213000000001,27.969465000000003,-3.9847328999999996,2019-08-19 11:23:50,10.0
212.0,0.11816406,-0.011657715,-0.010864258,13.38168,24.351145000000002,-6.3511453,2019-08-19 11:23:50,10.0
213.0,0.120910645,-0.01184082,0.0018310547,3.9007633000000004,16.190839999999998,-4.2824425999999995,2019-08-19 11:23:50,10.0
214.0,0.13208008,-0.016052246000000003,-0.001953125,-14.259541500000001,5.2824425999999995,-1.7099236,2019-08-19 11:23:50,10.0
215.0,0.13696289,-0.022277832,0.0013427734,-21.610687,-9.404580000000001,1.3358778999999998,2019-08-19 11:23:50,10.0
216.0,0.13348389,-0.020324707,-0.0009765625,-40.82443,-13.297709,-6.442748,2019-08-19 11:23:50,10.0
217.0,0.13006592,-0.020446777,0.009277344,-45.312977000000004,-15.938931,-5.847328,2019-08-19 11:23:50,10.0
218.0,0.12982178,-0.023864746000000003,0.016967773000000002,-50.778625,-23.435114000000002,-6.8244276,2019-08-19 11:23:50,10.0
219.0,0.124938965,-0.019836426,0.008911133,-55.091602,-25.312977,-7.328244000000001,2019-08-19 11:23:50,10.0
220.0,0.12957764,-0.014892578,0.011230469,-38.931297,-12.656488000000001,5.1603055,2019-08-19 11:23:50,10.0
221.0,0.12011719,-0.010681152,0.0020141601999999997,-25.412214000000002,-0.9694656999999999,13.236641,2019-08-19 11:23:50,10.0
222.0,0.12048339999999998,-0.008056641,0.006042480500000001,-7.2671757,14.335876999999998,17.053434,2019-08-19 11:23:50,10.0
223.0,0.12298584,0.00036621094,0.0048217773,9.641221,17.984734,17.923664000000002,2019-08-19 11:23:50,10.0
224.0,0.12658691,-0.0018920898,0.0018920898,14.396947,13.480916,14.519084,2019-08-19 11:23:50,10.0
225.0,0.12750244,-0.006225586,0.0037841796999999997,2.4198472,2.3740457999999998,4.4885497,2019-08-19 11:23:50,10.0
226.0,0.13165283,-0.0017700195,0.008911133,-13.473282999999999,-14.7786255,-3.2442749,2019-08-19 11:23:50,10.0
227.0,0.13134766,-0.006652831999999999,0.008117675999999999,-20.038168,-17.625954,-7.221374000000001,2019-08-19 11:23:50,10.0
228.0,0.12432861,-0.008605957,0.010620117,-19.908398000000002,-15.053435,-9.091603,2019-08-19 11:23:50,10.0
229.0,0.12908936,-0.010070800999999999,0.0078125,-16.954199,-13.80916,-12.625955000000001,2019-08-19 11:23:50,10.0
230.0,0.12585449,-0.005432129,0.008422852,-6.480916000000001,-11.816792999999999,-13.961832000000001,2019-08-19 11:23:50,10.0
231.0,0.12994385,-0.011047363000000001,0.007873535,-11.137404,-9.7404585,-15.442748000000002,2019-08-19 11:23:50,10.0
232.0,0.13500977,-0.0146484375,0.005981445300000001,-10.572519,-8.977099,-16.755726,2019-08-19 11:23:50,10.0
233.0,0.1303711,-0.003540039,-0.0020141601999999997,-10.80916,-9.198473,-14.984732999999999,2019-08-19 11:23:50,10.0
234.0,0.13452148,-0.009216309,-0.0010375977,-15.511451000000001,-9.396947,-19.664122,2019-08-19 11:23:50,10.0
235.0,0.12750244,-0.0016479492000000002,-0.0034790040000000004,-20.732824,-10.854961,-20.038168,2019-08-19 11:23:50,10.0
236.0,0.12976074,-0.0064086914,-0.0041503906,-24.832062,-17.137404999999998,-20.42748,2019-08-19 11:23:50,10.0
237.0,0.123046875,-0.006225586,-0.0038452148,-40.343509999999995,-16.068703,-19.022902,2019-08-19 11:23:50,10.0
238.0,0.12634277,0.004760742,-0.010253906,-36.961834,-12.954199000000001,-20.51145,2019-08-19 11:23:50,10.0
239.0,0.12469482400000001,0.00592041,-0.011413574,-22.473282,-11.503817,-16.358778,2019-08-19 11:23:50,10.0
240.0,0.12414551,0.004211426,-0.010437011999999999,-3.3358779999999997,-10.015267,-17.351145000000002,2019-08-19 11:23:50,10.0
241.0,0.12731934,0.00048828125,-0.012878418,-0.38167940000000006,-5.0839696,-9.984733,2019-08-19 11:23:50,10.0
242.0,0.13049316,0.0006713867,-0.0073242188,-2.3282442000000003,-4.3816795,-9.435115,2019-08-19 11:23:50,10.0
243.0,0.13067627,0.0044555664,-0.013000488000000001,1.70229,-1.5343511,-8.473283,2019-08-19 11:23:50,10.0
244.0,0.12512207,0.013671875,-0.013793945,14.274809,2.1984732000000005,-7.3816795,2019-08-19 11:23:50,10.0
245.0,0.12670898,0.010253906,-0.013061523,22.099237,6.6183205,-6.8702292,2019-08-19 11:23:50,10.0
246.0,0.13226318,0.01373291,-0.0107421875,19.076335999999998,8.549619,-7.2824425999999995,2019-08-19 11:23:51,10.0
247.0,0.1282959,0.02557373,-0.019592285,15.801526999999998,4.259542,-6.7251906,2019-08-19 11:23:51,10.0
248.0,0.13903809,0.024475097999999997,-0.015319824,11.801527,1.5572518999999998,-10.862596,2019-08-19 11:23:51,10.0
249.0,0.12908936,0.024780273,-0.006958008000000001,4.656488400000001,0.22900763,-15.053435,2019-08-19 11:23:51,10.0
250.0,0.12768555,0.023803711,-0.007751465,7.4198475,-2.8854961,-22.832062,2019-08-19 11:23:51,10.0
251.0,0.12945557,0.022827148,-0.007507324,25.755726,-2.5038167999999996,-27.404581,2019-08-19 11:23:51,10.0
252.0,0.12518310000000002,0.023498535,-0.010375977,40.351147,3.7633588,-28.19084,2019-08-19 11:23:51,10.0
253.0,0.11407471,0.03100586,-0.0073242188,53.84733000000001,17.213741,-21.358778,2019-08-19 11:23:51,10.0
254.0,0.11547851599999999,0.03326416,-0.006225586,59.755726,22.725191,-16.778625,2019-08-19 11:23:51,10.0
255.0,0.11218262,0.037231445,-0.00036621094,67.53435,24.412214000000002,-13.274809,2019-08-19 11:23:51,10.0
256.0,0.12487793,0.038757323999999996,-0.0024414061999999998,77.53435,27.099237,-6.4274807,2019-08-19 11:23:51,10.0
257.0,0.12341308599999999,0.039001465,-0.0014038085999999999,82.42748,27.198473,-1.2748091000000001,2019-08-19 11:23:51,10.0
258.0,0.13378906,0.044006348,-0.0015869141,84.94655999999999,30.770992,7.3664119999999995,2019-08-19 11:23:51,10.0
259.0,0.13763428,0.05267334,-0.004211426,99.73283,33.007633,16.977098,2019-08-19 11:23:51,10.0
260.0,0.11968994,0.052124023,0.0025024414000000004,99.80153,36.007633,20.099237,2019-08-19 11:23:51,10.0
261.0,0.12121582,0.048461914,0.0037841796999999997,89.55725,22.87023,8.541985,2019-08-19 11:23:51,10.0
262.0,0.11834717,0.0423584,-0.0041503906,80.58015400000001,16.793894,-6.0,2019-08-19 11:23:51,10.0
263.0,0.124816895,0.04650879,-0.00042724610000000003,73.79389,8.206107000000001,-14.80916,2019-08-19 11:23:51,10.0
264.0,0.12469482400000001,0.041931152,0.009521484,62.44275,-1.5725191,-16.183207,2019-08-19 11:23:51,10.0
265.0,0.11968994,0.042114257999999995,0.019226074,43.450382,-9.839694999999999,-20.534351,2019-08-19 11:23:51,10.0
266.0,0.12170410000000002,0.052001953,0.009643555,56.961833999999996,-17.351145000000002,-22.229008,2019-08-19 11:23:51,10.0
267.0,0.12036133,0.0546875,-0.003540039,97.816795,23.251910000000002,-22.221375,2019-08-19 11:23:51,10.0
268.0,0.12536621,0.032714844,0.012451172,80.56489,29.38168,-18.053434,2019-08-19 11:23:51,10.0
269.0,0.1227417,0.036987305,0.004760742,68.70992,17.519083,-19.08397,2019-08-19 11:23:51,10.0
270.0,0.113098145,0.030883789,0.008422852,69.9313,18.748089999999998,-17.87023,2019-08-19 11:23:51,10.0
271.0,0.10723877,0.037902832000000004,-0.0032348633000000003,63.53435,19.877863,-13.358779,2019-08-19 11:23:51,10.0
272.0,0.11810303,0.04095459,-0.0010986328,51.748093,21.183207,-1.3587786,2019-08-19 11:23:51,10.0
273.0,0.13342285,0.03656006,0.005554199,34.14504,19.274809,10.625955000000001,2019-08-19 11:23:51,10.0
274.0,0.12646484,0.031433105,-0.0033569335999999996,19.778625,15.557251999999998,10.458015,2019-08-19 11:23:51,10.0
275.0,0.12463379,0.035949707000000004,0.0007324219,-0.9236641,13.229007999999999,15.007632999999998,2019-08-19 11:23:51,10.0
276.0,0.11999512,0.042053223,-0.013305663999999998,3.3740457999999998,8.183207000000001,13.671756,2019-08-19 11:23:51,10.0
277.0,0.120910645,0.050048828,-0.012084961000000002,14.2213745,16.755726,15.755725,2019-08-19 11:23:51,10.0
278.0,0.11950683599999999,0.038085938,0.0006713867,23.335878,3.9923663,12.076336,2019-08-19 11:23:51,10.0
279.0,0.12133789,0.038757323999999996,-0.0048217773,17.908398000000002,-8.2213745,5.809159999999999,2019-08-19 11:23:51,10.0
280.0,0.12121582,0.04675293,-0.016540527,18.374046,-2.1908397999999996,2.2595419999999997,2019-08-19 11:23:51,10.0
281.0,0.13317871,0.041931152,-0.0056152343999999995,13.908397,-3.5114503,2.2290077,2019-08-19 11:23:51,10.0
282.0,0.12542725,0.041931152,-0.010864258,23.793894,-9.282442999999999,1.6030535,2019-08-19 11:23:51,10.0
283.0,0.12585449,0.054992676,-0.0138549805,50.427483,-0.16793893,0.519084,2019-08-19 11:23:52,10.0
284.0,0.14050293,0.047729492000000005,-0.014831543,59.48855,0.6259541999999999,-5.7251905999999995,2019-08-19 11:23:52,10.0
285.0,0.14184570000000002,0.043884277,-0.012207031,78.38931,-7.480916000000001,-9.129771,2019-08-19 11:23:52,10.0
286.0,0.13323975,0.04541015599999999,-0.013549805,69.40458000000001,-15.687023000000002,-16.015266,2019-08-19 11:23:52,10.0
287.0,0.137146,0.04650879,-0.011291503999999999,71.35114,-14.274809,-18.641222,2019-08-19 11:23:52,10.0
288.0,0.13665771,0.042236328,-0.010314941,74.9771,-20.717558,-24.42748,2019-08-19 11:23:52,10.0
289.0,0.12658691,0.038269042999999996,-0.010192871,74.03053,-24.267176,-28.603053999999997,2019-08-19 11:23:52,10.0
290.0,0.122558594,0.030700684,-0.008117675999999999,63.267174,-31.48855,-35.519085,2019-08-19 11:23:52,10.0
291.0,0.12579346,0.030639648,-0.008178711,57.755726,-25.259542,-36.809162,2019-08-19 11:23:52,10.0
292.0,0.12762451,0.034606934,0.0012207030999999999,71.10687,-24.748089999999998,-30.244274,2019-08-19 11:23:52,10.0
293.0,0.12231445,0.033081055,-0.0078125,99.175575,-3.6946564,-26.961832,2019-08-19 11:23:52,10.0
294.0,0.12408447,0.039978027,-0.019897461,152.59541000000002,28.900763,-9.427481,2019-08-19 11:23:52,10.0
295.0,0.12249756,0.02166748,-0.0154418945,194.64885,37.48855,-5.740458,2019-08-19 11:23:52,10.0
296.0,0.10809326,0.011779785,-0.010864258,187.83969,30.709923,5.4351144,2019-08-19 11:23:52,10.0
297.0,0.111206055,0.0063476562,-0.015686035,119.96947,-0.48091602,4.328244000000001,2019-08-19 11:23:52,10.0
298.0,0.10864258,0.0064697266000000005,-0.018005371000000003,71.79389,7.3206105,-4.809159999999999,2019-08-19 11:23:52,10.0
299.0,0.10601807,0.025634766,-0.02758789,40.076336,13.908397,-7.412214,2019-08-19 11:23:52,10.0
300.0,0.11364746,0.03100586,-0.026916503999999997,67.12214,17.900763,-4.2290077,2019-08-19 11:23:52,10.0
301.0,0.11267089999999998,0.034301757999999995,-0.026489257999999998,64.74809,18.557251,-4.091603299999999,2019-08-19 11:23:52,10.0
302.0,0.117370605,0.032958984,-0.026000977,62.007633,22.908398000000002,-7.3664119999999995,2019-08-19 11:23:52,10.0
303.0,0.10809326,0.038757323999999996,-0.033935547,75.19084000000001,29.656488,-7.4274807,2019-08-19 11:23:52,10.0
304.0,0.11437988,0.035888672,-0.032714844,86.75572,37.229008,-9.045800999999999,2019-08-19 11:23:52,10.0
305.0,0.11816406,0.039611816,-0.03942871,100.099236,42.618320000000004,-8.19084,2019-08-19 11:23:52,10.0
306.0,0.12268066400000001,0.035217285,-0.036499023,110.79388999999999,41.55725,-10.534351,2019-08-19 11:23:52,10.0
307.0,0.12835693,0.04119873,-0.037475586,101.36641,35.519085,-13.519084,2019-08-19 11:23:52,10.0
308.0,0.1260376,0.05114746,-0.03137207,79.58778000000001,27.335878000000005,-27.282442,2019-08-19 11:23:52,10.0
309.0,0.13391113,0.04486084,-0.035583496,92.55725,24.793894,-41.793890000000005,2019-08-19 11:23:52,10.0
310.0,0.12445068,0.03845215,-0.025939941,101.42748,10.503817,-59.931297,2019-08-19 11:23:52,10.0
311.0,0.1307373,0.044006348,-0.02178955,100.70992,3.0992367,-67.34351,2019-08-19 11:23:52,10.0
312.0,0.13604736,0.042236328,-0.021057128999999997,119.45038000000001,3.6335877999999995,-67.62595,2019-08-19 11:23:52,10.0
313.0,0.13342285,0.04034424,-0.024291992000000002,126.27481,10.633588,-67.145035,2019-08-19 11:23:52,10.0
314.0,0.12310791,0.032836914,-0.024841309,121.76336,23.290077,-59.938930000000006,2019-08-19 11:23:52,10.0
315.0,0.13262939999999998,0.033447266,-0.012634277,103.19847,21.198473,-53.709922999999996,2019-08-19 11:23:52,10.0
316.0,0.12591553,0.038208007999999995,-0.012023926,107.20611000000001,1.1755725000000001,-52.48855,2019-08-19 11:23:52,10.0
317.0,0.12609863,0.03314209,-0.007873535,98.64886,8.488549,-50.641220000000004,2019-08-19 11:23:53,10.0
318.0,0.11761474599999999,0.035095215,-0.020324707,92.67175,17.648854999999998,-42.290077000000004,2019-08-19 11:23:53,10.0
319.0,0.113098145,0.030639648,-0.013122558999999999,97.0229,23.61832,-32.91603,2019-08-19 11:23:53,10.0
320.0,0.11755371,0.034179688,-0.021240234,83.76335999999999,25.465649,-27.038168,2019-08-19 11:23:53,10.0
321.0,0.11157226599999999,0.034973145,-0.01159668,70.53435,25.786259,-23.633587,2019-08-19 11:23:53,10.0
322.0,0.109313965,0.04541015599999999,-0.0134887695,69.12214,28.076335999999998,-18.694656,2019-08-19 11:23:53,10.0
323.0,0.10852051,0.035217285,-0.015930176,71.64886,36.412212,-14.854961,2019-08-19 11:23:53,10.0
324.0,0.10003662,0.044311523,-0.014160156,69.98473,45.53435,-9.687023,2019-08-19 11:23:53,10.0
325.0,0.11169433599999999,0.04888916,-0.01953125,74.10687,48.198475,-2.206107,2019-08-19 11:23:53,10.0
326.0,0.11553955,0.03955078,-0.019348145,81.65649,62.725190000000005,7.442748,2019-08-19 11:23:53,10.0
327.0,0.12213135,0.03692627,-0.026977539,95.58015400000001,62.221375,11.480916,2019-08-19 11:23:53,10.0
328.0,0.12548828,0.039611816,-0.033203125,85.12214,60.16794,14.2213745,2019-08-19 11:23:53,10.0
329.0,0.12652588,0.03137207,-0.028930664,63.49618,34.473279999999995,5.557252,2019-08-19 11:23:53,10.0
330.0,0.10131836,0.022766112999999998,-0.018371582,66.78626,31.343512,16.335878,2019-08-19 11:23:53,10.0
331.0,0.11706543,-0.0065307617,-0.02319336,88.34351,3.183206,27.954199,2019-08-19 11:23:53,10.0
332.0,0.11437988,-0.011413574,-0.016418457,39.84733,10.358779,31.824427000000004,2019-08-19 11:23:53,10.0
333.0,0.11602783,0.009643555,-0.0234375,-43.603054,16.717558,52.725190000000005,2019-08-19 11:23:53,10.0
334.0,0.13891602,0.016784668,-0.020812988,-68.9771,33.748093,62.076336,2019-08-19 11:23:53,10.0
335.0,0.13427734,0.020629883,-0.014221191000000001,-102.183205,38.374046,55.885498,2019-08-19 11:23:53,10.0
336.0,0.12554932,0.038024902,-0.021484375,-142.60306,30.351145000000002,44.450382,2019-08-19 11:23:53,10.0
337.0,0.12664795,0.033935547,-0.006286621,-128.33588,22.030535,28.42748,2019-08-19 11:23:53,10.0
338.0,0.12164307,0.03881836,-0.015014648,-127.21373999999999,12.992367,19.389313,2019-08-19 11:23:53,10.0
339.0,0.12945557,0.03527832,-0.010070800999999999,-123.25191000000001,5.2748094000000005,17.648854999999998,2019-08-19 11:23:53,10.0
340.0,0.12219238,0.036132812,-0.0010986328,-111.28244,5.4961834000000005,24.08397,2019-08-19 11:23:53,10.0
341.0,0.12426758,0.032226562,-0.004638672,-80.48092,4.7557254,34.221375,2019-08-19 11:23:53,10.0
342.0,0.11547851599999999,0.016601562,-0.0065307617,-76.75572,2.5954200000000003,37.85496,2019-08-19 11:23:53,10.0
343.0,0.13171387,0.02368164,-0.0030517578000000003,-80.43511,7.4198475,46.44275,2019-08-19 11:23:53,10.0
344.0,0.15441895,0.018615723,0.009216309,-86.091606,8.625955000000001,57.290077000000004,2019-08-19 11:23:53,10.0
345.0,0.14141846,0.019104003999999997,0.024902344,-134.2061,-0.16030534,39.526720000000005,2019-08-19 11:23:53,10.0
346.0,0.10870361,0.024169922000000003,0.0038452148,-166.67175,2.2519082999999998,32.198475,2019-08-19 11:23:53,10.0
347.0,0.11407471,0.022094727,-0.0034790040000000004,-134.64122,25.961832,30.603053999999997,2019-08-19 11:23:53,10.0
348.0,0.11480713,0.023986816,-0.008300781,-92.900764,48.076336,28.045801,2019-08-19 11:23:53,10.0
349.0,0.09997558599999999,0.017333984,-0.02508545,-17.030535,58.450382,33.335876,2019-08-19 11:23:53,10.0
350.0,0.09881592,0.0036010741999999997,-0.023010253999999997,31.496183000000002,86.74045600000001,35.419846,2019-08-19 11:23:53,10.0
351.0,0.10308838,-0.0099487305,-0.013916016000000002,2.1755726,62.664124,33.519085,2019-08-19 11:23:53,10.0
352.0,0.10681152,-0.009277344,-0.018920898000000002,-1.519084,44.503820000000005,34.908398,2019-08-19 11:23:53,10.0
353.0,0.12011719,-0.01727295,-0.016967773000000002,-38.9771,28.442749,28.633587,2019-08-19 11:23:53,10.0
354.0,0.11706543,-0.010437011999999999,-0.013977051,-35.496179999999995,23.412214000000002,29.274809,2019-08-19 11:23:54,10.0
355.0,0.12506104,-0.012512207,-0.0115356445,-21.358778,18.946566,31.435114000000002,2019-08-19 11:23:54,10.0
356.0,0.12030029,-0.022399902000000003,0.0048217773,-18.091601999999998,3.70229,18.931297,2019-08-19 11:23:54,10.0
357.0,0.12463379,-0.024536132999999998,0.001953125,-22.267176,6.4198474999999995,14.183207000000001,2019-08-19 11:23:54,10.0
358.0,0.13165283,-0.020507812,0.010375977,-16.931297,7.89313,14.549619,2019-08-19 11:23:54,10.0
359.0,0.13641357,-0.024963378999999997,0.013671875,8.702291,2.7862597,22.068703,2019-08-19 11:23:54,10.0
360.0,0.1338501,-0.034973145,0.0052490233999999995,25.351145000000002,15.091603,26.946565999999997,2019-08-19 11:23:54,10.0
361.0,0.1328125,-0.027526855,0.0095825195,-8.679389,22.290077,29.89313,2019-08-19 11:23:54,10.0
362.0,0.13195801,-0.026062012000000002,0.019714355,5.5419846,51.51145,36.74046,2019-08-19 11:23:54,10.0
363.0,0.14733887,-0.023376465,0.016601562,-3.5648854,33.954197,31.045801,2019-08-19 11:23:54,10.0
364.0,0.13677979,-0.014892578,0.020507812,-0.27480915,32.404579999999996,29.183207,2019-08-19 11:23:54,10.0
365.0,0.14227295,-0.014099121000000001,0.024230957,-9.206107000000001,16.503817,19.656488,2019-08-19 11:23:54,10.0
366.0,0.13543701,-0.014831543,0.026184082,-19.236639999999998,8.2595415,10.122137,2019-08-19 11:23:54,10.0
367.0,0.11846924,-0.03338623,0.02368164,-33.419846,3.832061,-1.3053435,2019-08-19 11:23:54,10.0
368.0,0.10327148400000001,-0.034606934,0.022094727,-53.62595400000001,0.07633588,-10.091603,2019-08-19 11:23:54,10.0
369.0,0.10333252,-0.024291992000000002,0.014282227,-43.84733,8.274809,-5.412214,2019-08-19 11:23:54,10.0
370.0,0.10736084,-0.027160645,0.018676758,-10.832061,11.824428,2.6335877999999995,2019-08-19 11:23:54,10.0
371.0,0.11273193,-0.034606934,0.026794434,-15.442748000000002,14.412213000000001,9.748092,2019-08-19 11:23:54,10.0
372.0,0.12536621,-0.023864746000000003,0.023925781,-23.068703,5.076336,12.152672,2019-08-19 11:23:54,10.0
373.0,0.13433838,-0.023864746000000003,0.02142334,-22.679389999999998,4.3206105,22.549618,2019-08-19 11:23:54,10.0
374.0,0.13366699,-0.024291992000000002,0.030700684,-18.167938,-1.70229,11.274809,2019-08-19 11:23:54,10.0
375.0,0.13763428,-0.026733398,0.02557373,-18.519083,0.48091602,1.648855,2019-08-19 11:23:54,10.0
376.0,0.14025879,-0.029968262000000002,0.027404785,-17.61832,-1.519084,-2.8396947,2019-08-19 11:23:54,10.0
377.0,0.14721679999999998,-0.031311035,0.020629883,-9.503817,-1.4656489,-4.587786,2019-08-19 11:23:54,10.0
378.0,0.1383667,-0.03564453,0.030517577999999997,-3.9541983999999997,6.068702,-6.6412214999999994,2019-08-19 11:23:54,10.0
379.0,0.14190674,-0.035949707000000004,0.018981934,-11.885496,-8.564885,-11.145039,2019-08-19 11:23:54,10.0
380.0,0.12634277,-0.038391113,0.022094727,-23.351145000000002,-10.251908,-11.083969,2019-08-19 11:23:54,10.0
381.0,0.12866211,-0.049194336,0.031311035,-24.923664000000002,-6.6488547,-7.0458016,2019-08-19 11:23:54,10.0
382.0,0.12670898,-0.04144287,0.028198242000000002,-34.435116,-27.580153000000003,-9.282442999999999,2019-08-19 11:23:54,10.0
383.0,0.11730957,-0.034729004,0.015319824,-41.404579999999996,-9.709924,4.89313,2019-08-19 11:23:54,10.0
384.0,0.12780762,-0.03668213,0.025512695,-8.503817,1.2824427,14.068703,2019-08-19 11:23:54,10.0
385.0,0.12432861,-0.028564452999999997,0.016967773000000002,-2.7709923,4.0229006,18.267176,2019-08-19 11:23:54,10.0
386.0,0.12609863,-0.025634766,0.014587402,1.7099236,7.839694500000001,16.320610000000002,2019-08-19 11:23:54,10.0
387.0,0.13323975,-0.014404297,0.0138549805,8.175572,9.2213745,9.946565,2019-08-19 11:23:54,10.0
388.0,0.14221191,-0.0099487305,0.013366699,12.351144999999999,12.870229,6.114504,2019-08-19 11:23:54,10.0
389.0,0.15759277,-0.011779785,0.013977051,21.0,6.8702292,-2.129771,2019-08-19 11:23:55,10.0
390.0,0.16247559,-0.01373291,0.015808105,10.687023,5.335878,-12.007633,2019-08-19 11:23:55,10.0
391.0,0.16040039,-0.016235351999999998,0.0146484375,15.053435,3.3129769999999996,-20.267176,2019-08-19 11:23:55,10.0
392.0,0.16979979999999997,-0.0071411133,0.0138549805,14.412213000000001,3.6106870000000004,-28.770992,2019-08-19 11:23:55,10.0
393.0,0.15765381,-0.015625,0.014892578,18.641222,-1.2824427,-28.969465000000003,2019-08-19 11:23:55,10.0
394.0,0.14605713,-0.017822266,0.0010986328,33.801525,1.3435115,-26.656488,2019-08-19 11:23:55,10.0
395.0,0.14208984,-0.012329102,0.0049438477,32.160305,-7.3511453,-22.053434,2019-08-19 11:23:55,10.0
396.0,0.13201904,-0.009155273,0.0021362305,30.374046000000003,-12.198473,-15.083969,2019-08-19 11:23:55,10.0
397.0,0.1295166,-0.0053100586,0.008117675999999999,25.435114000000002,-15.061069,-14.458015,2019-08-19 11:23:55,10.0
398.0,0.14184570000000002,0.0007934570299999999,0.0107421875,16.664122,-19.748089999999998,-19.274809,2019-08-19 11:23:55,10.0
399.0,0.13293457,-0.0048828125,0.011657715,15.541985,-19.625954,-28.656488,2019-08-19 11:23:55,10.0
400.0,0.12072754,-0.0018920898,0.006652831999999999,34.458015,-15.854961,-30.61832,2019-08-19 11:23:55,10.0
401.0,0.13562012,-0.0146484375,0.008422852,68.908394,-12.320611,-27.312977000000004,2019-08-19 11:23:55,10.0
402.0,0.13580322,-0.018249512,0.013671875,64.41221999999999,-14.152672,-18.450382,2019-08-19 11:23:55,10.0
403.0,0.12902832,-0.013000488000000001,-0.00036621094,61.061069999999994,-29.908398,-14.007632999999998,2019-08-19 11:23:55,10.0
404.0,0.12377930000000001,-0.010437011999999999,-0.0026855469,70.80915999999999,-25.526718,-10.358779,2019-08-19 11:23:55,10.0
405.0,0.12017822,-0.004699707,-0.0016479492000000002,68.46565,-30.42748,-11.129771,2019-08-19 11:23:55,10.0
406.0,0.13275146,-0.004760742,-0.010375977,75.24428,-39.08397,-14.312976999999998,2019-08-19 11:23:55,10.0
407.0,0.13403320000000002,0.0005493164,0.0021972656,59.84733000000001,-50.282444,-19.702289999999998,2019-08-19 11:23:55,10.0
408.0,0.13128662,0.008056641,0.0048828125,65.91603,-62.16030500000001,-26.496183000000002,2019-08-19 11:23:55,10.0
409.0,0.12213135,-0.009277344,0.0045776367,71.27481,-81.183205,-40.91603,2019-08-19 11:23:55,10.0
410.0,0.10046387,-0.0072021483999999995,0.0061035156000000005,21.549618,-73.19084000000001,-61.725190000000005,2019-08-19 11:23:55,10.0
411.0,0.10412598,-0.0068359375,-0.0007324219,-0.8091603,-61.12214,-64.58778000000001,2019-08-19 11:23:55,10.0
412.0,0.10058594,0.011047363000000001,-0.005737304699999999,49.267174,-30.08397,-57.961833999999996,2019-08-19 11:23:55,10.0
413.0,0.09851074,0.005493164,0.005432129,82.183205,-3.9541983999999997,-53.35878,2019-08-19 11:23:55,10.0
414.0,0.09588623,0.010375977,6.1035155999999994e-05,91.60305,6.3816795,-58.137405,2019-08-19 11:23:55,10.0
415.0,0.13122559,0.020507812,-0.015930176,109.03053,16.908398000000002,-51.15267,2019-08-19 11:23:55,10.0
416.0,0.13079834,0.013183594,-0.0154418945,179.2061,37.732826,-44.435116,2019-08-19 11:23:55,10.0
417.0,0.14611816,-0.0068359375,-0.0068969727,153.58778,23.480917,-27.167938,2019-08-19 11:23:55,10.0
418.0,0.13220215,-0.012634277,6.1035155999999994e-05,56.068703,-3.4274809999999998,-30.007633000000002,2019-08-19 11:23:55,10.0
419.0,0.14160156,0.0028686523,-0.0029296875,39.12214,-36.412212,-28.625953999999997,2019-08-19 11:23:55,10.0
420.0,0.1303711,0.007873535,0.0005493164,17.442749,-49.610687,-26.954199,2019-08-19 11:23:55,10.0
421.0,0.12322998,0.007019043000000001,-0.0018310547,14.450381,-51.328243,-25.526718,2019-08-19 11:23:55,10.0
422.0,0.10455322,0.007019043000000001,-0.0028076171999999997,8.702291,-32.007633,-25.694656,2019-08-19 11:23:55,10.0
423.0,0.10723877,0.024414062,-0.0115356445,-12.206107000000001,-5.6106873,-26.656488,2019-08-19 11:23:55,10.0
424.0,0.105285645,0.033203125,-0.004760742,0.34351146,12.679389,-17.030535,2019-08-19 11:23:55,10.0
425.0,0.10064697,0.033569336,-0.00793457,28.366413,31.267176,-3.8778627,2019-08-19 11:23:56,10.0
426.0,0.10668945,0.049743652,-0.022216797000000003,62.38168,49.244274,6.526717700000001,2019-08-19 11:23:56,10.0
427.0,0.10949707,0.054748535,-0.018676758,117.30533999999999,62.32824300000001,19.717558,2019-08-19 11:23:56,10.0
428.0,0.1015625,0.04699707,-0.026977539,185.85497,68.496185,30.053434000000003,2019-08-19 11:23:56,10.0
429.0,0.11608887,0.04260254,-0.027282715,213.05344,75.29008,32.770992,2019-08-19 11:23:56,10.0
430.0,0.12365723,0.033508300000000005,-0.023376465,223.07634,66.53435,31.32061,2019-08-19 11:23:56,10.0
431.0,0.13909912,0.028747559,-0.020629883,213.15266,43.862595,33.328243,2019-08-19 11:23:56,10.0
432.0,0.15301514,0.018798828,-0.023071289,175.03053,14.656488000000001,25.786259,2019-08-19 11:23:56,10.0
433.0,0.14031982,0.006652831999999999,-0.028015137000000002,130.7481,-17.503817,13.305344,2019-08-19 11:23:56,10.0
434.0,0.13336182,-0.0051879883,-0.016113281,50.954197,-47.526720000000005,-3.4732822999999997,2019-08-19 11:23:56,10.0
435.0,0.12896729,-0.006713866999999999,-0.0154418945,-52.068703,-67.89313,-24.832062,2019-08-19 11:23:56,10.0
436.0,0.12078857400000001,-0.0051879883,-0.020751953,-127.38931000000001,-80.900764,-35.091602,2019-08-19 11:23:56,10.0
437.0,0.11566162,0.004333496,-0.031555176000000004,-131.25954,-71.19847,-25.503817,2019-08-19 11:23:56,10.0
438.0,0.10772705,0.016296387,-0.024719237999999998,-133.80916000000002,-59.648853,-5.0305343,2019-08-19 11:23:56,10.0
439.0,0.09735107400000001,0.012573242,-0.040527344,-102.73283,-48.160305,11.755725,2019-08-19 11:23:56,10.0
440.0,0.09997558599999999,0.010803223,-0.04296875,-68.69466,-24.045801,27.465649,2019-08-19 11:23:56,10.0
441.0,0.11968994,0.015930176,-0.04333496,-71.51145,-14.969465,35.694656,2019-08-19 11:23:56,10.0
442.0,0.13116455,0.019897461,-0.039001465,-48.404579999999996,-18.587785999999998,42.14504,2019-08-19 11:23:56,10.0
443.0,0.12719727,0.019226074,-0.059448242000000005,-26.648854999999998,1.7175573,46.053436,2019-08-19 11:23:56,10.0
444.0,0.13946533,0.014770508,-0.056396484000000004,-28.580153000000003,19.778625,46.221375,2019-08-19 11:23:56,10.0
445.0,0.13513184,0.010314941,-0.04852295,-40.343509999999995,16.534351,35.480915,2019-08-19 11:23:56,10.0
446.0,0.13256836,0.01184082,-0.05529785,-58.801525,13.274809,19.145039,2019-08-19 11:23:56,10.0
447.0,0.14215088,0.0087890625,-0.05291748,-66.76335999999999,9.732824,8.198473,2019-08-19 11:23:56,10.0
448.0,0.13458252,0.005126953,-0.05694580000000001,-41.045803,-2.8854961,2.8778627,2019-08-19 11:23:56,10.0
449.0,0.121276855,0.0041503906,-0.043029785,-58.83206,-8.412213000000001,-1.7404580000000003,2019-08-19 11:23:56,10.0
450.0,0.11157226599999999,0.019958496000000003,-0.043701172,-74.145035,-13.862596,-10.274809,2019-08-19 11:23:56,10.0
451.0,0.10284424,0.027832031,-0.05230713,-40.328243,-6.2671757,-7.862595599999999,2019-08-19 11:23:56,10.0
452.0,0.10070801,0.029907227,-0.042175292999999996,0.73282444,9.145039,3.465649,2019-08-19 11:23:56,10.0
453.0,0.10095215,0.032287598,-0.036132812,40.610687,12.885496,7.557252,2019-08-19 11:23:56,10.0
454.0,0.11810303,0.031799316,-0.042114257999999995,58.908398,18.068703,8.78626,2019-08-19 11:23:56,10.0
455.0,0.14135742,0.019897461,-0.029663086,33.587788,23.480917,6.5343513,2019-08-19 11:23:56,10.0
456.0,0.14031982,0.02722168,-0.035583496,27.366413,22.42748,-6.5038165999999995,2019-08-19 11:23:56,10.0
457.0,0.1515503,0.02368164,-0.029296875,12.893129,27.76336,-6.80916,2019-08-19 11:23:56,10.0
458.0,0.11566162,0.032348632999999995,-0.040405273,29.862595000000002,24.236639999999998,-15.236641,2019-08-19 11:23:57,10.0
459.0,0.10998535,0.022644043,-0.03375244,21.885496,27.717558,-18.251910000000002,2019-08-19 11:23:57,10.0
460.0,0.11975098,0.023864746000000003,-0.028625487999999998,-2.1603053,12.267176,-17.282442,2019-08-19 11:23:57,10.0
461.0,0.13861084,0.034179688,-0.03100586,-7.4503818,-9.167939,-12.312977,2019-08-19 11:23:57,10.0
462.0,0.1383667,0.035827637,-0.023803711,-7.9770994,-15.534351000000001,-9.671756,2019-08-19 11:23:57,10.0
463.0,0.12976074,0.031982422,-0.028930664,-3.9541983999999997,-9.832061,-6.8244276,2019-08-19 11:23:57,10.0
464.0,0.14038086,0.030151367000000002,-0.032470703,-14.977098999999999,2.2824428,-14.343511999999999,2019-08-19 11:23:57,10.0
465.0,0.14013672,0.034240723,-0.02935791,-30.832062,-1.1832061000000003,-21.809160000000002,2019-08-19 11:23:57,10.0
466.0,0.13848877,0.028381347999999997,-0.028930664,-27.93893,-11.022901,-23.374046,2019-08-19 11:23:57,10.0
467.0,0.12475586,0.03338623,-0.027648926,-22.328245000000003,-17.755726,-17.900763,2019-08-19 11:23:57,10.0
468.0,0.11810303,0.028198242000000002,-0.03253174,-22.122137,-18.801527,-17.61832,2019-08-19 11:23:57,10.0
469.0,0.12243652,0.028015137000000002,-0.03112793,-42.603054,-18.648854999999998,-14.412213000000001,2019-08-19 11:23:57,10.0
470.0,0.11016846,0.029785156,-0.024414062,-54.14504,-20.12977,-9.625955000000001,2019-08-19 11:23:57,10.0
471.0,0.11450195,0.03363037,-0.0390625,-38.48855,-22.435114000000002,-1.4427481000000002,2019-08-19 11:23:57,10.0
472.0,0.10021973,0.03277588,-0.06103515599999999,-9.282442999999999,-13.9007635,3.6030532999999996,2019-08-19 11:23:57,10.0
473.0,0.11895752,0.028442382999999998,-0.06060791,25.290077,7.8015265,23.259542,2019-08-19 11:23:57,10.0
474.0,0.1383667,0.025817871000000003,-0.05432129,33.595420000000004,4.480916000000001,28.007633000000002,2019-08-19 11:23:57,10.0
475.0,0.15527344,0.017822266,-0.027832031,-13.656488000000001,-22.312977,32.55725,2019-08-19 11:23:57,10.0
476.0,0.13122559,0.025817871000000003,-0.04711914,-36.641220000000004,-42.328243,14.374045,2019-08-19 11:23:57,10.0
477.0,0.12298584,0.035827637,-0.048828125,-69.98473,-25.358778,13.083969,2019-08-19 11:23:57,10.0
478.0,0.11260986,0.040100098,-0.041870117000000005,-56.885498,-9.290076,6.374046,2019-08-19 11:23:57,10.0
479.0,0.120910645,0.036254882999999995,-0.033996582000000004,-60.46565,-7.6870227,6.6183205,2019-08-19 11:23:57,10.0
480.0,0.115722656,0.044311523,-0.03869629,-46.183205,-7.885496000000001,9.145039,2019-08-19 11:23:57,10.0
481.0,0.12066650400000001,0.043395996,-0.031433105,-43.618320000000004,-2.5267177000000003,9.969465,2019-08-19 11:23:57,10.0
482.0,0.12213135,0.03967285,-0.02734375,-24.847328,-4.6412214999999994,7.740458,2019-08-19 11:23:57,10.0
483.0,0.12628174,0.036315917999999996,-0.027160645,-29.25191,-4.809159999999999,1.3587786,2019-08-19 11:23:57,10.0
484.0,0.12805176,0.037719727,-0.025695799999999998,-14.725191,-0.86259544,1.8549619,2019-08-19 11:23:57,10.0
485.0,0.13409424,0.034179688,-0.030212402000000003,-9.618319999999999,4.40458,-0.7633588000000001,2019-08-19 11:23:57,10.0
486.0,0.11639404,0.034179688,-0.030761719,-2.4503817999999997,7.2748094,-0.045801528,2019-08-19 11:23:57,10.0
487.0,0.11785889,0.033691406,-0.03930664,-1.2900764,13.564885,6.9389315,2019-08-19 11:23:57,10.0
488.0,0.11755371,0.03552246,-0.04309082,-4.8015265,15.40458,6.7328243,2019-08-19 11:23:57,10.0
489.0,0.12377930000000001,0.03186035,-0.04711914,-13.328244,19.374046,13.450381,2019-08-19 11:23:57,10.0
490.0,0.11730957,0.033569336,-0.03930664,-13.923664000000002,10.755725,12.236641,2019-08-19 11:23:57,10.0
491.0,0.11804199,0.039733887,-0.044677734000000004,-3.2366412,11.9007635,13.526717000000001,2019-08-19 11:23:57,10.0
492.0,0.13055419999999998,0.03942871,-0.03668213,10.183207000000001,9.496183,14.282442999999999,2019-08-19 11:23:57,10.0
493.0,0.12561035,0.041381836,-0.041015625,19.656488,10.801527,9.473283,2019-08-19 11:23:57,10.0
494.0,0.12432861,0.046142578,-0.037353516,12.503817,8.389313000000001,6.7862597000000004,2019-08-19 11:23:57,10.0
495.0,0.12658691,0.054748535,-0.033447266,31.847328000000005,8.687023,5.236641400000001,2019-08-19 11:23:57,10.0
496.0,0.11975098,0.044555664,-0.034423828,54.74046,8.335877,0.5648854999999999,2019-08-19 11:23:57,10.0
497.0,0.12420654,0.035888672,-0.032958984,21.076335999999998,4.5648856,-6.7175574000000005,2019-08-19 11:23:58,10.0
498.0,0.13006592,0.037902832000000004,-0.031311035,10.702291,2.389313,-10.839694999999999,2019-08-19 11:23:58,10.0
499.0,0.12738037,0.03564453,-0.037597656,25.595419,2.053435,-8.282442999999999,2019-08-19 11:23:58,10.0
500.0,0.12976074,0.03375244,-0.03894043,25.854961,5.816794,-3.6412212999999998,2019-08-19 11:23:58,10.0
501.0,0.13183594,0.027526855,-0.03564453,33.038166,1.8396946,-2.9694657,2019-08-19 11:23:58,10.0
502.0,0.12408447,0.025939941,-0.04071045,22.778625,-3.3587787000000002,-1.2671756,2019-08-19 11:23:58,10.0
503.0,0.123168945,0.024536132999999998,-0.03869629,13.732823999999999,-5.9923663000000005,-4.557252,2019-08-19 11:23:58,10.0
504.0,0.11883545,0.02532959,-0.036743164,0.122137405,-7.068702,-4.9007635,2019-08-19 11:23:58,10.0
505.0,0.117248535,0.02154541,-0.027893066,-12.2213745,-2.3664122000000005,-7.4503818,2019-08-19 11:23:58,10.0
506.0,0.117248535,0.028442382999999998,-0.030456543,-16.412214000000002,-1.4122137,-3.053435,2019-08-19 11:23:58,10.0
507.0,0.11779785,0.033569336,-0.032287598,-12.78626,4.473282299999999,-0.18320611,2019-08-19 11:23:58,10.0
508.0,0.122558594,0.03137207,-0.03363037,-6.900763499999999,13.511451000000001,5.9541984,2019-08-19 11:23:58,10.0
509.0,0.12835693,0.04144287,-0.03503418,-2.9160306,16.908398000000002,10.908397,2019-08-19 11:23:58,10.0
510.0,0.12628174,0.03186035,-0.03491211,6.40458,19.809160000000002,15.80916,2019-08-19 11:23:58,10.0
511.0,0.12261963,0.035949707000000004,-0.037353516,-0.73282444,20.442749,15.877863,2019-08-19 11:23:58,10.0
512.0,0.11639404,0.039001465,-0.042114257999999995,-2.3206108,19.954199,14.488548999999999,2019-08-19 11:23:58,10.0
513.0,0.12615967,0.041809082000000004,-0.042541504,-6.2748094000000005,18.183207,11.335877,2019-08-19 11:23:58,10.0
514.0,0.12420654,0.043151855,-0.036193848,3.7633588,13.916031,8.167939,2019-08-19 11:23:58,10.0
515.0,0.12585449,0.036499023,-0.040893555,8.091603,9.152672,3.8015267999999995,2019-08-19 11:23:58,10.0
516.0,0.13616943,0.037597656,-0.03112793,6.59542,5.0,-1.0,2019-08-19 11:23:58,10.0
517.0,0.1239624,0.039123535,-0.038269042999999996,4.4580154,1.4885496,-4.6488547,2019-08-19 11:23:58,10.0
518.0,0.13415527,0.03466797,-0.030761719,2.3358779999999997,-3.1526718,-6.2671757,2019-08-19 11:23:58,10.0
519.0,0.12768555,0.029663086,-0.027282715,1.7786259999999998,-3.9312977999999994,-4.633588,2019-08-19 11:23:58,10.0
520.0,0.11932373,0.035461426000000004,-0.036376953,6.923664,-4.656488400000001,-6.4351144,2019-08-19 11:23:58,10.0
521.0,0.11694336,0.028991700000000002,-0.029418945,7.603053599999999,-6.0839696,-6.3053436,2019-08-19 11:23:58,10.0
522.0,0.13043213,0.030883789,-0.029418945,2.7099237,-8.625955000000001,-4.656488400000001,2019-08-19 11:23:58,10.0
523.0,0.13049316,0.027709961,-0.030273438,-2.1450381000000003,-7.541984599999999,-5.5801525000000005,2019-08-19 11:23:58,10.0
524.0,0.12884521,0.025817871000000003,-0.033447266,-9.206107000000001,-3.8473281999999998,-3.465649,2019-08-19 11:23:58,10.0
525.0,0.12908936,0.024169922000000003,-0.025878906,-9.992367,-4.2748094000000005,-3.1221373,2019-08-19 11:23:58,10.0
526.0,0.12225342,0.026184082,-0.03479004,-15.366412,-0.7633588000000001,0.83206105,2019-08-19 11:23:58,10.0
527.0,0.115722656,0.03125,-0.029724121000000003,-14.007632999999998,-1.3053435,2.2137403,2019-08-19 11:23:58,10.0
528.0,0.11706543,0.031188965,-0.027404785,-16.641222,1.6641221000000002,3.4122138,2019-08-19 11:23:58,10.0
529.0,0.12335205,0.034362792999999996,-0.027832031,-20.755726,3.8854961,8.2595415,2019-08-19 11:23:58,10.0
530.0,0.12677002,0.035583496,-0.031433105,-16.91603,7.7862597000000004,13.251907999999998,2019-08-19 11:23:58,10.0
531.0,0.12591553,0.0345459,-0.03265381,-18.51145,9.725191,17.022902,2019-08-19 11:23:58,10.0
532.0,0.12548828,0.037841797,-0.03692627,-18.08397,11.167939,19.007633,2019-08-19 11:23:59,10.0
533.0,0.123168945,0.044189453,-0.03479004,-15.816792999999999,10.961832000000001,13.549619,2019-08-19 11:23:59,10.0
534.0,0.12426758,0.039611816,-0.03289795,-14.801526999999998,4.6412214999999994,6.6412214999999994,2019-08-19 11:23:59,10.0
535.0,0.13220215,0.04168701,-0.035339355,-14.19084,-1.0763359,-1.3053435,2019-08-19 11:23:59,10.0
536.0,0.12438965,0.04547119,-0.033691406,-12.290076,-1.5496184,-4.2748094000000005,2019-08-19 11:23:59,10.0
537.0,0.12445068,0.051208496,-0.036804199999999995,-7.5648856,0.17557251,-5.068702,2019-08-19 11:23:59,10.0
538.0,0.13305664,0.04034424,-0.03375244,-2.0687022,-1.0687023,-4.4656487,2019-08-19 11:23:59,10.0
539.0,0.12347412,0.040893555,-0.023925781,-5.4580154,-0.4274809,-4.671755999999999,2019-08-19 11:23:59,10.0
540.0,0.12078857400000001,0.04058838,-0.022399902000000003,1.4274809,-3.70229,-5.015267400000001,2019-08-19 11:23:59,10.0
541.0,0.11633301,0.039123535,-0.03186035,0.22137405,0.061068702,-9.992367,2019-08-19 11:23:59,10.0
542.0,0.1171875,0.03717041,-0.02368164,-4.40458,4.1755724,-12.694656,2019-08-19 11:23:59,10.0
543.0,0.12677002,0.039367676000000004,-0.024291992000000002,-0.35114503,6.0839696,-9.572519,2019-08-19 11:23:59,10.0
544.0,0.12164307,0.046875,-0.022888184,4.946564700000001,10.770992,-2.6335877999999995,2019-08-19 11:23:59,10.0
545.0,0.13140869,0.04260254,-0.031555176000000004,11.801527,18.816793,2.9007633,2019-08-19 11:23:59,10.0
546.0,0.12487793,0.0423584,-0.027282715,26.152672,21.236639999999998,6.763358599999999,2019-08-19 11:23:59,10.0
547.0,0.12371826,0.045654297,-0.026611327999999997,25.08397,21.450382,6.9465647,2019-08-19 11:23:59,10.0
548.0,0.1328125,0.044616699999999995,-0.02911377,18.687023,17.610687,2.5114503,2019-08-19 11:23:59,10.0
549.0,0.12701416,0.04248047,-0.02923584,17.702289999999998,12.320611,1.1221374,2019-08-19 11:23:59,10.0
550.0,0.12347412,0.03753662,-0.031066895,14.526717000000001,5.053435299999999,-1.0687023,2019-08-19 11:23:59,10.0
551.0,0.13677979,0.03161621,-0.029846191,14.129771,-2.5038167999999996,-1.4656489,2019-08-19 11:23:59,10.0
552.0,0.13269043,0.037231445,-0.026916503999999997,12.625955000000001,-4.412214,-0.8396947,2019-08-19 11:23:59,10.0
553.0,0.13092041,0.036376953,-0.02545166,10.885496,-5.2748094000000005,-0.8015267,2019-08-19 11:23:59,10.0
554.0,0.12542725,0.036865234,-0.020751953,6.114504,-4.847328,-2.923664,2019-08-19 11:23:59,10.0
555.0,0.12860107,0.035339355,-0.025268555,8.725191,-6.396946400000001,-1.0763359,2019-08-19 11:23:59,10.0
556.0,0.12347412,0.033691406,-0.027648926,7.5267177,-2.7709923,-0.7099236999999999,2019-08-19 11:23:59,10.0
557.0,0.11987305,0.031066895,-0.022521972999999997,-1.0076336,-1.3282443000000002,0.8244275,2019-08-19 11:23:59,10.0
558.0,0.13409424,0.031921387,-0.026245117000000002,-3.1145039,-4.152672,0.8091603,2019-08-19 11:23:59,10.0
559.0,0.12475586,0.04034424,-0.027770996000000003,-7.1297708,-3.1526718,0.86259544,2019-08-19 11:23:59,10.0
560.0,0.12182617,0.032592773,-0.030273438,-3.6030532999999996,-2.923664,2.610687,2019-08-19 11:23:59,10.0
561.0,0.12176514,0.030151367000000002,-0.026672362999999998,-2.6946564,-1.3282443000000002,6.259542,2019-08-19 11:23:59,10.0
562.0,0.12322998,0.035339355,-0.026306152000000003,-5.6488547,3.5496182000000003,8.832061,2019-08-19 11:23:59,10.0
563.0,0.123535156,0.035339355,-0.030334472999999997,-2.1374047000000003,3.1984732000000005,9.160305000000001,2019-08-19 11:23:59,10.0
564.0,0.11077881,0.04272461,-0.030639648,-3.29771,5.3129773,11.114504,2019-08-19 11:23:59,10.0
565.0,0.12030029,0.041625977,-0.028747559,-1.0610687,7.0839696,9.793892999999999,2019-08-19 11:23:59,10.0
566.0,0.13079834,0.044799805,-0.030883789,6.0305343,8.015267,10.419847500000001,2019-08-19 11:23:59,10.0
567.0,0.12457275400000001,0.045715332000000004,-0.030334472999999997,11.030535,9.618319999999999,10.015267,2019-08-19 11:23:59,10.0
568.0,0.12457275400000001,0.040771484,-0.031982422,12.549619,4.2824425999999995,6.603053599999999,2019-08-19 11:24:00,10.0
569.0,0.12164307,0.04083252,-0.028564452999999997,14.473282999999999,2.2900763,0.90839696,2019-08-19 11:24:00,10.0
570.0,0.12664795,0.04284668,-0.025146484,11.946565,0.5114504,-5.2900763,2019-08-19 11:24:00,10.0
571.0,0.11993408,0.036071777,-0.03277588,7.9770994,-1.4503816,-5.847328,2019-08-19 11:24:00,10.0
572.0,0.12506104,0.041625977,-0.03100586,9.916031,-2.6641220000000003,-7.8702292,2019-08-19 11:24:00,10.0
573.0,0.11340332,0.035949707000000004,-0.02758789,9.625955000000001,1.2748091000000001,-4.8015265,2019-08-19 11:24:00,10.0
574.0,0.13134766,0.027832031,-0.03302002,6.259542,-0.78625953,-3.7404580000000003,2019-08-19 11:24:00,10.0
575.0,0.123046875,0.023864746000000003,-0.021606445,7.557252,-1.2137405,-0.86259544,2019-08-19 11:24:00,10.0
576.0,0.12347412,0.026611327999999997,-0.027038574,9.465649,-0.47328246,3.648855,2019-08-19 11:24:00,10.0
577.0,0.11486816400000001,0.029907227,-0.028076172000000003,4.923664,5.2290077,6.1679387000000006,2019-08-19 11:24:00,10.0
578.0,0.11560058599999999,0.028381347999999997,-0.023254395,0.7633588000000001,4.961832,6.3129773,2019-08-19 11:24:00,10.0
579.0,0.12615967,0.029724121000000003,-0.02911377,5.4503818,5.778626,6.931298,2019-08-19 11:24:00,10.0
580.0,0.11877441400000001,0.030395507999999998,-0.027282715,-0.70229006,6.80916,6.7480917,2019-08-19 11:24:00,10.0
581.0,0.12280273400000001,0.039794922,-0.02709961,1.480916,6.89313,6.038168,2019-08-19 11:24:00,10.0
582.0,0.12145996,0.034851073999999996,-0.02734375,1.7480916000000002,6.374046,6.9541984,2019-08-19 11:24:00,10.0
583.0,0.12512207,0.034362792999999996,-0.028076172000000003,6.885496000000001,5.740458,5.442748,2019-08-19 11:24:00,10.0
584.0,0.12121582,0.03338623,-0.030700684,8.908397,5.6870227,5.3893127,2019-08-19 11:24:00,10.0
585.0,0.12231445,0.03265381,-0.03173828,4.908396700000001,4.5496182,3.0305343,2019-08-19 11:24:00,10.0
586.0,0.12329101599999999,0.034851073999999996,-0.030456543,6.9770994,1.5419847,2.480916,2019-08-19 11:24:00,10.0
587.0,0.12164307,0.02960205,-0.024719237999999998,7.221374000000001,2.6183207000000004,0.3053435,2019-08-19 11:24:00,10.0
588.0,0.12774658,0.039489746,-0.027770996000000003,7.885496000000001,0.48091602,-0.6183206,2019-08-19 11:24:00,10.0
589.0,0.123046875,0.032348632999999995,-0.034851073999999996,7.7557254,2.129771,0.55725193,2019-08-19 11:24:00,10.0
590.0,0.11407471,0.033569336,-0.029785156,9.877863,1.0534351,-1.0458015,2019-08-19 11:24:00,10.0
591.0,0.12200928,0.029418945,-0.026123047000000003,9.396947,1.8625953999999998,-0.19083970000000003,2019-08-19 11:24:00,10.0
592.0,0.12615967,0.028869628999999997,-0.028320312,8.442748,2.0229008,0.13740458,2019-08-19 11:24:00,10.0
593.0,0.12573242,0.02923584,-0.031921387,5.625954,2.1450381000000003,0.16030534,2019-08-19 11:24:00,10.0
594.0,0.12835693,0.026428222999999997,-0.034851073999999996,4.9770994,1.2061069,2.5877862,2019-08-19 11:24:00,10.0
595.0,0.11993408,0.033813477,-0.025878906,4.0229006,-1.0839695,3.9007633000000004,2019-08-19 11:24:00,10.0
596.0,0.12365723,0.032409667999999996,-0.029296875,-1.9007633999999998,-4.633588,4.961832,2019-08-19 11:24:00,10.0
597.0,0.11566162,0.026245117000000002,-0.028442382999999998,-4.7175574000000005,-2.7404580000000003,7.961832000000001,2019-08-19 11:24:00,10.0
598.0,0.12487793,0.037231445,-0.037719727,-3.351145,-1.5343511,7.8244276,2019-08-19 11:24:00,10.0
599.0,0.123168945,0.028930664,-0.030578612999999998,-1.6412214,-4.4961834000000005,8.557252,2019-08-19 11:24:00,10.0
600.0,0.11828613,0.031982422,-0.032104492000000005,-8.977099,-5.1603055,5.6793895,2019-08-19 11:24:00,10.0
601.0,0.12188721,0.03265381,-0.03253174,-9.9007635,-8.305344,5.6412214999999994,2019-08-19 11:24:00,10.0
602.0,0.12005615,0.031677246,-0.03137207,-10.961832000000001,-10.396947,3.4198472,2019-08-19 11:24:00,10.0
603.0,0.11999512,0.03277588,-0.034729004,-14.473282999999999,-10.885496,1.8244275,2019-08-19 11:24:01,10.0
604.0,0.119628906,0.032226562,-0.03375244,-10.312977,-14.740458499999999,2.5114503,2019-08-19 11:24:01,10.0
605.0,0.12420654,0.030456543,-0.03527832,-12.2595415,-15.793892999999999,1.3282443000000002,2019-08-19 11:24:01,10.0
606.0,0.122924805,0.03741455,-0.030822753999999997,-14.374045,-10.320611,1.4045801000000002,2019-08-19 11:24:01,10.0
607.0,0.11706543,0.037353516,-0.026000977,-10.412213000000001,-9.122137,1.9923664,2019-08-19 11:24:01,10.0
608.0,0.11437988,0.033081055,-0.030273438,-6.4503818,-7.290076299999999,3.4503817999999997,2019-08-19 11:24:01,10.0
609.0,0.117248535,0.04156494,-0.028747559,-2.1984732000000005,-2.9312978,2.908397,2019-08-19 11:24:01,10.0
610.0,0.11096191400000001,0.030517577999999997,-0.029663086,0.36641222,3.908397,1.9389313000000001,2019-08-19 11:24:01,10.0
611.0,0.11779785,0.040649414,-0.036621094,3.053435,2.0229008,1.0076336,2019-08-19 11:24:01,10.0
612.0,0.11230469,0.03741455,-0.031555176000000004,2.610687,3.0076337000000004,0.33587787,2019-08-19 11:24:01,10.0
613.0,0.119140625,0.033508300000000005,-0.036376953,4.8778625,6.908396700000001,5.2977099999999995,2019-08-19 11:24:01,10.0
614.0,0.12524414,0.045532227,-0.035827637,11.366412,8.122137,3.076336,2019-08-19 11:24:01,10.0
615.0,0.12506104,0.037841797,-0.033569336,11.076336,7.4351144,4.068702,2019-08-19 11:24:01,10.0
616.0,0.11242676,0.028442382999999998,-0.036621094,10.290076,4.6870227,1.0610687,2019-08-19 11:24:01,10.0
617.0,0.12652588,0.03704834,-0.03277588,6.5496182,3.2519082999999998,-2.519084,2019-08-19 11:24:01,10.0
618.0,0.11767578,0.037902832000000004,-0.03704834,0.9541985000000001,1.7862595000000001,-4.412214,2019-08-19 11:24:01,10.0
619.0,0.11541748,0.03173828,-0.036254882999999995,0.31297709999999995,0.41221374,-4.0839696000000005,2019-08-19 11:24:01,10.0
620.0,0.12084961,0.02947998,-0.029968262000000002,-0.39694658,-0.32061067,-4.236641400000001,2019-08-19 11:24:01,10.0
621.0,0.11779785,0.036010742000000005,-0.028564452999999997,-2.6412212999999998,-3.0305343,-1.2137405,2019-08-19 11:24:01,10.0
622.0,0.11212158,0.033996582000000004,-0.04309082,-1.1374046,-0.77099234,2.2824428,2019-08-19 11:24:01,10.0
623.0,0.1161499,0.036865234,-0.032165527,3.3129769999999996,2.6564887,5.908396700000001,2019-08-19 11:24:01,10.0
624.0,0.12750244,0.039611816,-0.030822753999999997,4.145038,5.0305343,6.4274807,2019-08-19 11:24:01,10.0
625.0,0.11480713,0.03515625,-0.033508300000000005,6.0610685,7.8702292,4.0992365,2019-08-19 11:24:01,10.0
626.0,0.123168945,0.033508300000000005,-0.035705566,5.6183205,6.0229006,1.2748091000000001,2019-08-19 11:24:01,10.0
627.0,0.12310791,0.037963867000000005,-0.033935547,0.60305345,3.5114503,-0.061068702,2019-08-19 11:24:01,10.0
628.0,0.11437988,0.034851073999999996,-0.038391113,-2.1450381000000003,3.6946564,-1.1297709999999999,2019-08-19 11:24:01,10.0
629.0,0.11834717,0.027770996000000003,-0.036010742000000005,-3.1145039,0.29007635,-3.0992367,2019-08-19 11:24:01,10.0
630.0,0.11981201,0.037597656,-0.037353516,-1.9694656000000004,0.9694656999999999,-1.4503816,2019-08-19 11:24:01,10.0
631.0,0.12170410000000002,0.03387451,-0.036132812,0.5648854999999999,-0.3053435,-1.70229,2019-08-19 11:24:01,10.0
632.0,0.13000488,0.032165527,-0.036010742000000005,1.3053435,-1.3816794,0.47328246,2019-08-19 11:24:01,10.0
633.0,0.12432861,0.028686523,-0.03387451,-2.091603,1.3282443000000002,1.0839695,2019-08-19 11:24:01,10.0
634.0,0.11883545,0.030700684,-0.02734375,-3.167939,2.70229,0.07633588,2019-08-19 11:24:01,10.0
635.0,0.12170410000000002,0.03314209,-0.029663086,-0.77099234,2.3511450000000003,1.0229008,2019-08-19 11:24:01,10.0
636.0,0.11517334,0.032836914,-0.039001465,-0.7480916,2.6946564,1.1068702,2019-08-19 11:24:01,10.0
637.0,0.11743164,0.03125,-0.03741455,-1.8396946,2.6564887,1.3816794,2019-08-19 11:24:01,10.0
638.0,0.12005615,0.031555176000000004,-0.0345459,2.8931298,1.6717557,4.053435299999999,2019-08-19 11:24:02,10.0
639.0,0.12286377,0.04083252,-0.033691406,1.5038168,1.5267175,1.8931297999999999,2019-08-19 11:24:02,10.0
640.0,0.11785889,0.036804199999999995,-0.03741455,0.38167940000000006,-0.53435117,2.4732822999999997,2019-08-19 11:24:02,10.0
641.0,0.12451172,0.037963867000000005,-0.030334472999999997,1.6717557,0.21374045,0.259542,2019-08-19 11:24:02,10.0
642.0,0.12170410000000002,0.037231445,-0.029968262000000002,2.0839694,-0.6259541999999999,0.48091602,2019-08-19 11:24:02,10.0
643.0,0.12200928,0.042541504,-0.028869628999999997,5.931298,-0.5648854999999999,0.16793893,2019-08-19 11:24:02,10.0
644.0,0.12518310000000002,0.035888672,-0.02947998,6.847328,1.3587786,1.7938931,2019-08-19 11:24:02,10.0
645.0,0.12139892599999999,0.041015625,-0.035705566,12.473283,3.793893,0.84732825,2019-08-19 11:24:02,10.0
646.0,0.11920166,0.03729248,-0.039245605,13.038167999999999,1.9083970000000001,-1.1755725000000001,2019-08-19 11:24:02,10.0
647.0,0.1161499,0.034851073999999996,-0.032043457000000004,11.824428,2.091603,-2.3587787000000002,2019-08-19 11:24:02,10.0
648.0,0.11975098,0.03845215,-0.036254882999999995,15.648855,2.5114503,-2.312977,2019-08-19 11:24:02,10.0
649.0,0.11486816400000001,0.0357666,-0.031066895,14.763359,1.9923664,0.40458015,2019-08-19 11:24:02,10.0
650.0,0.11602783,0.03729248,-0.029541016,12.251908,3.648855,0.9541985000000001,2019-08-19 11:24:02,10.0
651.0,0.12158203,0.037475586,-0.029052734,10.053435,4.0152674,0.9694656999999999,2019-08-19 11:24:02,10.0
652.0,0.12121582,0.033508300000000005,-0.028686523,11.572519,1.9923664,1.8854961,2019-08-19 11:24:02,10.0
653.0,0.12200928,0.029846191,-0.03302002,9.770992,0.2977099,2.0687022,2019-08-19 11:24:02,10.0
654.0,0.12030029,0.03326416,-0.03515625,5.3893127,-0.061068702,0.39694658,2019-08-19 11:24:02,10.0
655.0,0.12030029,0.036865234,-0.032104492000000005,6.5419846,-2.3282442000000003,3.2442749,2019-08-19 11:24:02,10.0
656.0,0.121154785,0.03778076,-0.035827637,5.10687,1.3740458,2.8091602000000004,2019-08-19 11:24:02,10.0
657.0,0.11206055,0.03894043,-0.03741455,3.6335877999999995,2.4045799999999997,3.9694656999999998,2019-08-19 11:24:02,10.0
658.0,0.1227417,0.033691406,-0.033691406,5.183206,4.2977099999999995,3.9770992,2019-08-19 11:24:02,10.0
659.0,0.11859131,0.033935547,-0.040222167999999996,6.5496182,5.740458,4.076336,2019-08-19 11:24:02,10.0
660.0,0.11688232400000001,0.04095459,-0.034057617000000005,12.732824,7.8702292,3.70229,2019-08-19 11:24:02,10.0
661.0,0.111206055,0.035888672,-0.03552246,10.923664,7.8778625,5.9007635,2019-08-19 11:24:02,10.0
662.0,0.125,0.035827637,-0.035827637,11.450381,8.145039,6.519083999999999,2019-08-19 11:24:02,10.0
663.0,0.11798096,0.03289795,-0.036743164,14.816792999999999,9.038167999999999,4.946564700000001,2019-08-19 11:24:02,10.0
664.0,0.12030029,0.039489746,-0.03942871,18.305344,6.519083999999999,3.961832,2019-08-19 11:24:02,10.0
665.0,0.119140625,0.036376953,-0.032104492000000005,19.839695000000003,7.3129773,2.1526718,2019-08-19 11:24:02,10.0
666.0,0.11804199,0.032958984,-0.032104492000000005,15.511451000000001,2.4198472,0.71755725,2019-08-19 11:24:02,10.0
667.0,0.12451172,0.03253174,-0.04034424,15.21374,2.1526718,1.1145038999999999,2019-08-19 11:24:02,10.0
668.0,0.120910645,0.03253174,-0.036804199999999995,12.572519,0.0,1.4351145,2019-08-19 11:24:02,10.0
669.0,0.12738037,0.025024414,-0.038024902,3.832061,-0.8854962,-3.8931297999999996,2019-08-19 11:24:02,10.0
670.0,0.12176514,0.03186035,-0.0357666,1.6335878000000001,-0.9541985000000001,-6.10687,2019-08-19 11:24:02,10.0
671.0,0.11749267599999999,0.019836426,-0.041137695,0.08396947,0.31297709999999995,-7.114503999999999,2019-08-19 11:24:02,10.0
672.0,0.117248535,0.027526855,-0.029418945,-1.2824427,2.7480917000000002,-7.6946563999999995,2019-08-19 11:24:02,10.0
673.0,0.113098145,0.020690918,-0.029785156,4.1297708,3.129771,-3.3435113,2019-08-19 11:24:03,10.0
674.0,0.122924805,0.026977539,-0.030456543,1.5267175,8.320611,1.2748091000000001,2019-08-19 11:24:03,10.0
675.0,0.123046875,0.0357666,-0.030578612999999998,1.5954198999999998,13.053435,10.580152499999999,2019-08-19 11:24:03,10.0
676.0,0.11669922,0.037902832000000004,-0.030456543,8.419847500000001,15.442748000000002,12.862596,2019-08-19 11:24:03,10.0
677.0,0.12005615,0.038879395,-0.03942871,9.015267,15.465648999999999,15.40458,2019-08-19 11:24:03,10.0
678.0,0.1262207,0.037719727,-0.034851073999999996,13.351145,13.824428,14.816792999999999,2019-08-19 11:24:03,10.0
679.0,0.12017822,0.03491211,-0.029724121000000003,13.938931,12.091603,10.335877,2019-08-19 11:24:03,10.0
680.0,0.11846924,0.036254882999999995,-0.030578612999999998,13.687023000000002,9.473283,5.0229006,2019-08-19 11:24:03,10.0
681.0,0.12048339999999998,0.03186035,-0.023620605,9.442748,5.9007635,-2.3358779999999997,2019-08-19 11:24:03,10.0
682.0,0.12738037,0.032714844,-0.030578612999999998,13.480916,5.0610685,-6.221374,2019-08-19 11:24:03,10.0
683.0,0.12121582,0.034606934,-0.033447266,13.244275,7.290076299999999,-7.4274807,2019-08-19 11:24:03,10.0
684.0,0.12432861,0.022705077999999997,-0.03137207,16.045801,7.343511599999999,-8.290076,2019-08-19 11:24:03,10.0
685.0,0.12402344,0.02709961,-0.033996582000000004,16.450382,6.6488547,-7.7709923,2019-08-19 11:24:03,10.0
686.0,0.12152099599999999,0.02545166,-0.028930664,13.679389000000002,4.9160304,-6.2671757,2019-08-19 11:24:03,10.0
687.0,0.11566162,0.02154541,-0.031433105,10.091603,6.114504,-5.5648856,2019-08-19 11:24:03,10.0
688.0,0.11096191400000001,0.02520752,-0.026733398,8.648855000000001,4.40458,-0.9541985000000001,2019-08-19 11:24:03,10.0
689.0,0.124816895,0.034606934,-0.029785156,11.671756,4.10687,1.9083970000000001,2019-08-19 11:24:03,10.0
690.0,0.12066650400000001,0.022094727,-0.03363037,15.709923999999999,5.8625956,5.038168,2019-08-19 11:24:03,10.0
691.0,0.11975098,0.028564452999999997,-0.03778076,8.694656,9.801527,6.557252,2019-08-19 11:24:03,10.0
692.0,0.12414551,0.03302002,-0.030578612999999998,15.916031,10.381680000000001,5.809159999999999,2019-08-19 11:24:03,10.0
693.0,0.12060547,0.034484863,-0.02722168,18.458015,6.6946563999999995,6.10687,2019-08-19 11:24:03,10.0
694.0,0.12414551,0.027770996000000003,-0.034118652,8.106871,6.2977099999999995,3.3893129999999996,2019-08-19 11:24:03,10.0
695.0,0.12756348,0.026916503999999997,-0.03857422,7.70229,-0.49618322,1.3053435,2019-08-19 11:24:03,10.0
696.0,0.13153076,0.02758789,-0.024963378999999997,-2.9312978,-4.473282299999999,-2.8244274,2019-08-19 11:24:03,10.0
697.0,0.12908936,0.020690918,-0.030334472999999997,-8.183207000000001,-8.167939,-4.3053436,2019-08-19 11:24:03,10.0
698.0,0.11578369,0.026733398,-0.02746582,-7.9847326,-7.6946563999999995,-6.0610685,2019-08-19 11:24:03,10.0
699.0,0.12609863,0.027160645,-0.027770996000000003,-9.870229,-2.519084,-3.5496182000000003,2019-08-19 11:24:03,10.0
700.0,0.12542725,0.023986816,-0.032287598,-8.770992,-0.8396947,1.2061069,2019-08-19 11:24:03,10.0
701.0,0.12188721,0.020507812,-0.03527832,-3.2442749,3.8931297999999996,4.9389315,2019-08-19 11:24:03,10.0
702.0,0.12023926,0.022094727,-0.029724121000000003,1.2824427,5.6183205,9.755725,2019-08-19 11:24:03,10.0
703.0,0.12225342,0.025817871000000003,-0.034484863,-1.8167938999999997,5.9007635,11.7786255,2019-08-19 11:24:03,10.0
704.0,0.12036133,0.03137207,-0.029541016,-2.4351146,4.816794,10.328244,2019-08-19 11:24:03,10.0
705.0,0.121032715,0.032165527,-0.026428222999999997,-3.8015267999999995,6.4351144,11.992367,2019-08-19 11:24:03,10.0
706.0,0.13403320000000002,0.03564453,-0.029846191,-2.687023,5.9694657,7.0839696,2019-08-19 11:24:03,10.0
707.0,0.11883545,0.03289795,-0.02911377,-0.5648854999999999,6.923664,6.1374044,2019-08-19 11:24:03,10.0
708.0,0.12365723,0.032470703,-0.033081055,-0.610687,8.961832000000001,5.5038165999999995,2019-08-19 11:24:03,10.0
709.0,0.11627197,0.036621094,-0.038024902,3.2671757,9.549619,4.931298,2019-08-19 11:24:03,10.0
710.0,0.12054443,0.038635254,-0.035949707000000004,6.4885497,7.1755724,4.557252,2019-08-19 11:24:03,10.0
711.0,0.12005615,0.032958984,-0.039123535,9.305344,6.5419846,3.1908397999999996,2019-08-19 11:24:04,10.0
712.0,0.12133789,0.033203125,-0.033813477,12.305344,4.0610685,-0.55725193,2019-08-19 11:24:04,10.0
713.0,0.117370605,0.037719727,-0.026489257999999998,13.030535,0.2977099,-4.625954,2019-08-19 11:24:04,10.0
714.0,0.12182617,0.03314209,-0.031066895,14.824428,0.8091603,-7.7175574000000005,2019-08-19 11:24:04,10.0
715.0,0.12420654,0.029541016,-0.02319336,16.389313,3.1374047000000003,-10.473283,2019-08-19 11:24:04,10.0
716.0,0.13305664,0.032348632999999995,-0.020812988,11.412213000000001,0.5954198,-9.045800999999999,2019-08-19 11:24:04,10.0
717.0,0.12573242,0.018493652,-0.032409667999999996,10.015267,1.7328244,-7.030534299999999,2019-08-19 11:24:04,10.0
718.0,0.12347412,0.02508545,-0.028381347999999997,6.374046,-1.6335878000000001,-5.7022900000000005,2019-08-19 11:24:04,10.0
719.0,0.12329101599999999,0.02709961,-0.026733398,5.4961834000000005,-0.38931298,-6.091603299999999,2019-08-19 11:24:04,10.0
720.0,0.12451172,0.021728516,-0.027282715,0.22900763,-2.5648854,-1.5877863,2019-08-19 11:24:04,10.0
721.0,0.12182617,0.031799316,-0.024780273,-0.8854962,-1.961832,0.54198474,2019-08-19 11:24:04,10.0
722.0,0.123046875,0.02709961,-0.026184082,-0.54198474,1.7786259999999998,2.0839694,2019-08-19 11:24:04,10.0
723.0,0.11938476599999999,0.023620605,-0.028564452999999997,-0.8091603,2.3969467,3.6641220000000003,2019-08-19 11:24:04,10.0
724.0,0.11254883,0.030090332,-0.03302002,-6.335878,4.847328,4.809159999999999,2019-08-19 11:24:04,10.0
725.0,0.12121582,0.028320312,-0.032714844,-1.0,3.70229,6.8244276,2019-08-19 11:24:04,10.0
726.0,0.11029053,0.025512695,-0.03253174,-1.8702290000000001,3.1603053,6.4580154,2019-08-19 11:24:04,10.0
727.0,0.12213135,0.030822753999999997,-0.029968262000000002,-3.6106870000000004,3.70229,5.4351144,2019-08-19 11:24:04,10.0
728.0,0.11480713,0.036254882999999995,-0.026672362999999998,-1.6564884999999998,4.10687,5.9541984,2019-08-19 11:24:04,10.0
729.0,0.11920166,0.03527832,-0.031921387,-1.4961832,2.8778627,5.671755999999999,2019-08-19 11:24:04,10.0
730.0,0.12475586,0.03527832,-0.02911377,3.1984732000000005,4.931298,3.5877862,2019-08-19 11:24:04,10.0
731.0,0.12072754,0.032104492000000005,-0.029663086,2.8854961,4.519083999999999,3.465649,2019-08-19 11:24:04,10.0
732.0,0.12066650400000001,0.032714844,-0.03491211,4.3206105,1.7862595000000001,1.5496184,2019-08-19 11:24:04,10.0
733.0,0.11895752,0.031982422,-0.02355957,2.946565,2.167939,2.3206108,2019-08-19 11:24:04,10.0
734.0,0.12463379,0.033325195,-0.03186035,4.0839696000000005,0.6259541999999999,-0.77862597,2019-08-19 11:24:04,10.0
735.0,0.12097168,0.030151367000000002,-0.028991700000000002,5.145038,1.9694656000000004,-1.1526718,2019-08-19 11:24:04,10.0
736.0,0.11877441400000001,0.028747559,-0.025817871000000003,5.068702,-0.64122134,0.35877863,2019-08-19 11:24:04,10.0
737.0,0.11407471,0.027893066,-0.030761719,5.778626,0.90076333,-1.2290076,2019-08-19 11:24:04,10.0
738.0,0.12286377,0.022155762000000002,-0.026306152000000003,2.6030533,0.06870229,0.061068702,2019-08-19 11:24:04,10.0
739.0,0.12310791,0.025695799999999998,-0.032165527,0.9389313,1.6870228999999999,1.4961832,2019-08-19 11:24:04,10.0
740.0,0.12542725,0.03326416,-0.024658202999999997,0.77862597,2.8549618999999997,0.6870229,2019-08-19 11:24:04,10.0
741.0,0.12573242,0.034240723,-0.037597656,2.7099237,2.2824428,2.3435113,2019-08-19 11:24:04,10.0
742.0,0.11669922,0.02758789,-0.02960205,1.2137405,2.557252,2.091603,2019-08-19 11:24:04,10.0
743.0,0.119140625,0.02923584,-0.036499023,1.4503816,0.9694656999999999,2.3282442000000003,2019-08-19 11:24:04,10.0
744.0,0.122924805,0.028137207,-0.032409667999999996,-1.961832,2.2595419999999997,3.206107,2019-08-19 11:24:04,10.0
745.0,0.121032715,0.02331543,-0.02532959,-1.519084,-0.34351146,5.473282299999999,2019-08-19 11:24:04,10.0
746.0,0.11688232400000001,0.02947998,-0.030273438,-1.610687,0.6183206,4.7022900000000005,2019-08-19 11:24:05,10.0
747.0,0.11968994,0.031188965,-0.027038574,2.206107,-0.26717559,4.0,2019-08-19 11:24:05,10.0
748.0,0.11932373,0.031799316,-0.030334472999999997,0.29007635,1.3816794,2.5801528,2019-08-19 11:24:05,10.0
749.0,0.12548828,0.035217285,-0.027160645,3.1450381000000003,4.1603055,3.923664,2019-08-19 11:24:05,10.0
750.0,0.12280273400000001,0.031188965,-0.026062012000000002,4.5114503,2.2442749,1.1374046,2019-08-19 11:24:05,10.0
751.0,0.12518310000000002,0.027282715,-0.031555176000000004,1.2824427,2.4503817999999997,2.1221373,2019-08-19 11:24:05,10.0
752.0,0.12194824,0.028259277000000003,-0.033813477,3.2595419999999997,3.206107,1.8396946,2019-08-19 11:24:05,10.0
753.0,0.11938476599999999,0.027404785,-0.03326416,2.0305343000000002,4.816794,3.3129769999999996,2019-08-19 11:24:05,10.0
754.0,0.12261963,0.027038574,-0.031311035,5.961832,4.740458,4.0305343,2019-08-19 11:24:05,10.0
755.0,0.12561035,0.03540039,-0.031188965,6.396946400000001,4.1221375,2.3206108,2019-08-19 11:24:05,10.0
756.0,0.1194458,0.027282715,-0.034301757999999995,2.6641220000000003,4.6870227,1.8625953999999998,2019-08-19 11:24:05,10.0
757.0,0.12188721,0.03314209,-0.02722168,5.1374044,3.4274809999999998,0.259542,2019-08-19 11:24:05,10.0
758.0,0.11633301,0.029174805,-0.03302002,5.1984735,1.7404580000000003,0.06870229,2019-08-19 11:24:05,10.0
759.0,0.11407471,0.02508545,-0.032958984,2.9770992,1.8931297999999999,0.77862597,2019-08-19 11:24:05,10.0
760.0,0.11877441400000001,0.032409667999999996,-0.027709961,2.6641220000000003,1.351145,-0.46564886,2019-08-19 11:24:05,10.0
761.0,0.12579346,0.028625487999999998,-0.030273438,2.3587787000000002,0.31297709999999995,1.8702290000000001,2019-08-19 11:24:05,10.0
762.0,0.12487793,0.029418945,-0.026672362999999998,-0.7251908,0.22900763,0.9236641,2019-08-19 11:24:05,10.0
763.0,0.12158203,0.025939941,-0.025268555,-0.7251908,1.2366412,0.38167940000000006,2019-08-19 11:24:05,10.0
764.0,0.123535156,0.026550293,-0.027648926,2.519084,2.6717557999999997,1.038168,2019-08-19 11:24:05,10.0
765.0,0.11218262,0.023376465,-0.029968262000000002,0.89312977,1.3358778999999998,3.2595419999999997,2019-08-19 11:24:05,10.0
766.0,0.11755371,0.030151367000000002,-0.030273438,-4.633588,0.45801526,3.4122138,2019-08-19 11:24:05,10.0
767.0,0.11468506,0.028198242000000002,-0.033691406,-4.0992365,1.038168,4.9389315,2019-08-19 11:24:05,10.0
768.0,0.11651611,0.03125,-0.030578612999999998,-4.4885497,0.6335878,3.9770992,2019-08-19 11:24:05,10.0
769.0,0.11462402,0.031433105,-0.02557373,-1.6793894,1.3816794,1.2061069,2019-08-19 11:24:05,10.0
770.0,0.11480713,0.03387451,-0.026245117000000002,-0.9541985000000001,0.77099234,3.0076337000000004,2019-08-19 11:24:05,10.0
771.0,0.12268066400000001,0.032348632999999995,-0.025512695,1.4580153,1.9694656000000004,1.7175573,2019-08-19 11:24:05,10.0
772.0,0.11401367,0.030883789,-0.030273438,2.3206108,1.9312977,1.2824427,2019-08-19 11:24:05,10.0
773.0,0.11968994,0.03289795,-0.032104492000000005,-0.114503816,2.0,1.6564884999999998,2019-08-19 11:24:05,10.0
774.0,0.11608887,0.034729004,-0.03387451,2.4580152,1.6870228999999999,2.9312978,2019-08-19 11:24:05,10.0
775.0,0.11706543,0.035949707000000004,-0.03314209,1.3969465,1.2671756,3.2290077,2019-08-19 11:24:05,10.0
776.0,0.12121582,0.03338623,-0.026977539,2.9389312000000003,1.5419847,1.6793894,2019-08-19 11:24:05,10.0
777.0,0.11376953,0.032836914,-0.029724121000000003,2.2824428,2.4961832000000004,0.73282444,2019-08-19 11:24:05,10.0
778.0,0.11297607400000001,0.033813477,-0.026733398,1.6259542,2.2137403,1.961832,2019-08-19 11:24:05,10.0
779.0,0.12072754,0.025756836,-0.02911377,3.7251909,-0.9236641,0.9694656999999999,2019-08-19 11:24:05,10.0
780.0,0.11938476599999999,0.02734375,-0.025939941,2.2442749,-0.030534351,2.2900763,2019-08-19 11:24:05,10.0
781.0,0.11602783,0.03375244,-0.028747559,-1.3664121999999999,-0.259542,2.312977,2019-08-19 11:24:05,10.0
782.0,0.11553955,0.03491211,-0.023742676,-1.8625953999999998,0.38167940000000006,2.3816792999999996,2019-08-19 11:24:06,10.0
783.0,0.11602783,0.030578612999999998,-0.023498535,1.2748091000000001,0.33587787,3.0305343,2019-08-19 11:24:06,10.0
784.0,0.11230469,0.029541016,-0.027648926,-0.39694658,-0.53435117,2.5648854,2019-08-19 11:24:06,10.0
785.0,0.11706543,0.031311035,-0.025756836,-4.816794,1.2748091000000001,2.2824428,2019-08-19 11:24:06,10.0
786.0,0.11663818,0.029785156,-0.03503418,-1.4198473999999999,0.3740458,1.9770991999999998,2019-08-19 11:24:06,10.0
787.0,0.11749267599999999,0.028503418,-0.02758789,-2.1984732000000005,-1.0610687,-0.045801528,2019-08-19 11:24:06,10.0
788.0,0.11486816400000001,0.029785156,-0.03125,-5.038168,-2.4045799999999997,2.1603053,2019-08-19 11:24:06,10.0
789.0,0.11004639,0.031188965,-0.025756836,-3.3129769999999996,-2.0687022,1.1984733,2019-08-19 11:24:06,10.0
790.0,0.11102295,0.033081055,-0.027038574,-3.4198472,-2.3587787000000002,-0.19847329,2019-08-19 11:24:06,10.0
791.0,0.11834717,0.029785156,-0.025268555,-0.89312977,-1.2900764,1.0076336,2019-08-19 11:24:06,10.0
792.0,0.11279297,0.032043457000000004,-0.032165527,-2.3969467,1.9160305,1.5419847,2019-08-19 11:24:06,10.0
793.0,0.10736084,0.030578612999999998,-0.024963378999999997,0.24427481,2.6335877999999995,1.389313,2019-08-19 11:24:06,10.0
794.0,0.115722656,0.026245117000000002,-0.028137207,0.19083970000000003,3.8167940000000002,0.47328246,2019-08-19 11:24:06,10.0
795.0,0.11804199,0.024230957,-0.033325195,-1.1145038999999999,2.6259542000000002,2.129771,2019-08-19 11:24:06,10.0
796.0,0.11938476599999999,0.030334472999999997,-0.028991700000000002,-0.66412216,0.45038167,2.0610688,2019-08-19 11:24:06,10.0
797.0,0.11584473,0.03857422,-0.03253174,-0.2519084,-1.0992366000000002,1.610687,2019-08-19 11:24:06,10.0
798.0,0.11248779,0.031982422,-0.027404785,1.8931297999999999,1.2442749,2.8625952999999997,2019-08-19 11:24:06,10.0
799.0,0.11090088,0.028259277000000003,-0.035583496,-1.2977100000000001,1.1526718,2.091603,2019-08-19 11:24:06,10.0
800.0,0.113464355,0.038391113,-0.026000977,0.6259541999999999,2.519084,1.961832,2019-08-19 11:24:06,10.0
801.0,0.118652344,0.025024414,-0.022766112999999998,1.6564884999999998,1.8396946,1.4503816,2019-08-19 11:24:06,10.0
802.0,0.11505127,0.02935791,-0.033691406,-2.3358779999999997,2.312977,0.114503816,2019-08-19 11:24:06,10.0
803.0,0.10992432,0.028076172000000003,-0.028686523,-5.3816795,0.40458015,-1.6717557,2019-08-19 11:24:06,10.0
804.0,0.109558105,0.032409667999999996,-0.02319336,-2.3969467,-0.122137405,-1.6793894,2019-08-19 11:24:06,10.0
805.0,0.11035156,0.035461426000000004,-0.025878906,-0.4274809,1.5648855,-1.480916,2019-08-19 11:24:06,10.0
806.0,0.11138916,0.030151367000000002,-0.03503418,1.480916,5.1603055,-0.71755725,2019-08-19 11:24:06,10.0
807.0,0.12335205,0.031066895,-0.026550293,-0.8702290000000001,6.2137402999999996,2.519084,2019-08-19 11:24:06,10.0
808.0,0.117370605,0.02545166,-0.032043457000000004,5.961832,7.969465700000001,4.1297708,2019-08-19 11:24:06,10.0
809.0,0.11761474599999999,0.030639648,-0.03100586,-1.2366412,6.221374,4.4580154,2019-08-19 11:24:06,10.0
810.0,0.11517334,0.03857422,-0.03540039,8.984733,2.4580152,7.0152674,2019-08-19 11:24:06,10.0
811.0,0.11761474599999999,0.024230957,-0.027648926,4.6183205,2.8854961,6.5801525,2019-08-19 11:24:06,10.0
812.0,0.117126465,0.032287598,-0.032287598,3.6641220000000003,1.9160305,7.343511599999999,2019-08-19 11:24:06,10.0
813.0,0.11676025400000001,0.02911377,-0.031433105,8.580152499999999,1.9312977,8.603053,2019-08-19 11:24:06,10.0
814.0,0.11743164,0.029846191,-0.022460938,6.412214,0.73282444,7.343511599999999,2019-08-19 11:24:06,10.0
815.0,0.11169433599999999,0.02545166,-0.028381347999999997,7.183206,2.1221373,5.59542,2019-08-19 11:24:06,10.0
816.0,0.11260986,0.03387451,-0.030090332,6.4961834000000005,2.8778627,5.625954,2019-08-19 11:24:06,10.0
817.0,0.10998535,0.024108887000000002,-0.03527832,3.8473281999999998,1.9541985,4.7175574000000005,2019-08-19 11:24:07,10.0
818.0,0.11584473,0.03137207,-0.03173828,1.8396946,1.9007633999999998,5.190840000000001,2019-08-19 11:24:07,10.0
819.0,0.111816406,0.027648926,-0.028686523,2.870229,1.5038168,5.5343513,2019-08-19 11:24:07,10.0
820.0,0.11791992,0.03173828,-0.034301757999999995,1.9236640999999999,0.49618322,5.7251905999999995,2019-08-19 11:24:07,10.0
821.0,0.1260376,0.028015137000000002,-0.028991700000000002,0.13740458,-0.45038167,6.3511453,2019-08-19 11:24:07,10.0
822.0,0.121032715,0.027954102,-0.032348632999999995,-4.778626,-2.2748091,7.0152674,2019-08-19 11:24:07,10.0
823.0,0.11578369,0.02508545,-0.033325195,-3.351145,-2.167939,10.274809,2019-08-19 11:24:07,10.0
824.0,0.11401367,0.03149414,-0.032348632999999995,1.1221374,-3.4961832000000004,11.358779,2019-08-19 11:24:07,10.0
825.0,0.11810303,0.03173828,-0.028137207,5.2748094000000005,-1.8015267,13.572519,2019-08-19 11:24:07,10.0
826.0,0.10571289,0.026123047000000003,-0.02319336,5.3587785000000006,-0.4274809,12.465649,2019-08-19 11:24:07,10.0
827.0,0.11749267599999999,0.024291992000000002,-0.028503418,4.59542,-0.7633588000000001,14.259541500000001,2019-08-19 11:24:07,10.0
828.0,0.11663818,0.026062012000000002,-0.032104492000000005,-1.1450381,-1.1603054,13.091603,2019-08-19 11:24:07,10.0
829.0,0.11169433599999999,0.018188476999999998,-0.032104492000000005,-6.5419846,-1.5648855,13.938931,2019-08-19 11:24:07,10.0
830.0,0.12677002,0.026977539,-0.030334472999999997,-5.7175574000000005,-1.6946564999999998,16.412214000000002,2019-08-19 11:24:07,10.0
831.0,0.11761474599999999,0.015014648,-0.03503418,-0.053435113,-2.3435113,15.534351000000001,2019-08-19 11:24:07,10.0
832.0,0.119262695,0.013427733999999998,-0.028381347999999997,-8.977099,-3.129771,15.679389000000002,2019-08-19 11:24:07,10.0
833.0,0.11248779,0.017211914,-0.026062012000000002,-18.587785999999998,-3.2519082999999998,14.206107000000001,2019-08-19 11:24:07,10.0
834.0,0.10675049,0.02331543,-0.036499023,-21.458015,2.519084,10.549619,2019-08-19 11:24:07,10.0
835.0,0.10858154,0.021911621000000003,-0.03845215,-4.7251905999999995,3.3816792999999996,12.053435,2019-08-19 11:24:07,10.0
836.0,0.12347412,0.026184082,-0.04333496,7.076336,5.946564700000001,10.893129,2019-08-19 11:24:07,10.0
837.0,0.12573242,0.02130127,-0.03930664,-3.8778627,3.793893,7.4274807,2019-08-19 11:24:07,10.0
838.0,0.128479,0.02746582,-0.03527832,-6.7175574000000005,-6.9770994,-3.6793892,2019-08-19 11:24:07,10.0
839.0,0.12084961,0.0357666,-0.02911377,-0.9694656999999999,-13.992367000000002,-12.557252,2019-08-19 11:24:07,10.0
840.0,0.10601807,0.021972656,-0.024108887000000002,8.748092,-18.648854999999998,-16.832062,2019-08-19 11:24:07,10.0
841.0,0.10119629,0.02557373,-0.015686035,-4.412214,-9.9007635,-24.877863,2019-08-19 11:24:07,10.0
842.0,0.11071777,0.023071289,-0.028076172000000003,13.114504,-5.2900763,-24.656488,2019-08-19 11:24:07,10.0
843.0,0.103637695,0.022277832,-0.022155762000000002,17.648854999999998,2.3740457999999998,-24.10687,2019-08-19 11:24:07,10.0
844.0,0.11199951,0.016418457,-0.02319336,24.114504,9.129771,-21.274809,2019-08-19 11:24:07,10.0
845.0,0.10882568,0.019348145,-0.02142334,13.419847500000001,12.877863,-18.809160000000002,2019-08-19 11:24:07,10.0
846.0,0.11016846,0.02709961,-0.026977539,2.2137403,15.21374,-14.625955,2019-08-19 11:24:07,10.0
847.0,0.12188721,0.028564452999999997,-0.034118652,5.091603299999999,19.847328,-7.0,2019-08-19 11:24:07,10.0
848.0,0.117248535,0.032043457000000004,-0.028076172000000003,16.099237,26.847328000000005,3.0458016,2019-08-19 11:24:07,10.0
849.0,0.12792969,0.021118164,-0.033508300000000005,19.885496,28.450382,6.2137402999999996,2019-08-19 11:24:07,10.0
850.0,0.11785889,0.027893066,-0.032287598,21.51145,28.526718,8.0,2019-08-19 11:24:07,10.0
851.0,0.10577392599999999,0.03302002,-0.03277588,16.587785999999998,24.496183,0.114503816,2019-08-19 11:24:07,10.0
852.0,0.11547851599999999,0.030151367000000002,-0.03253174,26.732824,20.435114000000002,-3.4198472,2019-08-19 11:24:07,10.0
853.0,0.12182617,0.03186035,-0.031311035,31.435114000000002,13.679389000000002,-5.6488547,2019-08-19 11:24:07,10.0
854.0,0.11743164,0.033813477,-0.026794434,18.954199,3.6564887,-9.648855000000001,2019-08-19 11:24:08,10.0
855.0,0.12005615,0.0357666,-0.02758789,4.9007635,4.8396945,-12.870229,2019-08-19 11:24:08,10.0
856.0,0.11468506,0.044189453,-0.025939941,12.21374,9.702291,-14.137404,2019-08-19 11:24:08,10.0
857.0,0.11096191400000001,0.03668213,-0.023071289,19.274809,10.580152499999999,-13.992367000000002,2019-08-19 11:24:08,10.0
858.0,0.11102295,0.034240723,-0.022216797000000003,10.488549,6.7328243,-13.954199,2019-08-19 11:24:08,10.0
859.0,0.10778808599999999,0.039855957000000004,-0.030639648,9.229008,9.847328,-16.809160000000002,2019-08-19 11:24:08,10.0
860.0,0.12182617,0.034606934,-0.02722168,13.145039,19.954199,-4.4198474999999995,2019-08-19 11:24:08,10.0
861.0,0.1194458,0.032226562,-0.025756836,35.404579999999996,8.854961,-3.2595419999999997,2019-08-19 11:24:08,10.0
862.0,0.11663818,0.0345459,-0.030090332,8.358779,8.0992365,-7.3511453,2019-08-19 11:24:08,10.0
863.0,0.11669922,0.034240723,-0.028991700000000002,-16.824427,9.145039,-9.7404585,2019-08-19 11:24:08,10.0
864.0,0.10876465,0.043151855,-0.032836914,-6.9389315,5.7099237,-10.198473,2019-08-19 11:24:08,10.0
865.0,0.10369873,0.04510498,-0.033935547,6.0610685,2.7557251,-9.381680000000001,2019-08-19 11:24:08,10.0
866.0,0.11425781,0.03326416,-0.030456543,9.854961,4.656488400000001,-9.007633,2019-08-19 11:24:08,10.0
867.0,0.11053467,0.038208007999999995,-0.022094727,10.534351,6.259542,-2.2137403,2019-08-19 11:24:08,10.0
868.0,0.11657715,0.03338623,-0.024047852,10.465649,5.2671757,0.6259541999999999,2019-08-19 11:24:08,10.0
869.0,0.11047363,0.035827637,-0.026611327999999997,0.7480916,10.2595415,-1.519084,2019-08-19 11:24:08,10.0
870.0,0.11029053,0.038879395,-0.022949219,6.847328,10.496183,-0.6793893,2019-08-19 11:24:08,10.0
871.0,0.1026001,0.040222167999999996,-0.022888184,15.824428,10.969465,2.6335877999999995,2019-08-19 11:24:08,10.0
872.0,0.11212158,0.03717041,-0.019714355,21.732824,14.21374,10.641221,2019-08-19 11:24:08,10.0
873.0,0.10894775400000001,0.037902832000000004,-0.029907227,29.793894,19.183207,13.748092000000002,2019-08-19 11:24:08,10.0
874.0,0.11138916,0.036804199999999995,-0.019104003999999997,38.732826,20.389313,17.053434,2019-08-19 11:24:08,10.0
875.0,0.10308838,0.028198242000000002,-0.030090332,45.419846,20.671754999999997,20.885496,2019-08-19 11:24:08,10.0
876.0,0.11596680000000001,0.032958984,-0.014038086000000002,48.839695,20.221375,22.725191,2019-08-19 11:24:08,10.0
877.0,0.11816406,0.0357666,-0.016479492,46.717556,18.045801,21.625954,2019-08-19 11:24:08,10.0
878.0,0.11981201,0.025268555,-0.021240234,43.732826,20.267176,25.259542,2019-08-19 11:24:08,10.0
879.0,0.14794922,0.027770996000000003,-0.012756348,32.709922999999996,18.51145,28.06107,2019-08-19 11:24:08,10.0
880.0,0.14642334,0.028259277000000003,-0.011474608999999998,15.396947,14.015267000000001,29.152671999999995,2019-08-19 11:24:08,10.0
881.0,0.12249756,0.01751709,-0.005432129,-42.14504,19.175573,22.122137,2019-08-19 11:24:08,10.0
882.0,0.12377930000000001,0.029418945,-0.017578125,-83.70229,18.12977,17.694656,2019-08-19 11:24:08,10.0
883.0,0.119140625,0.032409667999999996,-0.018981934,-80.44275,15.152672,15.519084,2019-08-19 11:24:08,10.0
884.0,0.12512207,0.032958984,-0.0107421875,-74.05344000000001,13.473282999999999,16.694656,2019-08-19 11:24:08,10.0
885.0,0.124938965,0.03930664,-0.019958496000000003,-18.38168,9.977099,25.656488,2019-08-19 11:24:08,10.0
886.0,0.12371826,0.04296875,-0.023254395,33.564884,16.351145000000002,31.42748,2019-08-19 11:24:08,10.0
887.0,0.11877441400000001,0.03741455,-0.020507812,78.32061,18.297710000000002,34.931297,2019-08-19 11:24:08,10.0
888.0,0.12738037,0.03186035,-0.018737793,71.16031,10.526717,26.32061,2019-08-19 11:24:09,10.0
889.0,0.11096191400000001,0.022521972999999997,-0.025939941,44.908398,2.0458016,12.923664,2019-08-19 11:24:09,10.0
890.0,0.10821533,0.020568848,-0.017028809,13.091603,-12.045800999999999,0.8778626,2019-08-19 11:24:09,10.0
891.0,0.11108398400000001,0.03137207,-0.024536132999999998,-10.625955000000001,-18.08397,-9.305344,2019-08-19 11:24:09,10.0
892.0,0.12243652,0.025878906,-0.020874023000000002,0.23664123,-16.503817,-13.832060999999998,2019-08-19 11:24:09,10.0
893.0,0.12030029,0.0211792,-0.018249512,10.129771,-11.030535,-14.984732999999999,2019-08-19 11:24:09,10.0
894.0,0.12371826,0.01965332,-0.024353027000000003,37.427483,-3.1068702,-11.618319999999999,2019-08-19 11:24:09,10.0
895.0,0.12402344,0.020812988,-0.013366699,62.610687,4.412214,-4.8244276,2019-08-19 11:24:09,10.0
896.0,0.11694336,0.012634277,-0.021484375,73.35878000000001,7.3664119999999995,-2.183206,2019-08-19 11:24:09,10.0
897.0,0.11383057,0.010375977,-0.019470215,72.8855,8.80916,-4.5038165999999995,2019-08-19 11:24:09,10.0
898.0,0.11236572,0.0099487305,-0.02331543,65.62595,5.603053599999999,-4.4885497,2019-08-19 11:24:09,10.0
899.0,0.12121582,0.012390136999999999,-0.018188476999999998,60.984733999999996,0.099236645,-5.5038165999999995,2019-08-19 11:24:09,10.0
900.0,0.11791992,0.01586914,-0.022277832,55.297709999999995,1.0076336,-5.908396700000001,2019-08-19 11:24:09,10.0
901.0,0.11364746,0.012084961000000002,-0.013183594,55.984733999999996,4.053435299999999,-4.2290077,2019-08-19 11:24:09,10.0
902.0,0.114746094,0.015319824,-0.0099487305,53.55725,7.1984735,-3.7480917000000002,2019-08-19 11:24:09,10.0
903.0,0.1182251,0.008666992,-0.011352538999999998,52.076336,8.106871,-0.73282444,2019-08-19 11:24:09,10.0
904.0,0.12329101599999999,0.020385742,-0.017028809,53.0229,9.862596,-0.60305345,2019-08-19 11:24:09,10.0
905.0,0.122924805,0.017456055,-0.014465332,49.274809999999995,13.648855,-3.0992367,2019-08-19 11:24:09,10.0
906.0,0.12994385,0.020812988,-0.010620117,44.618320000000004,13.748092000000002,-5.59542,2019-08-19 11:24:09,10.0
907.0,0.12280273400000001,0.019470215,-0.017944336,43.87786,20.312977,-8.106871,2019-08-19 11:24:09,10.0
908.0,0.12139892599999999,0.01574707,-0.008728027,47.320609999999995,19.419847,-9.435115,2019-08-19 11:24:09,10.0
909.0,0.12805176,0.024963378999999997,-0.018859863,43.419846,20.282442,-10.923664,2019-08-19 11:24:09,10.0
910.0,0.11828613,0.01184082,-0.020385742,38.595420000000004,19.099237,-14.755725,2019-08-19 11:24:09,10.0
911.0,0.13317871,0.019348145,-0.01361084,29.793894,14.251907999999998,-16.954199,2019-08-19 11:24:09,10.0
912.0,0.15808105,0.018066406,-0.013671875,18.038168,12.206107000000001,-15.274809,2019-08-19 11:24:09,10.0
913.0,0.15234375,0.018127441,-0.017456055,23.778625,14.137404,-15.946565,2019-08-19 11:24:09,10.0
914.0,0.15698242,0.016906738,-0.015319824,17.038168,17.664122,-9.541985,2019-08-19 11:24:09,10.0
915.0,0.1373291,0.02178955,-0.010192871,22.396946,14.717557000000001,-12.656488000000001,2019-08-19 11:24:09,10.0
916.0,0.12121582,0.027954102,-0.022277832,21.045801,12.358779,-14.328244,2019-08-19 11:24:09,10.0
917.0,0.1071167,0.017456055,-0.015808105,33.06107,7.3206105,-20.519083,2019-08-19 11:24:09,10.0
918.0,0.099487305,0.021972656,-0.01373291,46.770992,4.0839696000000005,-18.450382,2019-08-19 11:24:09,10.0
919.0,0.11230469,0.021118164,-0.008056641,50.603054,3.351145,-13.534351000000001,2019-08-19 11:24:09,10.0
920.0,0.123168945,0.026611327999999997,-0.006042480500000001,55.59542,-0.9694656999999999,-2.7557251,2019-08-19 11:24:09,10.0
921.0,0.12371826,0.02947998,-0.0045776367,53.778625,1.091603,6.2977099999999995,2019-08-19 11:24:09,10.0
922.0,0.140625,0.028930664,0.0119018555,49.08397,3.4351146,14.328244,2019-08-19 11:24:09,10.0
923.0,0.14105225,0.028198242000000002,0.0134887695,39.633587,-2.8015267999999995,10.717557000000001,2019-08-19 11:24:09,10.0
924.0,0.12921143,0.036193848,0.003967285,26.57252,-0.47328246,4.923664,2019-08-19 11:24:09,10.0
925.0,0.12780762,0.030456543,-0.0028686523,19.87023,6.2061067,-1.4274809,2019-08-19 11:24:10,10.0
926.0,0.10827637,0.042114257999999995,-0.007629394499999999,27.374046000000003,12.290076,-10.160305000000001,2019-08-19 11:24:10,10.0
927.0,0.10839844,0.034423828,-0.0010375977,47.519085,10.748092,-14.61832,2019-08-19 11:24:10,10.0
928.0,0.12243652,0.03363037,-0.0043945312,46.396946,1.3358778999999998,-18.526718,2019-08-19 11:24:10,10.0
929.0,0.12414551,0.038330078,-0.0005493164,37.541985,0.19847329,-20.114504,2019-08-19 11:24:10,10.0
930.0,0.12036133,0.029541016,-6.1035155999999994e-05,21.862595000000002,-0.31297709999999995,-15.106871,2019-08-19 11:24:10,10.0
931.0,0.11804199,0.029663086,0.0010986328,14.687023000000002,1.3053435,-10.793892999999999,2019-08-19 11:24:10,10.0
932.0,0.12512207,0.030395507999999998,-0.0028686523,4.7251905999999995,4.1755724,-7.4503818,2019-08-19 11:24:10,10.0
933.0,0.12066650400000001,0.038208007999999995,-0.0017089844000000001,5.7480917,4.366412,-3.8778627,2019-08-19 11:24:10,10.0
934.0,0.12524414,0.043945312,-0.005676269499999999,21.854961,10.404580000000001,0.90839696,2019-08-19 11:24:10,10.0
935.0,0.13067627,0.04541015599999999,-0.0025634766,32.183205,20.274809,2.9160306,2019-08-19 11:24:10,10.0
936.0,0.12359619,0.040039062,-0.010620117,41.17557,20.38168,6.6946563999999995,2019-08-19 11:24:10,10.0
937.0,0.12097168,0.046081542999999996,-0.0099487305,48.91603,26.32061,3.3358779999999997,2019-08-19 11:24:10,10.0
938.0,0.12683105,0.04058838,-0.017211914,55.49618,29.74809,4.2748094000000005,2019-08-19 11:24:10,10.0
939.0,0.13092041,0.034851073999999996,-0.013122558999999999,64.42748,28.335878000000005,5.931298,2019-08-19 11:24:10,10.0
940.0,0.13793945,0.028625487999999998,-0.016540527,63.221375,25.969465,7.70229,2019-08-19 11:24:10,10.0
941.0,0.13354492,0.027282715,-0.010253906,47.870228000000004,19.908398000000002,8.206107000000001,2019-08-19 11:24:10,10.0
942.0,0.14929199,0.028808594,-0.009460449000000001,23.961832,13.59542,10.557252,2019-08-19 11:24:10,10.0
943.0,0.16046143,0.028686523,-0.010498047,6.2442746,3.5038167999999996,14.954199,2019-08-19 11:24:10,10.0
944.0,0.15374756,0.030578612999999998,-0.01171875,-16.748089999999998,-0.65648854,11.251908,2019-08-19 11:24:10,10.0
945.0,0.13439941,0.029541016,-0.019714355,-48.15267,-2.4580152,-0.5496183000000001,2019-08-19 11:24:10,10.0
946.0,0.107543945,0.03527832,-0.024597168,-49.12214,4.0305343,-16.549618,2019-08-19 11:24:10,10.0
947.0,0.09503174,0.03668213,-0.021240234,-20.847328,2.3053436,-20.923664000000002,2019-08-19 11:24:10,10.0
948.0,0.10839844,0.04309082,-0.02178955,24.450382,-5.1603055,-25.503817,2019-08-19 11:24:10,10.0
949.0,0.119628906,0.040649414,-0.023376465,54.648853,-15.015267000000001,-24.862595000000002,2019-08-19 11:24:10,10.0
950.0,0.137146,0.041809082000000004,-0.021362305,47.0229,-29.534351,-42.160305,2019-08-19 11:24:10,10.0
951.0,0.14099121,0.02935791,-0.012756348,-1.1526718,-52.17557,-63.267174,2019-08-19 11:24:10,10.0
952.0,0.13006592,0.047546387,-0.018615723,-39.015266,-58.343509999999995,-78.1145,2019-08-19 11:24:10,10.0
953.0,0.12683105,0.05633545,-0.024658202999999997,-15.854961,-48.435116,-85.16794,2019-08-19 11:24:10,10.0
954.0,0.12359619,0.054504395,-0.020874023000000002,31.08397,-47.46565,-84.59541999999999,2019-08-19 11:24:10,10.0
955.0,0.11260986,0.05810547,-0.02166748,48.91603,-42.93893,-90.1145,2019-08-19 11:24:10,10.0
956.0,0.10992432,0.05224609400000001,-0.026672362999999998,44.190838,-28.450382,-103.66412,2019-08-19 11:24:10,10.0
957.0,0.11248779,0.07916260000000001,-0.029907227,167.77863,-23.099237,-104.07633,2019-08-19 11:24:10,10.0
958.0,0.10345459,0.06378174,-0.027832031,221.07634,-22.541985,-94.38931,2019-08-19 11:24:10,10.0
959.0,0.09643555,0.050720215,-0.03289795,119.74045600000001,-5.5038165999999995,-105.824425,2019-08-19 11:24:10,10.0
960.0,0.09680176,0.050048828,-0.0357666,45.282444,5.6412214999999994,-115.03817,2019-08-19 11:24:11,10.0
961.0,0.08911133,0.07092285,-0.04071045,39.954197,11.587786999999999,-115.862595,2019-08-19 11:24:11,10.0
962.0,0.10467529,0.06414795,-0.04736328,26.190839999999998,10.19084,-103.35114,2019-08-19 11:24:11,10.0
963.0,0.08874512,0.06274414,-0.04333496,10.129771,9.656488000000001,-98.54961999999999,2019-08-19 11:24:11,10.0
964.0,0.091796875,0.06665039,-0.043884277,-18.93893,13.251907999999998,-95.183205,2019-08-19 11:24:11,10.0
965.0,0.08465576,0.08685303,-0.045776367000000005,-45.351147,20.206106,-88.48855,2019-08-19 11:24:11,10.0
966.0,0.0881958,0.08941650400000001,-0.052368164,23.328245000000003,13.793892999999999,-65.908394,2019-08-19 11:24:11,10.0
967.0,0.08453369,0.07189941400000001,-0.040649414,39.633587,9.198473,-56.198475,2019-08-19 11:24:11,10.0
968.0,0.08624267599999999,0.09338379,-0.045715332000000004,-19.274809,18.099237,-47.08397,2019-08-19 11:24:11,10.0
969.0,0.09057617,0.08746338,-0.040527344,-18.076335999999998,4.2900763,-41.320609999999995,2019-08-19 11:24:11,10.0
970.0,0.085754395,0.08331299,-0.04296875,4.4580154,26.08397,-18.274809,2019-08-19 11:24:11,10.0
971.0,0.08630371,0.09051514,-0.04937744,-9.511451,5.961832,-30.969465000000003,2019-08-19 11:24:11,10.0
972.0,0.0769043,0.09906006,-0.049438477,-90.29771,-1.9083970000000001,-56.412212,2019-08-19 11:24:11,10.0
973.0,0.07092285,0.10748291,-0.052612305,-74.175575,-1.8396946,-50.816795,2019-08-19 11:24:11,10.0
974.0,0.07434082,0.12597656,-0.025634766,-63.0229,-2.3664122000000005,-56.16030500000001,2019-08-19 11:24:11,10.0
975.0,0.06561279,0.121154785,-0.01361084,-59.969467,-22.51145,-55.610687,2019-08-19 11:24:11,10.0
976.0,0.043701172,0.11431885,0.0017700195,-67.35114,-23.656488,-45.480915,2019-08-19 11:24:11,10.0
977.0,0.033996582000000004,0.12139892599999999,0.00091552734,-98.91603,-33.55725,-44.404579999999996,2019-08-19 11:24:11,10.0
978.0,0.040771484,0.12683105,-0.0012817383,-46.664124,-28.580153000000003,-31.068703000000003,2019-08-19 11:24:11,10.0
979.0,0.045776367000000005,0.08325195,-0.007385254,22.114504,-74.56489,-25.534351,2019-08-19 11:24:11,10.0
980.0,0.036804199999999995,0.09527588,-0.0015258789000000001,-129.66412,-26.610687,-32.099236,2019-08-19 11:24:11,10.0
981.0,0.037597656,0.12408447,-0.012512207,-129.0458,-29.259542,-50.587788,2019-08-19 11:24:11,10.0
982.0,0.03137207,0.121154785,-0.036987305,-10.343511999999999,-43.748093,-30.91603,2019-08-19 11:24:11,10.0
983.0,0.036254882999999995,0.10595703,-0.0211792,-87.58778000000001,-29.206106,-47.992367,2019-08-19 11:24:11,10.0
984.0,0.03466797,0.12750244,-0.030578612999999998,-29.793894,-57.46565,-59.389313,2019-08-19 11:24:11,10.0
985.0,0.015991211,0.15643310000000002,-0.010681152,-31.633587,-25.480917,-61.48855,2019-08-19 11:24:11,10.0
986.0,0.015319824,0.16937256,0.009643555,26.603053999999997,-19.122137,-75.25191,2019-08-19 11:24:11,10.0
987.0,0.011962891000000002,0.16247559,-0.007873535,104.00764000000001,-25.42748,-86.541985,2019-08-19 11:24:11,10.0
988.0,0.0049438477,0.13763428,-0.0067749023,144.52671999999998,8.480916,-80.96183,2019-08-19 11:24:11,10.0
989.0,0.0041503906,0.13244629,-0.0211792,109.28244,6.9847326,-82.175575,2019-08-19 11:24:11,10.0
990.0,-0.014160156,0.13702393,-0.019714355,63.412212,41.755726,-79.78626,2019-08-19 11:24:11,10.0
991.0,-0.010375977,0.12457275400000001,-0.0007934570299999999,122.778625,67.80153,-66.12214,2019-08-19 11:24:11,10.0
992.0,-0.016479492,0.13543701,0.013000488000000001,4.7709923,85.56489,-65.43511,2019-08-19 11:24:11,10.0
993.0,-0.011169433999999999,0.13842773,-0.032226562,70.908394,95.19084000000001,-72.41984599999999,2019-08-19 11:24:11,10.0
994.0,-0.010803223,0.12652588,-0.032836914,-28.832062,97.41221999999999,-70.68701999999999,2019-08-19 11:24:11,10.0
995.0,-0.0073242188,0.15197754,-0.07043457,5.5725193,94.84733,-75.381676,2019-08-19 11:24:11,10.0
996.0,-0.0107421875,0.10968017599999999,-0.059265137,8.320611,78.35878000000001,-75.80153,2019-08-19 11:24:12,10.0
997.0,-0.014343261999999999,0.12457275400000001,-0.05456543,-42.93893,84.0458,-93.64886,2019-08-19 11:24:12,10.0
998.0,-0.00012207031000000001,0.11358642599999999,-0.038085938,-6.70229,65.10687,-87.28244000000001,2019-08-19 11:24:12,10.0
999.0,-6.1035155999999994e-05,0.110839844,-0.030029297000000003,-37.770992,71.79389,-76.98473,2019-08-19 11:24:12,10.0
1000.0,0.0020751953,0.11859131,-0.017456055,-27.694656,79.78626,-57.82443000000001,2019-08-19 11:24:12,10.0
1001.0,0.021362305,0.06860351599999999,-0.026916503999999997,51.74046,57.14504,-14.633588,2019-08-19 11:24:12,10.0
1002.0,0.048034667999999996,0.022338867000000002,-0.05810547,28.961832,20.091601999999998,38.969467,2019-08-19 11:24:12,10.0
1003.0,0.032165527,0.11224365,-0.022155762000000002,-94.53435,-23.770992,21.839695000000003,2019-08-19 11:24:12,10.0
1004.0,0.0028076171999999997,0.1828003,-0.03302002,-130.22899999999998,-15.297709,25.908398000000002,2019-08-19 11:24:12,10.0
1005.0,0.010681152,0.16760254,-0.043273926,66.496185,-59.244274,14.854961,2019-08-19 11:24:12,10.0
1006.0,0.0068969727,0.1373291,-0.05810547,24.755726,-63.85496,23.42748,2019-08-19 11:24:12,10.0
1007.0,0.01586914,0.13409424,-0.051513672,4.603053599999999,-66.80915999999999,-1.7786259999999998,2019-08-19 11:24:12,10.0
1008.0,0.012634277,0.12768555,-0.046142578,44.961834,-114.091606,-3.1984732000000005,2019-08-19 11:24:12,10.0
1009.0,0.0014648438,0.12121582,-0.030456543,82.15267,-149.12213,27.977097999999998,2019-08-19 11:24:12,10.0
1010.0,0.0018920898,0.11883545,-0.044189453,98.34351,-145.03816,48.458015,2019-08-19 11:24:12,10.0
1011.0,-0.0053100586,0.087402344,-0.027709961,112.45038000000001,-156.05344,71.770996,2019-08-19 11:24:12,10.0
1012.0,-0.011230469,0.10198974599999999,-0.019470215,63.244274,-153.05344,81.70229,2019-08-19 11:24:12,10.0
1013.0,-0.13824463,0.118652344,0.022949219,124.64886000000001,-234.1145,75.061066,2019-08-19 11:24:12,10.0
1014.0,-0.055541992000000005,0.051391599999999996,0.0008544922000000001,140.63359,-32.12214,185.64122,2019-08-19 11:24:12,10.0
1015.0,-0.045166015999999996,0.092285156,-0.06072998,140.87787,-176.40458999999998,137.51144,2019-08-19 11:24:12,10.0
1016.0,-0.070129395,0.07366943,-0.039489746,97.96947,11.2595415,132.03053,2019-08-19 11:24:12,10.0
1017.0,-0.038269042999999996,0.07769775400000001,-0.04437256,69.43511,10.580152499999999,142.56488000000002,2019-08-19 11:24:12,10.0
1018.0,-0.033569336,0.09588623,-0.04937744,114.229004,-6.900763499999999,138.27481,2019-08-19 11:24:12,10.0
1019.0,-0.035217285,0.07769775400000001,-0.05279541,158.36641,21.778625,151.83969,2019-08-19 11:24:12,10.0
1020.0,-0.026977539,0.038269042999999996,-0.054748535,153.62596000000002,54.21374,163.35115,2019-08-19 11:24:12,10.0
1021.0,-0.007629394499999999,0.052001953,-0.06549072,118.28244,97.56489,167.35878,2019-08-19 11:24:12,10.0
1022.0,0.027770996000000003,0.07159424,-0.06976318,116.45801499999999,134.9313,171.75572,2019-08-19 11:24:12,10.0
1023.0,0.031066895,0.043518065999999994,-0.06567383,112.15267,130.42747,167.0687,2019-08-19 11:24:12,10.0
1024.0,0.05456543,0.039855957000000004,-0.08660889,79.03817,134.9771,141.28243999999998,2019-08-19 11:24:12,10.0
1025.0,0.08026123,0.053527832000000004,-0.07836914,57.549618,202.17557,122.28244,2019-08-19 11:24:12,10.0
1026.0,0.10784912,0.04711914,-0.045043945,30.847328000000005,137.81679,84.938934,2019-08-19 11:24:12,10.0
1027.0,0.11114502,0.061828613,-0.09014892599999999,-34.297709999999995,106.53435,60.007633,2019-08-19 11:24:12,10.0
1028.0,0.13781738,0.076660156,-0.09039307,5.152672,147.27481,79.70992,2019-08-19 11:24:12,10.0
1029.0,0.14385986,0.049621582000000004,-0.06976318,46.709922999999996,132.54962,63.221375,2019-08-19 11:24:12,10.0
1030.0,0.11395264,0.03741455,-0.049560547,-12.274809,108.96947,34.709922999999996,2019-08-19 11:24:12,10.0
1031.0,0.12756348,0.04699707,-0.046875,-45.671757,95.51145,29.908398,2019-08-19 11:24:13,10.0
1032.0,0.137146,0.048950195,-0.045898438,-9.526717,74.40458000000001,30.08397,2019-08-19 11:24:13,10.0
1033.0,0.13220215,0.038208007999999995,-0.050964355,-6.709923700000001,77.52672,32.099236,2019-08-19 11:24:13,10.0
1034.0,0.13421631,0.03881836,-0.046020507999999995,-24.725191,87.19847,31.931296999999997,2019-08-19 11:24:13,10.0
1035.0,0.14007568,0.043762207000000004,-0.03955078,-13.908397,77.70229,32.687022999999996,2019-08-19 11:24:13,10.0
1036.0,0.13543701,0.034240723,-0.022338867000000002,-28.503816999999998,69.87023,35.473279999999995,2019-08-19 11:24:13,10.0
1037.0,0.13623047,0.03668213,-0.026184082,-45.656490000000005,62.549618,33.389313,2019-08-19 11:24:13,10.0
1038.0,0.14343262,0.032287598,-0.028747559,-42.496179999999995,56.572517000000005,35.816795,2019-08-19 11:24:13,10.0
1039.0,0.14611816,0.0435791,-0.033691406,-31.87023,56.62595400000001,38.74046,2019-08-19 11:24:13,10.0
1040.0,0.13647461,0.03765869,-0.028076172000000003,-19.038168,56.28244399999999,33.55725,2019-08-19 11:24:13,10.0
1041.0,0.13897705,0.036499023,-0.026794434,-30.839695000000003,46.17557,18.61832,2019-08-19 11:24:13,10.0
1042.0,0.13421631,0.04486084,-0.015686035,-26.29771,29.770992,4.0229006,2019-08-19 11:24:13,10.0
1043.0,0.13305664,0.03930664,-0.023742676,7.068702,12.961832000000001,-2.816794,2019-08-19 11:24:13,10.0
1044.0,0.13055419999999998,0.036071777,-0.023925781,26.732824,2.1068702,-6.442748,2019-08-19 11:24:13,10.0
1045.0,0.12841797,0.022399902000000003,-0.010437011999999999,-1.1679389999999998,0.8778626,-13.755725,2019-08-19 11:24:13,10.0
1046.0,0.12786865,0.020385742,-0.013122558999999999,-20.877863,-4.740458,-15.656488000000001,2019-08-19 11:24:13,10.0
1047.0,0.11871338,0.027038574,-0.010437011999999999,-35.89313,-1.5648855,-11.053435,2019-08-19 11:24:13,10.0
1048.0,0.11834717,0.022766112999999998,-0.016601562,-26.61832,8.022901,0.08396947,2019-08-19 11:24:13,10.0
1049.0,0.12921143,0.02154541,-0.020446777,-13.328244,11.656488000000001,11.167939,2019-08-19 11:24:13,10.0
1050.0,0.15386963,0.023010253999999997,-0.014160156,-22.549618,13.870229,19.740458,2019-08-19 11:24:13,10.0
1051.0,0.15710449,0.018371582,-0.005065918,-44.14504,11.862596,24.015266,2019-08-19 11:24:13,10.0
1052.0,0.15777588,0.017089844,-0.008422852,-71.175575,3.8091602,19.877863,2019-08-19 11:24:13,10.0
1053.0,0.1383667,0.026367188,-0.0099487305,-91.83206,-2.9007633,9.274809,2019-08-19 11:24:13,10.0
1054.0,0.12145996,0.026306152000000003,-0.019470215,-76.67939,-1.8396946,0.39694658,2019-08-19 11:24:13,10.0
1055.0,0.10974121,0.029724121000000003,-0.020629883,-44.755726,2.2671757,-1.7709924,2019-08-19 11:24:13,10.0
1056.0,0.11871338,0.016967773000000002,-0.01751709,-13.717557000000001,-2.6030533,5.7862597000000004,2019-08-19 11:24:13,10.0
1057.0,0.11706543,0.01763916,-0.012084961000000002,-8.183207000000001,-15.389313000000001,4.809159999999999,2019-08-19 11:24:13,10.0
1058.0,0.11584473,0.010803223,-0.008850098,-30.93893,-26.450382,6.9770994,2019-08-19 11:24:13,10.0
1059.0,0.12347412,0.010925293,-0.0068969727,-59.55725,-27.465649,-3.4732822999999997,2019-08-19 11:24:13,10.0
1060.0,0.11694336,0.020446777,-0.004028320300000001,-77.35114,-29.931296999999997,-9.229008,2019-08-19 11:24:13,10.0
1061.0,0.1282959,0.024291992000000002,-0.009399414,-39.16794,-24.022902,-9.847328,2019-08-19 11:24:13,10.0
1062.0,0.13031006,0.026062012000000002,-0.012268066000000001,4.847328,-14.80916,-6.5419846,2019-08-19 11:24:13,10.0
1063.0,0.12646484,0.016723633,-0.012634277,25.320610000000002,5.10687,-3.8931297999999996,2019-08-19 11:24:13,10.0
1064.0,0.1161499,0.013183594,-0.017150878999999997,17.908398000000002,18.320610000000002,-1.221374,2019-08-19 11:24:13,10.0
1065.0,0.10852051,0.016357422,-0.02557373,6.0839696,23.42748,-2.129771,2019-08-19 11:24:13,10.0
1066.0,0.11096191400000001,0.010803223,-0.017333984,3.129771,18.801527,0.0,2019-08-19 11:24:13,10.0
1067.0,0.11669922,0.01184082,-0.01776123,6.9770994,13.61832,5.8396945,2019-08-19 11:24:13,10.0
1068.0,0.11370849599999999,0.020568848,-0.018066406,-0.114503816,13.923664000000002,11.442748,2019-08-19 11:24:14,10.0
1069.0,0.12329101599999999,0.02130127,-0.020324707,-4.2519083,13.679389000000002,16.717558,2019-08-19 11:24:14,10.0
1070.0,0.12609863,0.018310547,-0.027404785,-3.0152671000000004,14.656488000000001,16.236639999999998,2019-08-19 11:24:14,10.0
1071.0,0.11669922,0.019592285,-0.02746582,-3.0458016,20.587785999999998,15.977098999999999,2019-08-19 11:24:14,10.0
1072.0,0.12768555,0.030334472999999997,-0.024536132999999998,3.7175572,23.335878,14.877863,2019-08-19 11:24:14,10.0
1073.0,0.123535156,0.031677246,-0.025512695,9.793892999999999,22.068703,11.519084,2019-08-19 11:24:14,10.0
1074.0,0.12390137,0.022766112999999998,-0.025878906,10.282442999999999,19.251910000000002,9.404580000000001,2019-08-19 11:24:14,10.0
1075.0,0.13769531,0.03161621,-0.024353027000000003,14.2213745,18.725191,7.3664119999999995,2019-08-19 11:24:14,10.0
1076.0,0.1383667,0.036376953,-0.026489257999999998,16.587785999999998,14.549619,5.343511599999999,2019-08-19 11:24:14,10.0
1077.0,0.1506958,0.036315917999999996,-0.024414062,15.870229,9.335877,3.2442749,2019-08-19 11:24:14,10.0
1078.0,0.15460205,0.030151367000000002,-0.025634766,24.580153,10.274809,2.9923662999999996,2019-08-19 11:24:14,10.0
1079.0,0.15539551,0.03466797,-0.018310547,19.603054,7.0839696,0.2519084,2019-08-19 11:24:14,10.0
1080.0,0.14477539,0.030578612999999998,-0.020568848,12.167939,-2.6641220000000003,-11.030535,2019-08-19 11:24:14,10.0
1081.0,0.1362915,0.026184082,-0.027709961,9.587786999999999,-10.122137,-25.297710000000002,2019-08-19 11:24:14,10.0
1082.0,0.13128662,0.023986816,-0.024658202999999997,11.7404585,-18.396946,-34.053436,2019-08-19 11:24:14,10.0
1083.0,0.11907959,0.019104003999999997,-0.018737793,16.10687,-31.290077,-41.335876,2019-08-19 11:24:14,10.0
1084.0,0.11193848,0.021484375,-0.016662598,9.969465,-31.06107,-41.038166,2019-08-19 11:24:14,10.0
1085.0,0.12310791,0.027038574,-0.015625,17.167938,-30.992366999999998,-32.870228000000004,2019-08-19 11:24:14,10.0
1086.0,0.13165283,0.026489257999999998,-0.01361084,42.14504,-29.25191,-22.175573,2019-08-19 11:24:14,10.0
1087.0,0.13537598,0.021911621000000003,0.0015869141,46.83206,-33.267174,-15.580152499999999,2019-08-19 11:24:14,10.0
1088.0,0.14746094,0.035888672,0.0007324219,29.57252,-39.0229,-16.374046,2019-08-19 11:24:14,10.0
1089.0,0.14349365,0.026123047000000003,0.006042480500000001,15.21374,-41.045803,-23.496183,2019-08-19 11:24:14,10.0
1090.0,0.12652588,0.026611327999999997,0.0014648438,8.465649,-40.801525,-33.53435,2019-08-19 11:24:14,10.0
