measurement,Acc_X,Acc_Y,Acc_Z,Gyr_X,Gyr_Y,Gyr_Z,Time(hh:mm:ss),Label
0.0,-0.013366699,-0.05633545,-0.10418701,-3.5572519999999996,3.8854961,3.2519082999999998,2019-08-08 14:08:29,-2.0
1.0,-0.012817383,-0.053527832000000004,-0.10266113,0.48091602,2.5496182000000003,3.5038167999999996,2019-08-08 14:08:29,-2.0
2.0,-0.015686035,-0.062194824,-0.11462402,-0.015267176,-0.519084,2.7633588,2019-08-08 14:08:29,-2.0
3.0,-0.008483886999999999,-0.061157227,-0.111450195,-5.1984735,6.2900763,2.9541984,2019-08-08 14:08:29,-2.0
4.0,-0.012145996000000001,-0.051635742000000005,-0.10705566400000001,-5.671755999999999,5.5496182,1.5877863,2019-08-08 14:08:29,-2.0
5.0,-0.009399414,-0.048095703,-0.10913086,-1.1984733,2.7633588,3.053435,2019-08-08 14:08:29,-2.0
6.0,-0.016113281,-0.06085205,-0.11004639,3.4503817999999997,-4.2748094000000005,1.3664121999999999,2019-08-08 14:08:29,-2.0
7.0,-0.013122558999999999,-0.05480957,-0.10870361,4.2519083,4.9541984,0.740458,2019-08-08 14:08:29,-2.0
8.0,-0.016418457,-0.050109863,-0.10498047,0.41984734,3.9007633000000004,0.9236641,2019-08-08 14:08:29,-2.0
9.0,-0.0064086914,-0.058898926,-0.10491943,-4.1984735,2.2748091,2.9923662999999996,2019-08-08 14:08:29,-2.0
10.0,-0.008666992,-0.059570312,-0.11431885,-1.8167938999999997,1.3435115,4.0839696000000005,2019-08-08 14:08:29,-2.0
11.0,-0.010498047,-0.056640625,-0.10961914,4.091603299999999,3.221374,1.9007633999999998,2019-08-08 14:08:29,-2.0
12.0,-0.014160156,-0.06109619,-0.1038208,3.2748091,5.145038,0.9160305000000001,2019-08-08 14:08:29,-2.0
13.0,-0.012268066000000001,-0.05712890599999999,-0.10772705,0.8244275,2.9312978,3.1526718,2019-08-08 14:08:29,-2.0
14.0,-0.011047363000000001,-0.056640625,-0.10876465,2.961832,0.48091602,3.3587787000000002,2019-08-08 14:08:29,-2.0
15.0,-0.016418457,-0.061584473,-0.10815430000000001,3.9770992,-1.3969465,1.4580153,2019-08-08 14:08:29,-2.0
16.0,-0.009521484,-0.060180664,-0.107910156,1.2290076,2.6717557999999997,-0.48091602,2019-08-08 14:08:29,-2.0
17.0,-0.0036010741999999997,-0.05480957,-0.10894775400000001,-2.3664122000000005,3.0305343,0.4274809,2019-08-08 14:08:29,-2.0
18.0,-0.0126953125,-0.055480957000000004,-0.113098145,-3.2290077,0.8549618,2.7709923,2019-08-08 14:08:29,-2.0
19.0,-0.010314941,-0.053344727,-0.11071777,-0.9847328000000002,1.3664121999999999,3.3053436,2019-08-08 14:08:29,-2.0
20.0,-0.012451172,-0.061462402,-0.10662842,0.58778626,4.2519083,2.0229008,2019-08-08 14:08:29,-2.0
21.0,-0.008117675999999999,-0.051940917999999996,-0.10961914,1.6793894,2.4045799999999997,0.40458015,2019-08-08 14:08:29,-2.0
22.0,-0.008728027,-0.05090332,-0.10815430000000001,1.2977100000000001,0.47328246,1.2977100000000001,2019-08-08 14:08:29,-2.0
23.0,-0.010375977,-0.050354004,-0.109436035,3.70229,-1.6412214,0.65648854,2019-08-08 14:08:30,-2.0
24.0,-0.01751709,-0.05999756,-0.10894775400000001,1.8320610000000002,0.86259544,2.8244274,2019-08-08 14:08:30,-2.0
25.0,-0.013183594,-0.053710938,-0.10375976599999999,-0.27480915,2.3816792999999996,-0.64122134,2019-08-08 14:08:30,-2.0
26.0,-0.0211792,-0.053344727,-0.10980224599999999,-4.5343513,3.183206,2.6183207000000004,2019-08-08 14:08:30,-2.0
27.0,-0.015930176,-0.05645752,-0.10876465,-5.091603299999999,3.6564887,3.5038167999999996,2019-08-08 14:08:30,-2.0
28.0,-0.017333984,-0.05596924,-0.10760498,-2.3435113,3.6183207000000004,3.961832,2019-08-08 14:08:30,-2.0
29.0,-0.006652831999999999,-0.05206299,-0.109191895,3.2824428,-2.0458016,3.870229,2019-08-08 14:08:30,-2.0
30.0,-0.0119018555,-0.05102539,-0.10559082,5.847328,1.3358778999999998,4.2824425999999995,2019-08-08 14:08:30,-2.0
31.0,-0.015686035,-0.06317139,-0.10559082,4.7022900000000005,1.8778626,4.9770994,2019-08-08 14:08:30,-2.0
32.0,-0.018737793,-0.060302734000000004,-0.10980224599999999,3.0839694,2.1603053,3.908397,2019-08-08 14:08:30,-2.0
33.0,-0.01965332,-0.06097412,-0.103393555,0.41984734,1.8167938999999997,3.3206108,2019-08-08 14:08:30,-2.0
34.0,-0.015686035,-0.053894042999999996,-0.11486816400000001,4.885496,-0.8167939000000001,6.221374,2019-08-08 14:08:30,-2.0
35.0,-0.013793945,-0.05645752,-0.10577392599999999,8.610686999999999,-1.8396946,6.091603299999999,2019-08-08 14:08:30,-2.0
36.0,-0.012451172,-0.06707764,-0.10662842,14.045801,-3.5114503,7.7709923,2019-08-08 14:08:30,-2.0
37.0,-0.010314941,-0.053344727,-0.11077881,12.404580000000001,0.9694656999999999,4.6488547,2019-08-08 14:08:30,-2.0
38.0,-0.010620117,-0.05053711,-0.11114502,35.251907,-1.5648855,10.770992,2019-08-08 14:08:30,-2.0
39.0,-0.00970459,-0.06402588,-0.10888672,46.305344,1.5038168,8.0992365,2019-08-08 14:08:30,-2.0
40.0,-0.0005493164,-0.07110596,-0.10839844,45.076336,7.4961834000000005,-4.4961834000000005,2019-08-08 14:08:30,-2.0
41.0,-0.00970459,-0.058776855,-0.09753418,52.809162,3.9694656999999998,2.687023,2019-08-08 14:08:30,-2.0
42.0,-0.025024414,-0.076049805,-0.09234619,32.839695,3.0305343,6.862595599999999,2019-08-08 14:08:30,-2.0
43.0,-0.016479492,-0.07940674,-0.08862305,16.770992,1.6030535,5.3587785000000006,2019-08-08 14:08:30,-2.0
44.0,-0.016479492,-0.080200195,-0.08843994,16.656488,7.7862597000000004,1.961832,2019-08-08 14:08:30,-2.0
45.0,-0.010314941,-0.07482910000000001,-0.09387207,-16.374046,6.7175574000000005,1.5496184,2019-08-08 14:08:30,-2.0
46.0,-0.015808105,-0.07336426,-0.09185791,-10.160305000000001,-4.908396700000001,4.343511599999999,2019-08-08 14:08:30,-2.0
47.0,-0.02532959,-0.06274414,-0.09741211,-20.297710000000002,-6.8702292,3.3587787000000002,2019-08-08 14:08:30,-2.0
48.0,-0.02520752,-0.06640625,-0.10681152,-31.045801,1.1755725000000001,7.259542,2019-08-08 14:08:30,-2.0
49.0,-0.027648926,-0.0635376,-0.10504150400000001,-16.923664000000002,3.70229,2.6946564,2019-08-08 14:08:30,-2.0
50.0,-0.016540527,-0.058166504,-0.10241699,-5.2442746,4.908396700000001,3.0076337000000004,2019-08-08 14:08:30,-2.0
51.0,-0.020690918,-0.06958008,-0.09881592,-11.488549,3.4427480000000004,3.7251909,2019-08-08 14:08:30,-2.0
52.0,-0.009216309,-0.062561035,-0.10546875,-8.603053,3.5267177000000003,5.8625956,2019-08-08 14:08:30,-2.0
53.0,-0.023376465,-0.059814453,-0.10095215,2.1450381000000003,3.206107,3.778626,2019-08-08 14:08:30,-2.0
54.0,-0.011108398,-0.06518555,-0.10205078,0.6259541999999999,1.0458015,5.885496,2019-08-08 14:08:30,-2.0
55.0,-0.016540527,-0.06286621,-0.099609375,-2.519084,1.259542,5.2748094000000005,2019-08-08 14:08:30,-2.0
56.0,-0.020996094,-0.064453125,-0.10253906,-0.41984734,2.9694657,4.778626,2019-08-08 14:08:30,-2.0
57.0,-0.011108398,-0.06707764,-0.10675049,-1.7328244,5.335878,5.1755724,2019-08-08 14:08:30,-2.0
58.0,-0.017822266,-0.06451416,-0.101501465,-1.8625953999999998,2.778626,5.442748,2019-08-08 14:08:30,-2.0
59.0,-0.018859863,-0.06408691400000001,-0.10144043,-7.9465647,1.9083970000000001,4.5648856,2019-08-08 14:08:31,-2.0
60.0,-0.020263672,-0.054870605,-0.11071777,-10.473283,5.0992365,4.3206105,2019-08-08 14:08:31,-2.0
61.0,-0.021240234,-0.06121826,-0.10144043,-2.1526718,5.763358599999999,3.0992367,2019-08-08 14:08:31,-2.0
62.0,-0.018493652,-0.05682373,-0.10424805,6.70229,4.908396700000001,2.7251909,2019-08-08 14:08:31,-2.0
63.0,-0.01953125,-0.056396484000000004,-0.10906982400000001,3.1450381000000003,9.709924,1.7709924,2019-08-08 14:08:31,-2.0
64.0,-0.019897461,-0.055603027,-0.107543945,13.541985,8.183207000000001,1.4503816,2019-08-08 14:08:31,-2.0
65.0,-0.016052246000000003,-0.06628418,-0.10089111,29.534351,5.1297708,-7.137404400000001,2019-08-08 14:08:31,-2.0
66.0,-0.021240234,-0.06677246,-0.10284424,30.885496000000003,1.3664121999999999,-7.6335880000000005,2019-08-08 14:08:31,-2.0
67.0,-0.015991211,-0.05517578,-0.10272217,51.84733,0.45801526,-5.923664,2019-08-08 14:08:31,-2.0
68.0,-0.010070800999999999,-0.074157715,-0.09661865,53.633587,3.4580152,-6.145038,2019-08-08 14:08:31,-2.0
69.0,-0.019165039,-0.089782715,-0.08972168,47.541985,-2.3435113,-8.251908,2019-08-08 14:08:31,-2.0
70.0,-0.01727295,-0.08306885,-0.088012695,20.931297,-2.4503817999999997,-4.847328,2019-08-08 14:08:31,-2.0
71.0,-0.019470215,-0.08001709,-0.095703125,23.458015,-0.41221374,-4.3129773,2019-08-08 14:08:31,-2.0
72.0,-0.020202637,-0.07855224599999999,-0.09289551,26.152672,0.55725193,-6.0229006,2019-08-08 14:08:31,-2.0
73.0,-0.016113281,-0.08941650400000001,-0.08270264,13.564885,0.5114504,-3.6106870000000004,2019-08-08 14:08:31,-2.0
74.0,-0.014770508,-0.080200195,-0.10284424,14.435115,-1.5877863,-4.5496182,2019-08-08 14:08:31,-2.0
75.0,-0.017333984,-0.08502197,-0.08746338,26.580153000000003,-0.7480916,-6.9389315,2019-08-08 14:08:31,-2.0
76.0,-0.011230469,-0.08703613,-0.08435058599999999,20.847328,2.8091602000000004,-2.091603,2019-08-08 14:08:31,-2.0
77.0,-0.016540527,-0.08026123,-0.09307861,18.358778,-3.0076337000000004,-5.3587785000000006,2019-08-08 14:08:31,-2.0
78.0,-0.014221191000000001,-0.08264160000000001,-0.08355713,14.938931,2.4961832000000004,-3.167939,2019-08-08 14:08:31,-2.0
79.0,-0.020751953,-0.09454346,-0.081848145,17.51145,-12.793892999999999,-1.3358778999999998,2019-08-08 14:08:31,-2.0
80.0,-0.011657715,-0.09320068,-0.08721924,12.7786255,0.89312977,1.0,2019-08-08 14:08:31,-2.0
81.0,-0.013549805,-0.08172607400000001,-0.08660889,4.6412214999999994,3.4732822999999997,-1.2519083999999998,2019-08-08 14:08:31,-2.0
82.0,-0.0115356445,-0.085998535,-0.08703613,12.076336,-2.4732822999999997,2.2366412,2019-08-08 14:08:31,-2.0
83.0,-0.014160156,-0.09362793,-0.080200195,6.9847326,2.0,2.3358779999999997,2019-08-08 14:08:31,-2.0
84.0,-0.017150878999999997,-0.0914917,-0.083862305,-1.5419847,-0.7557252,3.6641220000000003,2019-08-08 14:08:31,-2.0
85.0,-0.014282227,-0.08062744,-0.08435058599999999,-13.152672,1.7175573,3.648855,2019-08-08 14:08:31,-2.0
86.0,-0.015136719,-0.08764648400000001,-0.09344482400000001,7.335878,-0.5038168,1.2671756,2019-08-08 14:08:31,-2.0
87.0,-0.012329102,-0.08459473,-0.08496094,0.22137405,2.1755726,0.8396947,2019-08-08 14:08:31,-2.0
88.0,-0.012939453,-0.08929443,-0.08691406,-3.1450381000000003,0.061068702,0.55725193,2019-08-08 14:08:31,-2.0
89.0,-0.016113281,-0.08477783,-0.09039307,-0.46564886,0.0,1.1603054,2019-08-08 14:08:31,-2.0
90.0,-0.014587402,-0.08489989999999999,-0.08923339999999999,5.9694657,-0.41984734,0.83206105,2019-08-08 14:08:31,-2.0
91.0,-0.012145996000000001,-0.08874512,-0.08746338,3.3129769999999996,2.4045799999999997,2.1068702,2019-08-08 14:08:31,-2.0
92.0,-0.018981934,-0.08752441400000001,-0.09057617,-1.6717557,2.572519,2.7557251,2019-08-08 14:08:31,-2.0
93.0,-0.013122558999999999,-0.08666992,-0.090026855,-1.4580153,4.2748094000000005,2.0610688,2019-08-08 14:08:31,-2.0
94.0,-0.0049438477,-0.08898926,-0.08361816400000001,-0.03816794,1.7404580000000003,1.5572518999999998,2019-08-08 14:08:32,-2.0
95.0,-0.007446289,-0.08679199,-0.08306885,-0.045801528,0.9541985000000001,1.3969465,2019-08-08 14:08:32,-2.0
96.0,-0.016479492,-0.08746338,-0.08526611,-0.9312976999999999,1.2137405,0.091603056,2019-08-08 14:08:32,-2.0
97.0,-0.0087890625,-0.08166504,-0.08691406,0.8091603,1.0763359,-0.4274809,2019-08-08 14:08:32,-2.0
98.0,-0.020935059,-0.08111572,-0.09729004,-13.694656,1.7938931,0.03816794,2019-08-08 14:08:32,-2.0
99.0,-0.011413574,-0.08520508,-0.07696533,1.2137405,-13.450381,4.6488547,2019-08-08 14:08:32,-2.0
100.0,-0.020385742,-0.08746338,-0.0881958,8.725191,8.80916,-1.3206106000000002,2019-08-08 14:08:32,-2.0
101.0,-0.013549805,-0.09216308599999999,-0.08868408,1.2442749,1.2290076,2.3358779999999997,2019-08-08 14:08:32,-2.0
102.0,-0.008911133,-0.08374023400000001,-0.07971191400000001,-4.0458016,2.816794,2.0687022,2019-08-08 14:08:32,-2.0
103.0,-0.005676269499999999,-0.089782715,-0.09246826,-2.9312978,2.2900763,1.5496184,2019-08-08 14:08:32,-2.0
104.0,-0.017700195,-0.08392334,-0.0881958,-2.442748,3.2824428,1.3435115,2019-08-08 14:08:32,-2.0
105.0,-0.011352538999999998,-0.08795166,-0.08984375,-0.49618322,0.41984734,0.5496183000000001,2019-08-08 14:08:32,-2.0
106.0,-0.008239746,-0.08294678,-0.08258057,-1.0534351,1.8854961,0.57251906,2019-08-08 14:08:32,-2.0
107.0,-0.014526367,-0.08123779,-0.08923339999999999,-6.1755724,2.6030533,2.2519082999999998,2019-08-08 14:08:32,-2.0
108.0,-0.017028809,-0.08795166,-0.0836792,-9.381680000000001,5.0,1.5954198999999998,2019-08-08 14:08:32,-2.0
109.0,-0.012145996000000001,-0.089904785,-0.089782715,-14.244275,6.053435299999999,2.2595419999999997,2019-08-08 14:08:32,-2.0
110.0,-0.0053100586,-0.08294678,-0.08703613,-16.450382,6.0458016,4.145038,2019-08-08 14:08:32,-2.0
111.0,-0.00592041,-0.08166504,-0.09606933599999999,-16.648854999999998,31.442749,-4.366412,2019-08-08 14:08:32,-2.0
112.0,-0.020385742,-0.08044433599999999,-0.0881958,-26.709923,-5.6870227,7.4503818,2019-08-08 14:08:32,-2.0
113.0,-0.011779785,-0.07727051,-0.09136963,-18.236639999999998,9.381680000000001,0.97709924,2019-08-08 14:08:32,-2.0
114.0,-0.012390136999999999,-0.07977295,-0.09344482400000001,-21.198473,2.8015267999999995,3.351145,2019-08-08 14:08:32,-2.0
115.0,-0.010559082,-0.08374023400000001,-0.09826660000000001,-34.870228000000004,6.9465647,1.648855,2019-08-08 14:08:32,-2.0
116.0,-0.0154418945,-0.08062744,-0.09436035,-31.374046000000003,-0.08396947,4.587786,2019-08-08 14:08:32,-2.0
117.0,-0.01361084,-0.07458496,-0.10113525400000001,-31.610687,9.969465,2.6488549999999997,2019-08-08 14:08:32,-2.0
118.0,-0.011291503999999999,-0.07434082,-0.11016846,-42.274809999999995,14.015267000000001,-0.015267176,2019-08-08 14:08:32,-2.0
119.0,-0.009887695,-0.07336426,-0.10015869,-31.977097999999998,0.13740458,2.427481,2019-08-08 14:08:32,-2.0
120.0,-0.014587402,-0.06201172,-0.09997558599999999,-21.038168,6.374046,0.6946565,2019-08-08 14:08:32,-2.0
121.0,-0.008178711,-0.06829834,-0.10253906,-17.053434,13.702291,-2.1068702,2019-08-08 14:08:32,-2.0
122.0,-0.014038086000000002,-0.06829834,-0.10626221,-5.8244276,-1.2977100000000001,0.32061067,2019-08-08 14:08:32,-2.0
123.0,-0.017150878999999997,-0.06616211,-0.09753418,1.1603054,2.3435113,-0.55725193,2019-08-08 14:08:32,-2.0
124.0,-0.012268066000000001,-0.06671142599999999,-0.10357666,-0.20610687,2.1450381000000003,-0.23664123,2019-08-08 14:08:32,-2.0
125.0,-0.014038086000000002,-0.06567383,-0.09924316400000001,3.6335877999999995,3.0076337000000004,0.32824427,2019-08-08 14:08:32,-2.0
126.0,-0.009277344,-0.06677246,-0.10101318,2.687023,2.2366412,1.6793894,2019-08-08 14:08:32,-2.0
127.0,-0.013366699,-0.06768799,-0.10272217,0.2977099,1.0,2.091603,2019-08-08 14:08:32,-2.0
128.0,-0.014770508,-0.06854248,-0.09857178,1.9083970000000001,0.52671754,1.480916,2019-08-08 14:08:32,-2.0
129.0,-0.015563965,-0.061828613,-0.10388183599999999,5.3053436,2.7328243,1.2671756,2019-08-08 14:08:33,-2.0
130.0,-0.009399414,-0.06927489999999999,-0.092285156,9.854961,0.19847329,0.610687,2019-08-08 14:08:33,-2.0
131.0,-0.012939453,-0.07452392599999999,-0.101745605,11.083969,0.29007635,0.65648854,2019-08-08 14:08:33,-2.0
132.0,-0.0099487305,-0.07128906,-0.09472656,12.7786255,1.7099236,0.5114504,2019-08-08 14:08:33,-2.0
133.0,-0.032226562,-0.07641601599999999,-0.08709717,13.61832,-5.9007635,6.900763499999999,2019-08-08 14:08:33,-2.0
134.0,0.005554199,-0.076293945,-0.09844971,18.244274,13.152672,0.45038167,2019-08-08 14:08:33,-2.0
135.0,-0.013977051,-0.06970215,-0.10327148400000001,0.8854962,-4.0305343,1.8931297999999999,2019-08-08 14:08:33,-2.0
136.0,-0.009094238000000001,-0.07122803,-0.093688965,19.137404999999998,-4.10687,-1.5038168,2019-08-08 14:08:33,-2.0
137.0,-0.02545166,-0.08984375,-0.09320068,-4.7862597000000004,0.7251908,-6.4885497,2019-08-08 14:08:33,-2.0
138.0,-0.012878418,-0.07598877,-0.10345459,-21.664122,12.916031,-3.7557251000000003,2019-08-08 14:08:33,-2.0
139.0,-0.016662598,-0.070373535,-0.097717285,-24.206106,4.946564700000001,1.6030535,2019-08-08 14:08:33,-2.0
140.0,-0.0053100586,-0.076660156,-0.09893799,-23.312977,6.961832000000001,5.480916000000001,2019-08-08 14:08:33,-2.0
141.0,-0.014343261999999999,-0.06921387,-0.107910156,-24.656488,3.1908397999999996,7.038167999999999,2019-08-08 14:08:33,-2.0
142.0,-0.010498047,-0.06842041,-0.10614014,-18.778625,3.2442749,5.038168,2019-08-08 14:08:33,-2.0
143.0,-0.008178711,-0.056762695,-0.10101318,-29.152671999999995,2.70229,6.412214,2019-08-08 14:08:33,-2.0
144.0,-0.012023926,-0.06048584,-0.10571289,-14.870229,-1.8015267,3.6717557999999997,2019-08-08 14:08:33,-2.0
145.0,-0.014404297,-0.06610107400000001,-0.101623535,-23.396946,1.8396946,3.4885497,2019-08-08 14:08:33,-2.0
146.0,-0.012145996000000001,-0.054138184000000006,-0.109375,-22.145039,2.8625952999999997,4.4580154,2019-08-08 14:08:33,-2.0
147.0,-0.0154418945,-0.051940917999999996,-0.11547851599999999,16.717558,-2.038168,0.099236645,2019-08-08 14:08:33,-2.0
148.0,-0.014221191000000001,-0.06915283,-0.10229492,20.656488,4.671755999999999,-3.5267177000000003,2019-08-08 14:08:33,-2.0
149.0,-0.0064697266000000005,-0.07489014,-0.09869385,-8.396947,5.8396945,-1.9541985,2019-08-08 14:08:33,-2.0
150.0,-0.006164551,-0.061157227,-0.10498047,3.534351,4.2900763,0.022900764,2019-08-08 14:08:33,-2.0
151.0,-0.009216309,-0.07147217,-0.10345459,-1.0458015,6.343511599999999,-2.442748,2019-08-08 14:08:33,-2.0
152.0,-0.006164551,-0.05883789,-0.10223389,-11.458015,12.2595415,0.84732825,2019-08-08 14:08:33,-2.0
153.0,-0.013000488000000001,-0.05712890599999999,-0.10797119,1.9007633999999998,0.0,-0.14503817,2019-08-08 14:08:33,-2.0
154.0,-0.008361816,-0.06536865,-0.10913086,11.816792999999999,2.0,1.9007633999999998,2019-08-08 14:08:33,-2.0
155.0,-0.014099121000000001,-0.07543945,-0.09765625,3.6412212999999998,-1.5648855,3.6030532999999996,2019-08-08 14:08:33,-2.0
156.0,-0.015380858999999998,-0.06280517599999999,-0.10479736,-8.854961,4.0,1.1374046,2019-08-08 14:08:33,-2.0
157.0,-0.0045776367,-0.062072754,-0.10577392599999999,0.23664123,2.5954200000000003,-1.0,2019-08-08 14:08:33,-2.0
158.0,-0.008728027,-0.060546875,-0.11206055,-0.6793893,-0.22137405,-7.137404400000001,2019-08-08 14:08:33,-2.0
159.0,-0.010498047,-0.051208496,-0.10498047,16.190839999999998,-0.2977099,-2.0305343000000002,2019-08-08 14:08:33,-2.0
160.0,-0.022460938,-0.07464599599999999,-0.12390137,33.809162,-4.8015265,-5.396946400000001,2019-08-08 14:08:33,-2.0
161.0,-0.020263672,-0.08917236,-0.10858154,37.473279999999995,10.709924,-3.091603,2019-08-08 14:08:33,-2.0
162.0,-0.002380371,-0.09991455,-0.11907959,21.099237,51.923664,-31.526718,2019-08-08 14:08:33,-2.0
163.0,-0.012084961000000002,-0.08905029,-0.119140625,-3.7099237,28.541984999999997,-33.572517,2019-08-08 14:08:33,-2.0
164.0,-0.010375977,-0.10070801,-0.12066650400000001,3.1374047000000003,56.412212,-48.76336,2019-08-08 14:08:33,-2.0
165.0,-0.0010986328,-0.083862305,-0.10656738,-27.732824,59.053436,-48.328243,2019-08-08 14:08:33,-2.0
166.0,-0.0006103515599999999,-0.08111572,-0.11560058599999999,-37.687022999999996,78.47328,-52.282444,2019-08-08 14:08:34,-2.0
167.0,-0.006591797,-0.07611084,-0.10516357400000001,-63.78626,82.091606,-50.87786,2019-08-08 14:08:34,-2.0
168.0,0.012329102,-0.047607422,-0.09033203,-88.75572,86.64121999999999,-44.351147,2019-08-08 14:08:34,-2.0
169.0,0.023986816,-0.03918457,-0.07965088,-72.59541999999999,78.57252,-38.648853,2019-08-08 14:08:34,-2.0
170.0,0.035705566,-0.021850586,-0.08923339999999999,-46.954197,67.78626,-25.221375,2019-08-08 14:08:34,-2.0
171.0,0.03656006,-0.029541016,-0.09155273400000001,-41.732826,55.916030000000006,-11.129771,2019-08-08 14:08:34,-2.0
172.0,0.04333496,-0.028625487999999998,-0.08636474599999999,-72.03053,46.725190000000005,0.22137405,2019-08-08 14:08:34,-2.0
173.0,0.05041504,-0.01727295,-0.07952881,-90.37405,30.183207,7.6946563999999995,2019-08-08 14:08:34,-2.0
174.0,0.054260254,0.0029907227,-0.08843994,-60.76336,12.320611,14.068703,2019-08-08 14:08:34,-2.0
175.0,0.030578612999999998,-0.0126953125,-0.10607910000000002,7.9389315,-0.259542,13.633588,2019-08-08 14:08:34,-2.0
176.0,0.03942871,-0.047912598,-0.09698486,-20.900763,-3.0992367,19.099237,2019-08-08 14:08:34,-2.0
177.0,0.041503906,-0.024414062,-0.10345459,-48.870228000000004,-11.435115,11.916031,2019-08-08 14:08:34,-2.0
178.0,0.04309082,-0.03845215,-0.12170410000000002,13.38168,-19.06107,0.19847329,2019-08-08 14:08:34,-2.0
179.0,0.04071045,-0.028747559,-0.12097168,63.809162,-23.030535,-1.8931297999999999,2019-08-08 14:08:34,-2.0
180.0,0.03253174,-0.04046631,-0.10394287,58.946564,-20.091601999999998,-0.33587787,2019-08-08 14:08:34,-2.0
181.0,0.030090332,-0.04925537,-0.1227417,30.641221999999996,-14.625955,0.28244275,2019-08-08 14:08:34,-2.0
182.0,0.03149414,-0.037231445,-0.13171387,33.870228000000004,-5.625954,-0.22900763,2019-08-08 14:08:34,-2.0
183.0,0.037475586,-0.036010742000000005,-0.1083374,29.435114000000002,-0.7557252,2.1068702,2019-08-08 14:08:34,-2.0
184.0,0.037353516,-0.05480957,-0.09808349599999999,10.297709,-3.0610687999999997,6.2290077,2019-08-08 14:08:34,-2.0
185.0,0.030029297000000003,-0.027709961,-0.12658691,-0.519084,-10.007633,4.5648856,2019-08-08 14:08:34,-2.0
186.0,0.020263672,-0.03765869,-0.12573242,40.992367,-4.8244276,4.3053436,2019-08-08 14:08:34,-2.0
187.0,0.030822753999999997,-0.054382324,-0.11425781,-14.206107000000001,8.381680000000001,11.465649,2019-08-08 14:08:34,-2.0
188.0,0.02923584,-0.049743652,-0.11584473,-79.38931,15.412213000000001,12.152672,2019-08-08 14:08:34,-2.0
189.0,0.03149414,-0.04248047,-0.10449219,-71.862595,7.9923663000000005,12.641221,2019-08-08 14:08:34,-2.0
190.0,0.031677246,-0.03314209,-0.10369873,-127.51145,8.78626,16.091601999999998,2019-08-08 14:08:34,-2.0
191.0,0.026245117000000002,-0.0013427734,-0.11236572,-109.36641000000002,-2.5419848,16.48855,2019-08-08 14:08:34,-2.0
192.0,0.02355957,-0.0107421875,-0.1227417,10.19084,-10.923664,12.763359,2019-08-08 14:08:34,-2.0
193.0,0.028015137000000002,-0.03845215,-0.11401367,4.053435299999999,-13.351145,3.2748091,2019-08-08 14:08:34,-2.0
194.0,0.034423828,-0.022827148,-0.115234375,0.7099236999999999,-15.076335999999998,-2.8931298,2019-08-08 14:08:34,-2.0
195.0,0.03375244,-0.024414062,-0.12200928,29.29771,-17.10687,-8.694656,2019-08-08 14:08:34,-2.0
196.0,0.036193848,-0.022827148,-0.14013672,74.15267,-10.908397,-22.351145000000002,2019-08-08 14:08:34,-2.0
197.0,0.020080566,-0.026245117000000002,-0.15014648,115.87023,-1.3053435,-22.396946,2019-08-08 14:08:34,-2.0
198.0,0.023376465,-0.048217773,-0.13458252,146.43511999999998,16.656488,-21.748089999999998,2019-08-08 14:08:34,-2.0
199.0,0.03668213,-0.042907715,-0.11730957,147.35878,16.961832,-27.358778000000004,2019-08-08 14:08:34,-2.0
200.0,0.038757323999999996,-0.04333496,-0.08538818,169.771,3.908397,-29.08397,2019-08-08 14:08:34,-2.0
201.0,0.031433105,-0.06713867,-0.08428955,198.87787,-15.816792999999999,-36.717556,2019-08-08 14:08:34,-2.0
202.0,0.032165527,-0.06060791,-0.10040283,250.12977999999998,-32.641220000000004,-46.78626,2019-08-08 14:08:35,-2.0
203.0,0.030761719,-0.09918213,-0.05340576,225.61068999999998,-30.541984999999997,-44.366413,2019-08-08 14:08:35,-2.0
204.0,0.026245117000000002,-0.09063721,-0.06982422,97.824425,-29.954199,-25.076335999999998,2019-08-08 14:08:35,-2.0
205.0,0.03338623,-0.07977295,-0.06750488,123.03817,-22.366413,-12.732824,2019-08-08 14:08:35,-2.0
206.0,0.038879395,-0.11206055,-0.053100586,49.404579999999996,-13.603053,-4.068702,2019-08-08 14:08:35,-2.0
207.0,0.03265381,-0.10534668,-0.075683594,13.236641,-13.38168,3.8854961,2019-08-08 14:08:35,-2.0
208.0,0.034240723,-0.11993408,-0.058410645,-61.297709999999995,4.145038,13.931297,2019-08-08 14:08:35,-2.0
209.0,0.03338623,-0.07550049,-0.08862305,-114.19084,11.847328,32.374046,2019-08-08 14:08:35,-2.0
210.0,0.029663086,-0.08459473,-0.09344482400000001,-137.0687,27.740458,50.954197,2019-08-08 14:08:35,-2.0
211.0,0.01977539,-0.0847168,-0.08874512,-206.31297,39.526720000000005,72.618324,2019-08-08 14:08:35,-2.0
212.0,0.05432129,-0.08666992,-0.09722900400000001,-105.67175,26.282442,36.44275,2019-08-08 14:08:35,-2.0
213.0,0.026123047000000003,-0.12573242,-0.09527588,-44.44275,19.641222,24.503817,2019-08-08 14:08:35,-2.0
214.0,0.020996094,-0.09417724599999999,-0.08135986,-174.42747,23.770992,19.877863,2019-08-08 14:08:35,-2.0
215.0,0.028259277000000003,-0.031982422,-0.0871582,-172.35878,18.824427,19.793894,2019-08-08 14:08:35,-2.0
216.0,0.018737793,-0.028686523,-0.11633301,-79.778625,16.435114000000002,27.770992,2019-08-08 14:08:35,-2.0
217.0,0.022338867000000002,-0.07861328,-0.11071777,-129.24428,20.770992,19.076335999999998,2019-08-08 14:08:35,-2.0
218.0,0.026184082,-0.037475586,-0.09594726599999999,-141.70993,15.045801,15.343511999999999,2019-08-08 14:08:35,-2.0
219.0,0.029296875,-0.022583007999999998,-0.07489014,-91.96183,12.183207000000001,17.839695000000003,2019-08-08 14:08:35,-2.0
220.0,0.033813477,0.00048828125,-0.045532227,-115.44275,-23.389313,26.25191,2019-08-08 14:08:35,-2.0
221.0,0.023010253999999997,0.027954102,-0.118652344,15.40458,-60.389313,25.404581,2019-08-08 14:08:35,-2.0
222.0,0.018005371000000003,-0.04876709,-0.11151123,128.87787,-64.60305,20.068703,2019-08-08 14:08:35,-2.0
223.0,0.018798828,-0.04626465,-0.10589599599999999,66.503815,-67.00764000000001,19.824427,2019-08-08 14:08:35,-2.0
224.0,0.0037231445,-0.027648926,-0.13043213,68.21374,-71.618324,19.954199,2019-08-08 14:08:35,-2.0
225.0,-0.0015869141,-0.052856445,-0.12658691,58.137405,-63.099236,20.587785999999998,2019-08-08 14:08:35,-2.0
226.0,0.016479492,-0.043884277,-0.113464355,76.175575,-64.145035,17.526718,2019-08-08 14:08:35,-2.0
227.0,0.00036621094,-0.0647583,-0.12670898,98.96947,-55.343509999999995,16.007633,2019-08-08 14:08:35,-2.0
228.0,-0.010559082,-0.072387695,-0.13513184,129.44275,-51.46565,12.587786999999999,2019-08-08 14:08:35,-2.0
229.0,-0.010803223,-0.08496094,-0.09899902,93.0687,-39.717556,16.984734,2019-08-08 14:08:35,-2.0
230.0,0.0051879883,-0.08496094,-0.09472656,17.984734,-33.366413,25.236639999999998,2019-08-08 14:08:35,-2.0
231.0,-0.047180176,-0.10278319999999999,-0.15393066,-5.664122,-41.679390000000005,18.412214000000002,2019-08-08 14:08:35,-2.0
232.0,-0.023620605,-0.076171875,-0.1003418,66.20611,19.442749,3.0839694,2019-08-08 14:08:35,-2.0
233.0,-0.0033569335999999996,-0.05999756,-0.08892822,-36.16794,8.305344,15.465648999999999,2019-08-08 14:08:35,-2.0
234.0,-0.0025024414000000004,-0.06286621,-0.10076904,-31.839695000000003,9.519084,22.190839999999998,2019-08-08 14:08:35,-2.0
235.0,-0.009643555,-0.08123779,-0.10803223,6.5496182,0.06870229,15.923664000000002,2019-08-08 14:08:35,-2.0
236.0,-0.009399414,-0.06958008,-0.09790039,37.549618,-3.923664,11.091603,2019-08-08 14:08:35,-2.0
237.0,-0.007751465,-0.06610107400000001,-0.09796142599999999,65.137405,-12.21374,4.1374044,2019-08-08 14:08:36,-2.0
238.0,-0.02130127,-0.06274414,-0.10559082,61.541985,-3.4427480000000004,0.7251908,2019-08-08 14:08:36,-2.0
239.0,-0.0107421875,-0.07897949,-0.0960083,49.89313,3.908397,6.0229006,2019-08-08 14:08:36,-2.0
240.0,-0.014343261999999999,-0.07482910000000001,-0.08416748,69.56489,5.152672,1.3969465,2019-08-08 14:08:36,-2.0
241.0,-0.015319824,-0.09088135,-0.08392334,49.55725,1.3816794,1.9389313000000001,2019-08-08 14:08:36,-2.0
242.0,-0.018066406,-0.089904785,-0.08361816400000001,63.16794,-2.7633588,1.8396946,2019-08-08 14:08:36,-2.0
243.0,-0.011352538999999998,-0.08874512,-0.07482910000000001,52.549618,4.6412214999999994,-1.1068702,2019-08-08 14:08:36,-2.0
244.0,-0.021118164,-0.096191406,-0.07189941400000001,0.259542,4.6946564,9.885496,2019-08-08 14:08:36,-2.0
245.0,-0.01184082,-0.09539795,-0.07373047,-7.6488547,5.10687,4.4274807,2019-08-08 14:08:36,-2.0
246.0,-0.012390136999999999,-0.09552002,-0.07641601599999999,5.1679387000000006,-6.374046,1.5114504,2019-08-08 14:08:36,-2.0
247.0,-0.018798828,-0.097717285,-0.080200195,-17.954199,-4.7022900000000005,0.65648854,2019-08-08 14:08:36,-2.0
248.0,-0.015014648,-0.08953857400000001,-0.07537842,-12.595419999999999,1.6259542,-3.0,2019-08-08 14:08:36,-2.0
249.0,-0.016113281,-0.09100342,-0.08721924,-26.198473,2.8625952999999997,3.5725190000000002,2019-08-08 14:08:36,-2.0
250.0,-0.01159668,-0.08673096,-0.0881958,-16.312977,6.183206,-0.83206105,2019-08-08 14:08:36,-2.0
251.0,-0.019348145,-0.09533691400000001,-0.07464599599999999,-8.015267,5.40458,5.412214,2019-08-08 14:08:36,-2.0
252.0,-0.015563965,-0.08459473,-0.08679199,-20.564885999999998,7.4503818,4.763358599999999,2019-08-08 14:08:36,-2.0
253.0,-0.011962891000000002,-0.087890625,-0.091674805,-15.320610999999998,5.5496182,2.8473282,2019-08-08 14:08:36,-2.0
254.0,-0.012329102,-0.08630371,-0.091796875,-5.328244000000001,5.366412,2.1068702,2019-08-08 14:08:36,-2.0
255.0,-0.014404297,-0.083862305,-0.08483887,-5.091603299999999,3.5267177000000003,3.1755726,2019-08-08 14:08:36,-2.0
256.0,-0.011657715,-0.08636474599999999,-0.087402344,-1.9389313000000001,1.2366412,1.3664121999999999,2019-08-08 14:08:36,-2.0
257.0,-0.011047363000000001,-0.08428955,-0.08752441400000001,2.427481,2.2519082999999998,4.3053436,2019-08-08 14:08:36,-2.0
258.0,-0.01776123,-0.084106445,-0.09100342,2.557252,2.1374047000000003,3.6564887,2019-08-08 14:08:36,-2.0
259.0,-0.02166748,-0.09051514,-0.08630371,-10.458015,1.8244275,3.4732822999999997,2019-08-08 14:08:36,-2.0
260.0,-0.011779785,-0.08709717,-0.09027099599999999,-3.7557251000000003,3.2290077,0.6183206,2019-08-08 14:08:36,-2.0
261.0,-0.00982666,-0.0881958,-0.08306885,-2.1908397999999996,4.3816795,1.8091604,2019-08-08 14:08:36,-2.0
262.0,-0.019897461,-0.077941895,-0.08624267599999999,3.2519082999999998,2.7557251,0.610687,2019-08-08 14:08:36,-2.0
263.0,-0.014892578,-0.089904785,-0.07952881,-6.709923700000001,2.3816792999999996,1.3206106000000002,2019-08-08 14:08:36,-2.0
264.0,-0.006225586,-0.08581543,-0.08117676,-16.015266,3.923664,1.4732825,2019-08-08 14:08:36,-2.0
265.0,-0.012634277,-0.07647705,-0.09637451,-36.045803,-2.0458016,0.67175573,2019-08-08 14:08:36,-2.0
266.0,-0.01361084,-0.07788086,-0.09197998,-16.717558,-0.9541985000000001,2.1603053,2019-08-08 14:08:36,-2.0
267.0,-0.017944336,-0.081970215,-0.08984375,-7.9770994,4.2290077,1.3129771000000001,2019-08-08 14:08:36,-2.0
268.0,-0.006652831999999999,-0.08032226599999999,-0.09338379,-6.259542,2.5419848,2.9770992,2019-08-08 14:08:36,-2.0
269.0,-0.019897461,-0.07537842,-0.09631348,-10.870229,3.5419848,3.908397,2019-08-08 14:08:36,-2.0
270.0,-0.008728027,-0.07397461,-0.1003418,2.5114503,3.0229008,2.9541984,2019-08-08 14:08:36,-2.0
271.0,-0.0138549805,-0.08148193,-0.09014892599999999,2.3053436,2.8396947,2.1145039,2019-08-08 14:08:36,-2.0
272.0,-0.016723633,-0.08459473,-0.09094238,-0.5648854999999999,1.519084,3.2748091,2019-08-08 14:08:36,-2.0
273.0,-0.014953613000000001,-0.07843017599999999,-0.096191406,-1.610687,2.8778627,3.3740457999999998,2019-08-08 14:08:37,-2.0
274.0,-0.010314941,-0.07702637,-0.090026855,-0.6335878,1.1450381,4.053435299999999,2019-08-08 14:08:37,-2.0
275.0,-0.012878418,-0.083984375,-0.09210205,3.0152671000000004,2.5801528,3.076336,2019-08-08 14:08:37,-2.0
276.0,-0.018310547,-0.08441162,-0.08514404,0.17557251,4.480916000000001,2.8015267999999995,2019-08-08 14:08:37,-2.0
277.0,-0.015686035,-0.082214355,-0.09680176,1.2671756,2.9847328999999996,4.8244276,2019-08-08 14:08:37,-2.0
278.0,-0.01776123,-0.08227539,-0.09326172,-1.9923664,3.923664,3.8396947,2019-08-08 14:08:37,-2.0
279.0,-0.01727295,-0.08679199,-0.09222412,-4.3053436,1.5572518999999998,5.6870227,2019-08-08 14:08:37,-2.0
280.0,-0.018676758,-0.07983398400000001,-0.09765625,-7.4198475,4.3129773,5.015267400000001,2019-08-08 14:08:37,-2.0
281.0,-0.012390136999999999,-0.07562256,-0.0993042,-3.4274809999999998,5.8244276,3.4885497,2019-08-08 14:08:37,-2.0
282.0,-0.016296387,-0.07543945,-0.09301758,1.8320610000000002,4.923664,6.2748094000000005,2019-08-08 14:08:37,-2.0
283.0,-0.014099121000000001,-0.087890625,-0.08880615,-6.625953999999999,1.7633588,6.763358599999999,2019-08-08 14:08:37,-2.0
284.0,-0.014709473,-0.08093262,-0.09454346,-14.977098999999999,1.2977100000000001,9.877863,2019-08-08 14:08:37,-2.0
285.0,-0.011779785,-0.06939697,-0.099487305,-9.152672,6.40458,11.328244,2019-08-08 14:08:37,-2.0
286.0,-0.018371582,-0.06341553,-0.10113525400000001,13.59542,8.21374,13.442748000000002,2019-08-08 14:08:37,-2.0
287.0,-0.010620117,-0.07641601599999999,-0.09362793,20.91603,7.0076336999999995,15.122137,2019-08-08 14:08:37,-2.0
288.0,-0.015319824,-0.08270264,-0.08380127,22.259542,4.7938933,14.679389000000002,2019-08-08 14:08:37,-2.0
289.0,-0.018371582,-0.08514404,-0.0881958,9.0,7.6488547,15.969465,2019-08-08 14:08:37,-2.0
290.0,-0.023864746000000003,-0.09204101599999999,-0.09020996,-2.9694657,9.129771,17.183207,2019-08-08 14:08:37,-2.0
291.0,-0.014709473,-0.07653808599999999,-0.09161377,-16.122137,6.778625999999999,12.519084,2019-08-08 14:08:37,-2.0
292.0,-0.014892578,-0.07800293,-0.09173584,-26.587785999999998,7.2748094,9.793892999999999,2019-08-08 14:08:37,-2.0
293.0,-0.012084961000000002,-0.07574463,-0.095214844,-33.274809999999995,9.358779,10.641221,2019-08-08 14:08:37,-2.0
294.0,-0.020690918,-0.07318115,-0.10083008,-30.053434000000003,6.923664,7.8702292,2019-08-08 14:08:37,-2.0
295.0,-0.019226074,-0.06762695,-0.10491943,-21.519083,5.6412214999999994,5.59542,2019-08-08 14:08:37,-2.0
296.0,-0.012207031,-0.0690918,-0.09808349599999999,-16.08397,4.2900763,4.3511453,2019-08-08 14:08:37,-2.0
297.0,-0.019226074,-0.07165527,-0.10314941400000001,-13.129771,3.5267177000000003,2.534351,2019-08-08 14:08:37,-2.0
298.0,-0.019470215,-0.06463623,-0.09906006,-13.2213745,2.923664,2.8396947,2019-08-08 14:08:37,-2.0
299.0,-0.016296387,-0.06933594,-0.10296631,-11.404580000000001,2.6641220000000003,3.6793892,2019-08-08 14:08:37,-2.0
300.0,-0.013671875,-0.07458496,-0.10015869,-5.908396700000001,1.1526718,2.7099237,2019-08-08 14:08:37,-2.0
301.0,-0.006652831999999999,-0.06762695,-0.09838867,-5.4351144,1.8854961,3.183206,2019-08-08 14:08:37,-2.0
302.0,-0.015319824,-0.06915283,-0.09991455,-5.4656487,2.221374,4.152672,2019-08-08 14:08:37,-2.0
303.0,-0.015014648,-0.07489014,-0.09490967,-2.793893,2.6412212999999998,2.946565,2019-08-08 14:08:37,-2.0
304.0,-0.015991211,-0.0690918,-0.10076904,-4.1755724,1.7251908999999999,1.9847328999999998,2019-08-08 14:08:37,-2.0
305.0,-0.011474608999999998,-0.06542969,-0.10778808599999999,0.54198474,3.206107,-0.55725193,2019-08-08 14:08:37,-2.0
306.0,-0.016479492,-0.06793213,-0.10113525400000001,6.076336,2.183206,0.55725193,2019-08-08 14:08:37,-2.0
307.0,-0.025939941,-0.06585693,-0.09906006,2.687023,2.1603053,-2.1221373,2019-08-08 14:08:37,-2.0
308.0,-0.016540527,-0.075683594,-0.10327148400000001,4.763358599999999,5.4274807,-6.0229006,2019-08-08 14:08:37,-2.0
309.0,-0.009887695,-0.07244873,-0.09271239999999999,-5.412214,7.0534353,-6.7709923,2019-08-08 14:08:38,-2.0
310.0,-0.0138549805,-0.06616211,-0.100097656,6.5725193,2.961832,-2.3816792999999996,2019-08-08 14:08:38,-2.0
311.0,-0.016113281,-0.08453369,-0.09436035,6.7480917,-0.31297709999999995,0.17557251,2019-08-08 14:08:38,-2.0
312.0,-0.015258788999999998,-0.08557129,-0.097839355,-12.511451,3.4809160000000006,3.29771,2019-08-08 14:08:38,-2.0
313.0,-0.012268066000000001,-0.06286621,-0.100097656,-18.122137,5.2900763,5.854962,2019-08-08 14:08:38,-2.0
314.0,-0.015075683999999999,-0.058288574,-0.10144043,-11.702291,5.0229006,6.885496000000001,2019-08-08 14:08:38,-2.0
315.0,-0.0178833,-0.06964111,-0.10473633,-1.0534351,4.4274807,3.7328242999999994,2019-08-08 14:08:38,-2.0
316.0,-0.01739502,-0.06518555,-0.10388183599999999,-3.221374,5.3816795,1.9389313000000001,2019-08-08 14:08:38,-2.0
317.0,-0.014770508,-0.06927489999999999,-0.103515625,0.5114504,3.0992367,1.2977100000000001,2019-08-08 14:08:38,-2.0
318.0,-0.011962891000000002,-0.06506348,-0.10052489999999999,3.4122138,-0.47328246,2.1374047000000003,2019-08-08 14:08:38,-2.0
319.0,-0.013793945,-0.07128906,-0.10101318,9.870229,-0.5648854999999999,1.7786259999999998,2019-08-08 14:08:38,-2.0
320.0,-0.014831543,-0.07342529,-0.09417724599999999,8.450381,-2.5496182000000003,3.5648854,2019-08-08 14:08:38,-2.0
321.0,-0.012451172,-0.064331055,-0.10437012,-0.15267175,-2.4961832000000004,4.5725193,2019-08-08 14:08:38,-2.0
322.0,-0.017578125,-0.06549072,-0.10638428,7.9923663000000005,-0.47328246,3.59542,2019-08-08 14:08:38,-2.0
323.0,-0.014770508,-0.06365967,-0.103027344,8.358779,0.259542,3.038168,2019-08-08 14:08:38,-2.0
324.0,-0.01361084,-0.072753906,-0.09277344,5.6412214999999994,2.832061,2.908397,2019-08-08 14:08:38,-2.0
325.0,-0.017333984,-0.07080078,-0.10070801,0.45801526,4.2977099999999995,3.8625953,2019-08-08 14:08:38,-2.0
326.0,-0.018981934,-0.066345215,-0.10003662,2.3053436,-0.19083970000000003,4.236641400000001,2019-08-08 14:08:38,-2.0
327.0,-0.017028809,-0.07330322,-0.09631348,-0.71755725,1.4045801000000002,3.465649,2019-08-08 14:08:38,-2.0
328.0,-0.018737793,-0.05871582,-0.1015625,-1.4732825,0.73282444,0.90839696,2019-08-08 14:08:38,-2.0
329.0,-0.008117675999999999,-0.07781982400000001,-0.09698486,10.832061,1.480916,1.1374046,2019-08-08 14:08:38,-2.0
330.0,-0.02178955,-0.07104492,-0.09832764,2.6412212999999998,-1.1984733,0.52671754,2019-08-08 14:08:38,-2.0
331.0,-0.021484375,-0.06689453,-0.10028076,3.6946564,-0.8244275,1.0458015,2019-08-08 14:08:38,-2.0
332.0,-0.013183594,-0.07244873,-0.09997558599999999,-14.78626,-1.0229008,2.8473282,2019-08-08 14:08:38,-2.0
333.0,-0.023925781,-0.062316895,-0.09729004,-0.007633588,2.3587787000000002,1.4961832,2019-08-08 14:08:38,-2.0
334.0,-0.018615723,-0.06774902,-0.09686279,2.8854961,-0.5038168,1.2061069,2019-08-08 14:08:38,-2.0
335.0,-0.014953613000000001,-0.06738281,-0.09698486,1.2748091000000001,2.1755726,0.66412216,2019-08-08 14:08:38,-2.0
336.0,-0.010314941,-0.070251465,-0.10815430000000001,0.23664123,1.1145038999999999,1.6793894,2019-08-08 14:08:38,-2.0
337.0,-0.009887695,-0.07135010000000001,-0.10064697,-0.030534351,2.206107,2.9007633,2019-08-08 14:08:38,-2.0
338.0,-0.018920898000000002,-0.061828613,-0.099731445,1.389313,-1.1145038999999999,0.8549618,2019-08-08 14:08:38,-2.0
339.0,-0.012023926,-0.060791015999999996,-0.10803223,2.5801528,-2.3511450000000003,-1.0305344,2019-08-08 14:08:38,-2.0
340.0,-0.013671875,-0.071777344,-0.09869385,3.3740457999999998,-0.5954198,-2.0610688,2019-08-08 14:08:38,-2.0
341.0,-0.010559082,-0.07135010000000001,-0.09924316400000001,-5.6183205,-4.961832,1.1374046,2019-08-08 14:08:38,-2.0
342.0,-0.011779785,-0.06677246,-0.10229492,0.8854962,0.70229006,-3.3664122000000005,2019-08-08 14:08:38,-2.0
343.0,-0.014221191000000001,-0.0703125,-0.1038208,11.404580000000001,-2.0,-4.038168,2019-08-08 14:08:38,-2.0
344.0,-0.013061523,-0.07489014,-0.09686279,7.0076336999999995,-2.3053436,-6.4885497,2019-08-08 14:08:39,-2.0
345.0,-0.016967773000000002,-0.07263183599999999,-0.10253906,13.580152499999999,-1.0763359,-5.854962,2019-08-08 14:08:39,-2.0
346.0,-0.01727295,-0.06933594,-0.10449219,11.145039,2.9694657,-4.6183205,2019-08-08 14:08:39,-2.0
347.0,-0.019470215,-0.07006836,-0.10070801,20.91603,-1.4122137,-6.5038165999999995,2019-08-08 14:08:39,-2.0
348.0,-0.0119018555,-0.07299805,-0.09375,16.969465,1.0839695,-3.0992367,2019-08-08 14:08:39,-2.0
349.0,-0.018676758,-0.08404541,-0.09552002,5.2977099999999995,-0.8015267,-1.1221374,2019-08-08 14:08:39,-2.0
350.0,-0.017150878999999997,-0.07556152,-0.09741211,11.290076,-0.8015267,-1.0,2019-08-08 14:08:39,-2.0
351.0,-0.011352538999999998,-0.078308105,-0.09088135,8.412213000000001,-4.1679387000000006,1.7328244,2019-08-08 14:08:39,-2.0
352.0,-0.016357422,-0.08441162,-0.09197998,-2.5877862,-8.335877,-0.6946565,2019-08-08 14:08:39,-2.0
353.0,-0.018981934,-0.07342529,-0.09454346,-9.580152499999999,3.0305343,1.4351145,2019-08-08 14:08:39,-2.0
354.0,-0.019104003999999997,-0.06781006,-0.09350586,3.5038167999999996,3.6717557999999997,0.19083970000000003,2019-08-08 14:08:39,-2.0
355.0,-0.014282227,-0.08294678,-0.09301758,8.977099,7.19084,-3.7633588,2019-08-08 14:08:39,-2.0
356.0,-0.016540527,-0.07165527,-0.09509277,-2.519084,5.114504,0.7251908,2019-08-08 14:08:39,-2.0
357.0,-0.012634277,-0.07373047,-0.09552002,9.343511999999999,3.961832,-3.1755726,2019-08-08 14:08:39,-2.0
358.0,-0.008728027,-0.08453369,-0.08605957,-3.5038167999999996,-0.17557251,-3.9847328999999996,2019-08-08 14:08:39,-2.0
359.0,-0.013977051,-0.08001709,-0.09820557,-30.152671999999995,2.6488549999999997,0.32061067,2019-08-08 14:08:39,-2.0
360.0,-0.020507812,-0.060546875,-0.10290527,-23.625954,3.6335877999999995,2.2366412,2019-08-08 14:08:39,-2.0
361.0,-0.016357422,-0.08123779,-0.0993042,-16.450382,7.412214,-7.59542,2019-08-08 14:08:39,-2.0
362.0,-0.01739502,-0.06048584,-0.10583496,-12.938931,5.6793895,-3.8549618999999997,2019-08-08 14:08:39,-2.0
363.0,-0.015625,-0.06817627,-0.092285156,8.580152499999999,-1.4427481000000002,-2.5114503,2019-08-08 14:08:39,-2.0
364.0,-0.008422852,-0.08526611,-0.09155273400000001,-22.10687,3.5725190000000002,-1.2061069,2019-08-08 14:08:39,-2.0
365.0,-0.01373291,-0.05633545,-0.11071777,-30.671754999999997,4.557252,0.77862597,2019-08-08 14:08:39,-2.0
366.0,-0.0146484375,-0.06945801,-0.1026001,-17.641222,-1.2748091000000001,-9.557252,2019-08-08 14:08:39,-2.0
367.0,-0.015014648,-0.07708739999999999,-0.105529785,-22.015266,4.335878,-0.26717559,2019-08-08 14:08:39,-2.0
368.0,-0.014160156,-0.08154297,-0.0914917,-32.755726,6.0839696,-2.534351,2019-08-08 14:08:39,-2.0
369.0,-0.015258788999999998,-0.06665039,-0.10650635,-68.496185,-3.1374047000000003,-7.0534353,2019-08-08 14:08:39,-2.0
370.0,-0.017456055,-0.046691895,-0.10986328,-43.770992,2.9923662999999996,-6.3816795,2019-08-08 14:08:39,-2.0
371.0,-0.014221191000000001,-0.050720215,-0.11303711,-15.419847500000001,1.1832061000000003,-4.0458016,2019-08-08 14:08:39,-2.0
372.0,-0.012634277,-0.055664062,-0.109436035,-27.389313,5.2519083,0.8015267,2019-08-08 14:08:39,-2.0
373.0,-0.008056641,-0.049438477,-0.11413574,2.3053436,4.2442746,3.534351,2019-08-08 14:08:39,-2.0
374.0,-0.009460449000000001,-0.043945312,-0.11175537,15.40458,2.183206,5.946564700000001,2019-08-08 14:08:39,-2.0
375.0,-0.005676269499999999,-0.052734375,-0.11694336,45.08397,0.97709924,4.2519083,2019-08-08 14:08:39,-2.0
376.0,-0.020568848,-0.06829834,-0.09967041,34.702290000000005,-0.5496183000000001,3.8167940000000002,2019-08-08 14:08:39,-2.0
377.0,-0.006958008000000001,-0.06689453,-0.10626221,37.946564,-2.8778627,1.961832,2019-08-08 14:08:39,-2.0
378.0,-0.013366699,-0.088378906,-0.095703125,8.572519,-3.5419848,-0.35877863,2019-08-08 14:08:39,-2.0
379.0,-0.020385742,-0.056518555,-0.10510254,-1.0152671,5.0839696,2.4351146,2019-08-08 14:08:40,-2.0
380.0,-0.010498047,-0.058044434000000006,-0.10668945,0.8854962,3.70229,4.1755724,2019-08-08 14:08:40,-2.0
381.0,-0.014892578,-0.06671142599999999,-0.10290527,15.175572,4.7862597000000004,12.7404585,2019-08-08 14:08:40,-2.0
382.0,-0.012207031,-0.05670166,-0.10290527,19.519083,-1.3282443000000002,16.93893,2019-08-08 14:08:40,-2.0
383.0,-0.004638672,-0.070129395,-0.10131836,34.53435,1.6793894,9.641221,2019-08-08 14:08:40,-2.0
384.0,-0.016906738,-0.07116699,-0.101745605,30.946565999999997,1.3664121999999999,5.2519083,2019-08-08 14:08:40,-2.0
385.0,-0.018737793,-0.06585693,-0.09313965,13.893129,1.9770991999999998,9.244275,2019-08-08 14:08:40,-2.0
386.0,-0.017150878999999997,-0.07763672,-0.10223389,5.343511599999999,0.39694658,2.534351,2019-08-08 14:08:40,-2.0
387.0,-0.012329102,-0.07971191400000001,-0.10058594,-0.5038168,1.4198473999999999,2.1221373,2019-08-08 14:08:40,-2.0
388.0,-0.021972656,-0.06872558599999999,-0.09613037,-19.717558,4.9694657,3.3664122000000005,2019-08-08 14:08:40,-2.0
389.0,-0.013183594,-0.05657959,-0.10522461,-20.519083,4.259542,2.9389312000000003,2019-08-08 14:08:40,-2.0
390.0,-0.018127441,-0.06262207,-0.10327148400000001,-3.5801528,4.0458016,3.8625953,2019-08-08 14:08:40,-2.0
391.0,-0.016845703,-0.06793213,-0.099609375,-3.4198472,1.5496184,2.2442749,2019-08-08 14:08:40,-2.0
392.0,-0.01586914,-0.06719971,-0.1015625,-14.183207000000001,5.740458,4.5038165999999995,2019-08-08 14:08:40,-2.0
393.0,-0.018066406,-0.06378174,-0.099731445,-11.534351,6.8244276,1.7328244,2019-08-08 14:08:40,-2.0
394.0,-0.0146484375,-0.066589355,-0.10327148400000001,-1.3664121999999999,6.5648856,-0.70229006,2019-08-08 14:08:40,-2.0
395.0,-0.018615723,-0.06488037,-0.10388183599999999,-11.045800999999999,6.8244276,0.8244275,2019-08-08 14:08:40,-2.0
396.0,-0.02178955,-0.05822754,-0.09893799,-4.068702,-1.6412214,0.5954198,2019-08-08 14:08:40,-2.0
397.0,-0.007507324,-0.07855224599999999,-0.09838867,4.2671757,0.16030534,1.4045801000000002,2019-08-08 14:08:40,-2.0
398.0,-0.016235351999999998,-0.06671142599999999,-0.10766601599999999,-24.374046,1.8473282,3.1221373,2019-08-08 14:08:40,-2.0
399.0,-0.0010375977,-0.04107666,-0.09832764,9.641221,6.2977099999999995,3.4580152,2019-08-08 14:08:40,-2.0
400.0,-0.013977051,-0.06530762,-0.09765625,18.595419,-0.045801528,-1.0305344,2019-08-08 14:08:40,-2.0
401.0,-0.014343261999999999,-0.07171631,-0.10107422,16.946566,3.2595419999999997,-0.77099234,2019-08-08 14:08:40,-2.0
402.0,-0.011413574,-0.061706542999999996,-0.10070801,13.374045,4.854962,-0.3053435,2019-08-08 14:08:40,-2.0
403.0,-0.020263672,-0.06402588,-0.10467529,20.984734,20.160304999999997,-4.8625956,2019-08-08 14:08:40,-2.0
404.0,-0.007751465,-0.07556152,-0.09045410000000001,18.473282,-0.8549618,3.465649,2019-08-08 14:08:40,-2.0
405.0,-0.01159668,-0.06738281,-0.097473145,4.89313,1.1526718,2.3511450000000003,2019-08-08 14:08:40,-2.0
406.0,-0.0134887695,-0.07159424,-0.10388183599999999,-7.7862597000000004,2.923664,3.8473281999999998,2019-08-08 14:08:40,-2.0
407.0,-0.014282227,-0.06384277,-0.09844971,-7.2442746,1.5496184,3.4122138,2019-08-08 14:08:40,-2.0
408.0,-0.013793945,-0.07580566400000001,-0.09765625,-3.5267177000000003,-3.6106870000000004,1.2366412,2019-08-08 14:08:40,-2.0
409.0,-0.00970459,-0.06213379,-0.10491943,-15.450381,-0.89312977,3.0229008,2019-08-08 14:08:40,-2.0
410.0,-0.017456055,-0.059936523,-0.10186767599999999,-18.251910000000002,2.4885497,4.8244276,2019-08-08 14:08:40,-2.0
411.0,-0.012634277,-0.05834961,-0.09918213,-6.6488547,3.091603,5.5114503,2019-08-08 14:08:40,-2.0
412.0,-0.014587402,-0.06628418,-0.09936523400000001,3.6946564,2.0687022,3.2366412,2019-08-08 14:08:40,-2.0
413.0,-0.026123047000000003,-0.06774902,-0.10455322,4.923664,1.5419847,2.7404580000000003,2019-08-08 14:08:40,-2.0
414.0,-0.018920898000000002,-0.066589355,-0.099121094,5.8702292,2.8549618999999997,2.8778627,2019-08-08 14:08:40,-2.0
415.0,-0.013000488000000001,-0.062438965,-0.10046387,7.80916,0.3053435,0.9236641,2019-08-08 14:08:40,-2.0
416.0,-0.005676269499999999,-0.0647583,-0.10333252,-4.5419846,0.129771,2.8778627,2019-08-08 14:08:41,-2.0
417.0,-0.011474608999999998,-0.06732178,-0.10345459,-3.0839694,4.5343513,0.49618322,2019-08-08 14:08:41,-2.0
418.0,-0.011108398,-0.060424805,-0.1071167,2.1068702,2.7633588,3.2671757,2019-08-08 14:08:41,-2.0
419.0,-0.013427733999999998,-0.061706542999999996,-0.09722900400000001,4.221374,0.38167940000000006,2.3816792999999996,2019-08-08 14:08:41,-2.0
420.0,-0.015075683999999999,-0.07141113,-0.09942627,4.908396700000001,1.6946564999999998,3.8396947,2019-08-08 14:08:41,-2.0
421.0,-0.013977051,-0.064453125,-0.101745605,3.221374,2.2519082999999998,1.7862595000000001,2019-08-08 14:08:41,-2.0
422.0,-0.013000488000000001,-0.06689453,-0.09985351599999999,0.5114504,2.1221373,2.0610688,2019-08-08 14:08:41,-2.0
423.0,-0.011779785,-0.06732178,-0.09808349599999999,1.8702290000000001,3.8244274,2.3206108,2019-08-08 14:08:41,-2.0
424.0,-0.014099121000000001,-0.0637207,-0.10180664,0.8854962,2.7480917000000002,2.0839694,2019-08-08 14:08:41,-2.0
425.0,-0.017150878999999997,-0.06579589999999999,-0.099487305,3.1755726,1.1755725000000001,0.8167939000000001,2019-08-08 14:08:41,-2.0
426.0,-0.016052246000000003,-0.07232666,-0.09417724599999999,-2.1908397999999996,2.1145039,1.4656489,2019-08-08 14:08:41,-2.0
427.0,-0.016235351999999998,-0.06896973,-0.10516357400000001,1.3740458,2.7709923,1.0152671,2019-08-08 14:08:41,-2.0
428.0,-0.018005371000000003,-0.06518555,-0.09265137,1.1984733,3.6030532999999996,4.0458016,2019-08-08 14:08:41,-2.0
429.0,-0.014892578,-0.06707764,-0.101623535,2.9694657,1.5954198999999998,3.3664122000000005,2019-08-08 14:08:41,-2.0
430.0,-0.01763916,-0.06530762,-0.099121094,5.7709923,0.3053435,2.923664,2019-08-08 14:08:41,-2.0
431.0,-0.008666992,-0.058654785,-0.109313965,0.36641222,8.916031,-0.519084,2019-08-08 14:08:41,-2.0
432.0,-0.016418457,-0.06683349599999999,-0.10021973,-1.4656489,-1.6717557,3.0992367,2019-08-08 14:08:41,-2.0
433.0,-0.01727295,-0.06903076,-0.10089111,4.9770994,3.2900763,-0.22900763,2019-08-08 14:08:41,-2.0
434.0,-0.014709473,-0.06524658,-0.10107422,4.053435299999999,1.2900764,2.5877862,2019-08-08 14:08:41,-2.0
435.0,-0.010986328,-0.06500244,-0.10314941400000001,7.19084,2.5419848,4.1374044,2019-08-08 14:08:41,-2.0
436.0,-0.019958496000000003,-0.06628418,-0.0993042,4.183206,2.0305343000000002,2.3969467,2019-08-08 14:08:41,-2.0
437.0,-0.0134887695,-0.058044434000000006,-0.1038208,-12.465649,5.7251905999999995,4.236641400000001,2019-08-08 14:08:41,-2.0
438.0,-0.012023926,-0.07141113,-0.09637451,1.8702290000000001,-2.2595419999999997,4.4503818,2019-08-08 14:08:41,-2.0
439.0,-0.0146484375,-0.07293701,-0.101623535,6.480916000000001,6.152672,2.3816792999999996,2019-08-08 14:08:41,-2.0
440.0,-0.008117675999999999,-0.07287598,-0.09753418,0.70229006,1.1984733,2.2137403,2019-08-08 14:08:41,-2.0
441.0,-0.0134887695,-0.06976318,-0.103027344,0.20610687,3.0229008,2.7251909,2019-08-08 14:08:41,-2.0
442.0,-0.014587402,-0.06976318,-0.10217285,-0.5496183000000001,1.9312977,2.4732822999999997,2019-08-08 14:08:41,-2.0
443.0,-0.018066406,-0.062438965,-0.10083008,-0.06870229,2.9541984,1.3816794,2019-08-08 14:08:41,-2.0
444.0,-0.013183594,-0.064941406,-0.10192871,0.26717559,1.9847328999999998,3.1603053,2019-08-08 14:08:41,-2.0
445.0,-0.011413574,-0.066467285,-0.09716797,3.793893,1.480916,3.923664,2019-08-08 14:08:41,-2.0
446.0,-0.014404297,-0.06286621,-0.09881592,0.71755725,2.389313,4.343511599999999,2019-08-08 14:08:41,-2.0
447.0,-0.011108398,-0.07250976599999999,-0.10559082,-2.7480917000000002,3.3893129999999996,1.8625953999999998,2019-08-08 14:08:41,-2.0
448.0,-0.007690429699999999,-0.066345215,-0.09326172,-2.9770992,4.4961834000000005,2.4580152,2019-08-08 14:08:41,-2.0
449.0,-0.0154418945,-0.061340332000000004,-0.101501465,-2.206107,4.885496,2.129771,2019-08-08 14:08:41,-2.0
450.0,-0.016418457,-0.06921387,-0.09777832,-3.70229,4.343511599999999,2.4198472,2019-08-08 14:08:42,-2.0
451.0,-0.012573242,-0.066223145,-0.10455322,0.7251908,4.0229006,3.0458016,2019-08-08 14:08:42,-2.0
452.0,-0.015686035,-0.070495605,-0.10266113,3.5648854,0.8015267,2.0687022,2019-08-08 14:08:42,-2.0
453.0,-0.014160156,-0.05847168,-0.10668945,4.7709923,0.28244275,0.519084,2019-08-08 14:08:42,-2.0
454.0,-0.016784668,-0.07092285,-0.09954834,6.4503818,1.7938931,3.1603053,2019-08-08 14:08:42,-2.0
455.0,-0.01171875,-0.0690918,-0.09606933599999999,5.0458016,2.2748091,2.4351146,2019-08-08 14:08:42,-2.0
456.0,-0.011108398,-0.06109619,-0.10198974599999999,3.2290077,6.2519083,0.6793893,2019-08-08 14:08:42,-2.0
457.0,-0.016479492,-0.06945801,-0.10369873,-6.374046,0.15267175,1.7557251,2019-08-08 14:08:42,-2.0
458.0,-0.008728027,-0.06762695,-0.10015869,-7.1221375,3.4503817999999997,0.35114503,2019-08-08 14:08:42,-2.0
459.0,-0.014343261999999999,-0.06781006,-0.109313965,-4.396946400000001,3.2366412,2.5648854,2019-08-08 14:08:42,-2.0
460.0,-0.021118164,-0.06756592,-0.10095215,-1.8244275,2.557252,2.1374047000000003,2019-08-08 14:08:42,-2.0
461.0,-0.010559082,-0.06121826,-0.10266113,-1.519084,3.076336,0.71755725,2019-08-08 14:08:42,-2.0
462.0,-0.009033203,-0.0703125,-0.10070801,-1.0229008,2.3053436,3.465649,2019-08-08 14:08:42,-2.0
463.0,-0.012939453,-0.06536865,-0.10485839999999998,1.6183206,0.6946565,1.7557251,2019-08-08 14:08:42,-2.0
464.0,-0.012634277,-0.06213379,-0.10656738,3.5572519999999996,0.96183205,0.7099236999999999,2019-08-08 14:08:42,-2.0
465.0,-0.012207031,-0.063964844,-0.109375,6.053435299999999,0.8702290000000001,-0.9694656999999999,2019-08-08 14:08:42,-2.0
466.0,-0.011657715,-0.06799316400000001,-0.105529785,4.4351144,0.83206105,-0.34351146,2019-08-08 14:08:42,-2.0
467.0,-0.009155273,-0.06732178,-0.10675049,-11.328244,2.1221373,1.3664121999999999,2019-08-08 14:08:42,-2.0
468.0,-0.012207031,-0.068359375,-0.09802246,2.5877862,-1.9465648999999998,1.7480916000000002,2019-08-08 14:08:42,-2.0
469.0,-0.01928711,-0.06237793,-0.10223389,11.312977,4.931298,0.41984734,2019-08-08 14:08:42,-2.0
470.0,-0.01727295,-0.0690918,-0.10644531,9.374044999999999,-0.8702290000000001,3.2137403,2019-08-08 14:08:42,-2.0
471.0,-0.014587402,-0.070129395,-0.10278319999999999,5.89313,1.221374,2.1526718,2019-08-08 14:08:42,-2.0
472.0,-0.01361084,-0.07006836,-0.09893799,5.3206105,0.84732825,0.35114503,2019-08-08 14:08:42,-2.0
473.0,-0.010559082,-0.0680542,-0.099609375,4.038168,1.6870228999999999,0.67175573,2019-08-08 14:08:42,-2.0
474.0,-0.015991211,-0.06738281,-0.09631348,2.7709923,1.1450381,1.0458015,2019-08-08 14:08:42,-2.0
475.0,-0.011962891000000002,-0.06359863,-0.10327148400000001,-2.6259542000000002,3.2137403,1.2137405,2019-08-08 14:08:42,-2.0
476.0,-0.015258788999999998,-0.06323242,-0.105529785,-0.5114504,3.6335877999999995,2.519084,2019-08-08 14:08:42,-2.0
477.0,-0.017333984,-0.07635498,-0.10058594,1.4198473999999999,2.480916,2.4885497,2019-08-08 14:08:42,-2.0
478.0,-0.011962891000000002,-0.06829834,-0.101501465,0.22900763,2.0992367,1.8244275,2019-08-08 14:08:42,-2.0
479.0,-0.015075683999999999,-0.07006836,-0.09411621,0.65648854,1.351145,3.3816792999999996,2019-08-08 14:08:42,-2.0
480.0,-0.017028809,-0.06542969,-0.10327148400000001,4.3587785000000006,2.0687022,1.6946564999999998,2019-08-08 14:08:42,-2.0
481.0,-0.014221191000000001,-0.07073974599999999,-0.10235596,5.8778625,1.5496184,2.610687,2019-08-08 14:08:42,-2.0
482.0,-0.01928711,-0.07159424,-0.10296631,3.6183207000000004,1.2900764,1.9541985,2019-08-08 14:08:42,-2.0
483.0,-0.0134887695,-0.07196045,-0.09808349599999999,2.6412212999999998,2.312977,0.129771,2019-08-08 14:08:42,-2.0
484.0,-0.009643555,-0.06878662,-0.09423828,1.480916,0.8549618,2.3282442000000003,2019-08-08 14:08:42,-2.0
485.0,-0.01727295,-0.06701660000000001,-0.09631348,2.2595419999999997,1.6717557,0.46564886,2019-08-08 14:08:42,-2.0
486.0,-0.015563965,-0.07006836,-0.10253906,5.0839696,1.2519083999999998,3.6870230000000004,2019-08-08 14:08:42,-2.0
487.0,-0.014953613000000001,-0.066589355,-0.09686279,6.8244276,0.53435117,2.3358779999999997,2019-08-08 14:08:43,-2.0
488.0,-0.01953125,-0.07385254,-0.09478760000000001,6.3893127,2.0229008,2.5877862,2019-08-08 14:08:43,-2.0
489.0,-0.016906738,-0.07208252,-0.09625244,4.2824425999999995,1.8702290000000001,-1.0,2019-08-08 14:08:43,-2.0
490.0,-0.0146484375,-0.07385254,-0.09729004,1.0305344,2.4045799999999997,0.17557251,2019-08-08 14:08:43,-2.0
491.0,-0.014282227,-0.07366943,-0.09613037,-2.3435113,1.7709924,2.2595419999999997,2019-08-08 14:08:43,-2.0
492.0,-0.010437011999999999,-0.06793213,-0.09942627,-2.2519082999999998,4.9923663000000005,2.091603,2019-08-08 14:08:43,-2.0
493.0,-0.01171875,-0.06762695,-0.09875488,-0.31297709999999995,2.5801528,2.4732822999999997,2019-08-08 14:08:43,-2.0
494.0,-0.015136719,-0.066467285,-0.09704589999999999,0.6793893,2.6412212999999998,1.6793894,2019-08-08 14:08:43,-2.0
495.0,-0.015136719,-0.07055664,-0.10119629,2.4961832000000004,0.5648854999999999,0.8167939000000001,2019-08-08 14:08:43,-2.0
496.0,-0.014770508,-0.07409668,-0.10083008,3.2442749,0.19083970000000003,3.2595419999999997,2019-08-08 14:08:43,-2.0
497.0,-0.010864258,-0.07562256,-0.10577392599999999,3.5572519999999996,2.4122138,0.66412216,2019-08-08 14:08:43,-2.0
498.0,-0.011352538999999998,-0.06829834,-0.09820557,1.9770991999999998,-0.015267176,0.9389313,2019-08-08 14:08:43,-2.0
499.0,-0.017700195,-0.06903076,-0.09716797,0.0,1.9923664,1.2748091000000001,2019-08-08 14:08:43,-2.0
500.0,-0.015380858999999998,-0.07458496,-0.09979248,-1.9312977,2.7862597,2.2366412,2019-08-08 14:08:43,-2.0
501.0,-0.016662598,-0.06988525400000001,-0.09997558599999999,-2.8091602000000004,3.4809160000000006,3.3435113,2019-08-08 14:08:43,-2.0
502.0,-0.012390136999999999,-0.06878662,-0.09802246,-3.6183207000000004,4.2671757,2.3282442000000003,2019-08-08 14:08:43,-2.0
503.0,-0.012512207,-0.066589355,-0.09283447,1.7175573,3.0992367,2.0610688,2019-08-08 14:08:43,-2.0
504.0,-0.015197753999999999,-0.074401855,-0.10076904,1.8396946,2.5954200000000003,2.3282442000000003,2019-08-08 14:08:43,-2.0
505.0,-0.013244628999999999,-0.057434082000000004,-0.10607910000000002,-3.8778627,4.8625956,-0.24427481,2019-08-08 14:08:43,-2.0
506.0,-0.010620117,-0.068847656,-0.10284424,-3.2748091,-0.122137405,2.129771,2019-08-08 14:08:43,-2.0
507.0,-0.011962891000000002,-0.06982422,-0.09503174,-0.8091603,3.5267177000000003,-0.114503816,2019-08-08 14:08:43,-2.0
508.0,-0.016418457,-0.067871094,-0.0949707,0.13740458,3.0839694,1.9160305,2019-08-08 14:08:43,-2.0
509.0,-0.01586914,-0.06842041,-0.09967041,-3.5801528,4.2290077,2.427481,2019-08-08 14:08:43,-2.0
510.0,-0.010375977,-0.06506348,-0.09942627,1.0,3.3969467000000004,3.9007633000000004,2019-08-08 14:08:43,-2.0
511.0,-0.015991211,-0.072143555,-0.09643555,0.5648854999999999,1.7328244,2.0992367,2019-08-08 14:08:43,-2.0
512.0,-0.016113281,-0.07476807,-0.096191406,2.0687022,1.1755725000000001,3.3816792999999996,2019-08-08 14:08:43,-2.0
513.0,-0.007751465,-0.06921387,-0.10430908,1.1984733,1.3129771000000001,0.96183205,2019-08-08 14:08:43,-2.0
514.0,-0.020019531,-0.06341553,-0.101623535,2.923664,1.0610687,0.41221374,2019-08-08 14:08:43,-2.0
515.0,-0.013549805,-0.07147217,-0.09661865,3.3969467000000004,1.4045801000000002,1.1755725000000001,2019-08-08 14:08:43,-2.0
516.0,-0.014587402,-0.07141113,-0.09204101599999999,2.0305343000000002,2.2137403,1.0152671,2019-08-08 14:08:43,-2.0
517.0,-0.012390136999999999,-0.07305908,-0.10101318,-3.6641220000000003,3.2595419999999997,1.8396946,2019-08-08 14:08:43,-2.0
518.0,-0.018737793,-0.07183838,-0.09283447,-0.9312976999999999,2.961832,2.9541984,2019-08-08 14:08:43,-2.0
519.0,-0.0115356445,-0.07067871,-0.09100342,-0.3053435,2.7633588,2.1068702,2019-08-08 14:08:43,-2.0
520.0,-0.015625,-0.07305908,-0.09722900400000001,3.2671757,1.6412214,1.091603,2019-08-08 14:08:43,-2.0
521.0,-0.014160156,-0.07092285,-0.095581055,4.0610685,1.351145,1.2366412,2019-08-08 14:08:43,-2.0
522.0,-0.01550293,-0.07263183599999999,-0.09832764,3.8015267999999995,1.5496184,0.46564886,2019-08-08 14:08:44,-2.0
523.0,-0.013122558999999999,-0.07196045,-0.09417724599999999,3.7862597,1.7480916000000002,0.66412216,2019-08-08 14:08:44,-2.0
524.0,-0.014099121000000001,-0.07189941400000001,-0.10217285,1.8167938999999997,1.8625953999999998,2.1755726,2019-08-08 14:08:44,-2.0
525.0,-0.016174316,-0.06811523400000001,-0.09667969,-1.5572518999999998,2.480916,3.0076337000000004,2019-08-08 14:08:44,-2.0
526.0,-0.013671875,-0.07135010000000001,-0.09924316400000001,0.23664123,3.6259542000000002,2.2748091,2019-08-08 14:08:44,-2.0
527.0,-0.01727295,-0.06762695,-0.09887695,-2.091603,3.5114503,3.3969467000000004,2019-08-08 14:08:44,-2.0
528.0,-0.018981934,-0.06951904,-0.09667969,-0.3053435,3.3282442000000003,3.4198472,2019-08-08 14:08:44,-2.0
529.0,-0.014587402,-0.07067871,-0.09710693,0.6946565,2.3511450000000003,3.3206108,2019-08-08 14:08:44,-2.0
530.0,-0.019348145,-0.07293701,-0.09417724599999999,2.2900763,2.3053436,2.3664122000000005,2019-08-08 14:08:44,-2.0
531.0,-0.013061523,-0.068237305,-0.09289551,1.8015267,1.4732825,2.7328243,2019-08-08 14:08:44,-2.0
532.0,-0.017089844,-0.06970215,-0.10089111,1.2900764,3.6335877999999995,-0.610687,2019-08-08 14:08:44,-2.0
533.0,-0.016235351999999998,-0.07452392599999999,-0.09490967,-2.4122138,2.0,-0.17557251,2019-08-08 14:08:44,-2.0
534.0,-0.0056152343999999995,-0.07305908,-0.09527588,-1.0458015,2.7404580000000003,1.610687,2019-08-08 14:08:44,-2.0
535.0,-0.015991211,-0.068359375,-0.093811035,-1.8015267,2.312977,3.183206,2019-08-08 14:08:44,-2.0
536.0,-0.010864258,-0.07623291,-0.09631348,0.29007635,2.70229,1.4732825,2019-08-08 14:08:44,-2.0
537.0,-0.016662598,-0.0715332,-0.10278319999999999,2.1374047000000003,-0.48091602,1.6793894,2019-08-08 14:08:44,-2.0
538.0,-0.014526367,-0.07043457,-0.09838867,3.7404580000000003,1.610687,1.3969465,2019-08-08 14:08:44,-2.0
539.0,-0.014526367,-0.06927489999999999,-0.09649658,-2.0687022,-0.19847329,2.2824428,2019-08-08 14:08:44,-2.0
540.0,-0.012878418,-0.07141113,-0.09637451,-1.4580153,2.480916,0.5114504,2019-08-08 14:08:44,-2.0
541.0,-0.012084961000000002,-0.06958008,-0.09735107400000001,-0.6335878,1.0229008,1.6259542,2019-08-08 14:08:44,-2.0
542.0,-0.012023926,-0.06890869,-0.10046387,0.6488550000000001,2.3358779999999997,1.4045801000000002,2019-08-08 14:08:44,-2.0
543.0,-0.013122558999999999,-0.07354736,-0.10272217,-3.4580152,1.2137405,4.5038165999999995,2019-08-08 14:08:44,-2.0
544.0,-0.013244628999999999,-0.07354736,-0.10205078,-1.3435115,2.4198472,3.6412212999999998,2019-08-08 14:08:44,-2.0
545.0,-0.015380858999999998,-0.07208252,-0.103515625,0.32061067,3.038168,2.1755726,2019-08-08 14:08:44,-2.0
546.0,-0.013061523,-0.06774902,-0.10076904,3.7709922999999996,1.4351145,0.6870229,2019-08-08 14:08:44,-2.0
547.0,-0.012512207,-0.07067871,-0.09588623,0.045801528,1.0152671,1.4961832,2019-08-08 14:08:44,-2.0
548.0,-0.016845703,-0.06951904,-0.09625244,-0.8396947,1.2366412,2.6946564,2019-08-08 14:08:44,-2.0
549.0,-0.01361084,-0.066345215,-0.10198974599999999,-3.6412212999999998,3.2519082999999998,1.8320610000000002,2019-08-08 14:08:44,-2.0
550.0,-0.015380858999999998,-0.06939697,-0.10412598,0.73282444,2.5954200000000003,2.961832,2019-08-08 14:08:44,-2.0
551.0,-0.012512207,-0.06750488,-0.09722900400000001,0.27480915,2.6793892,2.7404580000000003,2019-08-08 14:08:44,-2.0
552.0,-0.017150878999999997,-0.06744385,-0.10290527,1.7099236,2.4885497,2.0839694,2019-08-08 14:08:44,-2.0
553.0,-0.018554688,-0.07525635,-0.09698486,4.8244276,1.4503816,1.5954198999999998,2019-08-08 14:08:44,-2.0
554.0,-0.014892578,-0.0703125,-0.10125732400000001,4.931298,1.1984733,2.8625952999999997,2019-08-08 14:08:44,-2.0
555.0,-0.013366699,-0.06439209,-0.09448242,4.3816795,0.015267176,1.0229008,2019-08-08 14:08:44,-2.0
556.0,-0.013427733999999998,-0.07385254,-0.09790039,0.7099236999999999,1.0305344,0.18320611,2019-08-08 14:08:44,-2.0
557.0,-0.022521972999999997,-0.06768799,-0.09881592,-0.90839696,3.8244274,2.0687022,2019-08-08 14:08:45,-2.0
558.0,-0.009521484,-0.06750488,-0.10198974599999999,-1.8778626,2.946565,2.519084,2019-08-08 14:08:45,-2.0
559.0,-0.009338379,-0.06781006,-0.09881592,-1.7404580000000003,1.9694656000000004,3.351145,2019-08-08 14:08:45,-2.0
560.0,-0.015686035,-0.07006836,-0.10021973,-0.8702290000000001,1.1755725000000001,3.4809160000000006,2019-08-08 14:08:45,-2.0
561.0,-0.013000488000000001,-0.07128906,-0.10113525400000001,0.2519084,1.7709924,3.5648854,2019-08-08 14:08:45,-2.0
562.0,-0.013000488000000001,-0.07061767599999999,-0.09851074,1.7404580000000003,1.610687,1.8244275,2019-08-08 14:08:45,-2.0
563.0,-0.013977051,-0.06542969,-0.10327148400000001,1.5114504,2.0076337,-0.259542,2019-08-08 14:08:45,-2.0
564.0,-0.024414062,-0.072143555,-0.1026001,0.40458015,1.2061069,1.3282443000000002,2019-08-08 14:08:45,-2.0
565.0,-0.016113281,-0.07446289,-0.09967041,-0.022900764,2.7557251,1.1450381,2019-08-08 14:08:45,-2.0
566.0,-0.011657715,-0.07464599599999999,-0.09649658,-1.259542,2.0687022,2.8625952999999997,2019-08-08 14:08:45,-2.0
567.0,-0.018554688,-0.07501221,-0.1015625,-3.7862597,2.4961832000000004,2.9847328999999996,2019-08-08 14:08:45,-2.0
568.0,-0.013122558999999999,-0.06982422,-0.09661865,-2.2442749,2.9312978,5.984732599999999,2019-08-08 14:08:45,-2.0
569.0,-0.009521484,-0.07287598,-0.10296631,-0.49618322,1.9312977,4.40458,2019-08-08 14:08:45,-2.0
570.0,-0.014709473,-0.06378174,-0.10223389,1.9236640999999999,-0.57251906,1.4580153,2019-08-08 14:08:45,-2.0
571.0,-0.01171875,-0.06713867,-0.10168457,2.7175572,2.1145039,3.1145039,2019-08-08 14:08:45,-2.0
572.0,-0.01184082,-0.06536865,-0.095214844,1.0610687,2.038168,0.48091602,2019-08-08 14:08:45,-2.0
573.0,-0.0138549805,-0.07189941400000001,-0.095581055,0.8854962,3.9160306000000005,1.9847328999999998,2019-08-08 14:08:45,-2.0
574.0,-0.021362305,-0.07391357400000001,-0.09985351599999999,-1.3664121999999999,1.8091604,0.97709924,2019-08-08 14:08:45,-2.0
575.0,-0.011047363000000001,-0.06750488,-0.10369873,-1.038168,4.6946564,2.3053436,2019-08-08 14:08:45,-2.0
576.0,-0.019104003999999997,-0.06756592,-0.09844971,-1.5114504,1.8320610000000002,4.183206,2019-08-08 14:08:45,-2.0
577.0,-0.024963378999999997,-0.0725708,-0.10144043,2.221374,1.3129771000000001,2.923664,2019-08-08 14:08:45,-2.0
578.0,-0.009765625,-0.06982422,-0.09790039,0.7099236999999999,1.3435115,1.7938931,2019-08-08 14:08:45,-2.0
579.0,-0.019165039,-0.06567383,-0.10272217,2.7480917000000002,0.9389313,2.70229,2019-08-08 14:08:45,-2.0
580.0,-0.010375977,-0.07269287,-0.09674072,2.7251909,0.45801526,0.99236643,2019-08-08 14:08:45,-2.0
581.0,-0.018798828,-0.07305908,-0.09710693,1.2748091000000001,1.7480916000000002,-0.49618322,2019-08-08 14:08:45,-2.0
582.0,-0.014404297,-0.06860351599999999,-0.095581055,-0.030534351,2.3816792999999996,0.60305345,2019-08-08 14:08:45,-2.0
583.0,-0.0154418945,-0.06713867,-0.10266113,-3.6564887,2.389313,1.5114504,2019-08-08 14:08:45,-2.0
584.0,-0.021484375,-0.06970215,-0.10058594,-1.4580153,3.3587787000000002,3.59542,2019-08-08 14:08:45,-2.0
585.0,-0.011230469,-0.06378174,-0.09918213,-1.2061069,3.221374,1.8167938999999997,2019-08-08 14:08:45,-2.0
586.0,-0.021118164,-0.064331055,-0.09680176,0.77862597,4.038168,3.1526718,2019-08-08 14:08:45,-2.0
587.0,-0.014953613000000001,-0.06640625,-0.1015625,1.9541985,1.3206106000000002,1.2671756,2019-08-08 14:08:45,-2.0
588.0,-0.017333984,-0.06604004,-0.09472656,2.1450381000000003,2.312977,2.0992367,2019-08-08 14:08:45,-2.0
589.0,-0.018127441,-0.06860351599999999,-0.09753418,3.4351146,2.2366412,1.4045801000000002,2019-08-08 14:08:45,-2.0
590.0,-0.018981934,-0.0725708,-0.09753418,-0.77862597,2.6488549999999997,1.4503816,2019-08-08 14:08:45,-2.0
591.0,-0.010131836,-0.07110596,-0.09826660000000001,-0.49618322,1.3053435,2.442748,2019-08-08 14:08:45,-2.0
592.0,-0.010864258,-0.06903076,-0.10113525400000001,-0.22900763,3.7862597,2.2442749,2019-08-08 14:08:45,-2.0
593.0,-0.016479492,-0.06689453,-0.09216308599999999,-1.8549619,0.5114504,3.5496182000000003,2019-08-08 14:08:46,-2.0
594.0,-0.015563965,-0.06933594,-0.09851074,-0.47328246,1.7786259999999998,3.9694656999999998,2019-08-08 14:08:46,-2.0
595.0,-0.01751709,-0.06768799,-0.10571289,2.312977,1.3969465,2.2595419999999997,2019-08-08 14:08:46,-2.0
596.0,-0.018310547,-0.06585693,-0.105285645,4.5496182,1.3282443000000002,3.0458016,2019-08-08 14:08:46,-2.0
597.0,-0.011230469,-0.07751465,-0.10308838,2.2595419999999997,-0.60305345,2.0,2019-08-08 14:08:46,-2.0
598.0,-0.01550293,-0.07299805,-0.09741211,0.32061067,2.1908397999999996,0.38931298,2019-08-08 14:08:46,-2.0
599.0,-0.01928711,-0.07714844,-0.09997558599999999,2.0687022,2.519084,1.5725191,2019-08-08 14:08:46,-2.0
600.0,-0.016418457,-0.06842041,-0.09173584,-1.1068702,4.7480917,1.5877863,2019-08-08 14:08:46,-2.0
601.0,-0.008911133,-0.07147217,-0.09460449,-2.8549618999999997,2.9160306,2.557252,2019-08-08 14:08:46,-2.0
602.0,-0.015380858999999998,-0.06628418,-0.09979248,0.061068702,4.0458016,2.7633588,2019-08-08 14:08:46,-2.0
603.0,-0.015014648,-0.07635498,-0.09509277,0.091603056,1.0610687,3.1374047000000003,2019-08-08 14:08:46,-2.0
604.0,-0.02130127,-0.06011963,-0.10180664,0.9847328000000002,1.70229,3.8931297999999996,2019-08-08 14:08:46,-2.0
605.0,-0.01977539,-0.07250976599999999,-0.09448242,5.7862597000000004,1.1755725000000001,1.1297709999999999,2019-08-08 14:08:46,-2.0
606.0,-0.01776123,-0.06842041,-0.095581055,1.7709924,1.2137405,1.4045801000000002,2019-08-08 14:08:46,-2.0
607.0,-0.01727295,-0.06958008,-0.09869385,-0.5496183000000001,3.0076337000000004,1.5496184,2019-08-08 14:08:46,-2.0
608.0,-0.015258788999999998,-0.06793213,-0.10107422,-0.8167939000000001,1.6259542,3.6412212999999998,2019-08-08 14:08:46,-2.0
609.0,-0.021606445,-0.068237305,-0.09820557,-3.9312977999999994,2.1603053,3.0076337000000004,2019-08-08 14:08:46,-2.0
610.0,-0.01953125,-0.06640625,-0.09875488,-0.58778626,2.3206108,2.7480917000000002,2019-08-08 14:08:46,-2.0
611.0,-0.017944336,-0.06469726599999999,-0.09533691400000001,1.2061069,4.6946564,2.2137403,2019-08-08 14:08:46,-2.0
612.0,-0.013122558999999999,-0.07183838,-0.10180664,1.4656489,2.8625952999999997,2.2824428,2019-08-08 14:08:46,-2.0
613.0,-0.013183594,-0.07086182,-0.10272217,3.778626,1.3664121999999999,1.5648855,2019-08-08 14:08:46,-2.0
614.0,-0.016540527,-0.06591797,-0.10247803,3.6412212999999998,1.6717557,0.48854962,2019-08-08 14:08:46,-2.0
615.0,-0.014892578,-0.06750488,-0.09765625,2.3282442000000003,2.8549618999999997,0.4427481,2019-08-08 14:08:46,-2.0
616.0,-0.014282227,-0.06976318,-0.10028076,0.099236645,2.312977,1.0534351,2019-08-08 14:08:46,-2.0
617.0,-0.012756348,-0.06878662,-0.09814453,1.1374046,0.9236641,1.2366412,2019-08-08 14:08:46,-2.0
618.0,-0.0072631836,-0.07299805,-0.095214844,-2.3282442000000003,3.7251909,1.7175573,2019-08-08 14:08:46,-2.0
619.0,-0.010131836,-0.07696533,-0.10015869,-0.7251908,2.70229,1.7099236,2019-08-08 14:08:46,-2.0
620.0,-0.01739502,-0.061340332000000004,-0.09985351599999999,1.6030535,1.4427481000000002,1.5648855,2019-08-08 14:08:46,-2.0
621.0,-0.014221191000000001,-0.07867432,-0.09692383,6.1221375,3.4351146,1.351145,2019-08-08 14:08:46,-2.0
622.0,-0.015380858999999998,-0.0725708,-0.09503174,-13.183207000000001,3.8854961,2.3740457999999998,2019-08-08 14:08:46,-2.0
623.0,-0.017456055,-0.06921387,-0.09661865,-18.137404999999998,6.519083999999999,1.3282443000000002,2019-08-08 14:08:46,-2.0
624.0,-0.016601562,-0.06286621,-0.11065674,-20.022902,-1.2366412,1.0152671,2019-08-08 14:08:46,-2.0
625.0,-0.008239746,-0.07202148400000001,-0.10064697,13.442748000000002,0.7557252,-5.053435299999999,2019-08-08 14:08:46,-2.0
626.0,-0.019165039,-0.08288574,-0.099121094,-5.366412,2.0992367,-2.5877862,2019-08-08 14:08:46,-2.0
627.0,-0.009887695,-0.068847656,-0.09350586,-33.83206,-0.34351146,-5.885496,2019-08-08 14:08:46,-2.0
628.0,-0.021240234,-0.06500244,-0.10015869,-32.351147,7.2671757,4.519083999999999,2019-08-08 14:08:46,-2.0
629.0,-0.0126953125,-0.053771973,-0.10870361,-11.969465,-0.045801528,1.9083970000000001,2019-08-08 14:08:46,-2.0
630.0,-0.011230469,-0.053771973,-0.10626221,-2.4961832000000004,5.10687,1.5496184,2019-08-08 14:08:47,-2.0
631.0,-0.016418457,-0.06378174,-0.10314941400000001,12.824428,2.0992367,2.4045799999999997,2019-08-08 14:08:47,-2.0
632.0,-0.019470215,-0.0703125,-0.09722900400000001,13.351145,0.24427481,3.8625953,2019-08-08 14:08:47,-2.0
633.0,-0.018066406,-0.06683349599999999,-0.096191406,2.3816792999999996,0.20610687,3.5801528,2019-08-08 14:08:47,-2.0
634.0,-0.015136719,-0.06530762,-0.10327148400000001,-7.664122,1.2671756,6.9465647,2019-08-08 14:08:47,-2.0
635.0,-0.01550293,-0.06097412,-0.09936523400000001,8.335877,3.778626,2.1068702,2019-08-08 14:08:47,-2.0
636.0,-0.016235351999999998,-0.06683349599999999,-0.10449219,11.793892999999999,2.7404580000000003,2.076336,2019-08-08 14:08:47,-2.0
637.0,-0.017456055,-0.08392334,-0.09429932,5.9923663000000005,3.0458016,-3.053435,2019-08-08 14:08:47,-2.0
638.0,-0.017028809,-0.05859375,-0.10986328,-11.931297,6.076336,-0.96183205,2019-08-08 14:08:47,-2.0
639.0,-0.018005371000000003,-0.066467285,-0.11193848,4.8396945,1.4656489,-1.7175573,2019-08-08 14:08:47,-2.0
640.0,-0.017028809,-0.07208252,-0.095703125,-24.862595000000002,6.4580154,-3.038168,2019-08-08 14:08:47,-2.0
641.0,-0.011657715,-0.053527832000000004,-0.10778808599999999,-10.885496,1.3358778999999998,-0.55725193,2019-08-08 14:08:47,-2.0
642.0,-0.012817383,-0.054626465,-0.11035156,1.3358778999999998,0.5954198,2.5496182000000003,2019-08-08 14:08:47,-2.0
643.0,-0.0014648438,-0.05480957,-0.10388183599999999,11.832061,2.6488549999999997,3.4351146,2019-08-08 14:08:47,-2.0
644.0,-0.015563965,-0.07098389,-0.09918213,19.648854999999998,-4.1374044,6.2977099999999995,2019-08-08 14:08:47,-2.0
645.0,-0.00982666,-0.05908203,-0.11260986,27.67939,-4.603053599999999,5.374046,2019-08-08 14:08:47,-2.0
646.0,-0.018737793,-0.05505371,-0.10626221,44.572517,0.9541985000000001,4.9770994,2019-08-08 14:08:47,-2.0
647.0,-0.005065918,-0.070129395,-0.09332275400000001,44.068703,-1.2061069,2.427481,2019-08-08 14:08:47,-2.0
648.0,-0.01586914,-0.08856201,-0.089660645,19.48855,-2.4122138,2.053435,2019-08-08 14:08:47,-2.0
649.0,-0.019958496000000003,-0.07373047,-0.08972168,-19.045801,2.7633588,4.9923663000000005,2019-08-08 14:08:47,-2.0
650.0,-0.016906738,-0.07232666,-0.09741211,-28.832062,3.534351,3.6641220000000003,2019-08-08 14:08:47,-2.0
651.0,-0.01586914,-0.068237305,-0.10614014,-22.053434,7.7557254,3.29771,2019-08-08 14:08:47,-2.0
652.0,-0.020324707,-0.07263183599999999,-0.10046387,-24.87023,6.671755999999999,3.6259542000000002,2019-08-08 14:08:47,-2.0
653.0,-0.017333984,-0.06506348,-0.10662842,-26.328245000000003,7.557252,4.0076336999999995,2019-08-08 14:08:47,-2.0
654.0,-0.008911133,-0.06976318,-0.09643555,-15.969465,3.8167940000000002,4.038168,2019-08-08 14:08:47,-2.0
655.0,-0.016906738,-0.0637207,-0.104003906,-28.145039,3.534351,5.442748,2019-08-08 14:08:47,-2.0
656.0,-0.009094238000000001,-0.05694580000000001,-0.10839844,-23.91603,4.8320612999999994,2.5877862,2019-08-08 14:08:47,-2.0
657.0,-0.0107421875,-0.06005859400000001,-0.11035156,-2.038168,2.946565,1.1984733,2019-08-08 14:08:47,-2.0
658.0,-0.014953613000000001,-0.057617188,-0.09869385,6.9770994,3.1908397999999996,2.7709923,2019-08-08 14:08:47,-2.0
659.0,-0.020507812,-0.06689453,-0.09326172,5.473282299999999,0.7557252,2.0,2019-08-08 14:08:47,-2.0
660.0,-0.010070800999999999,-0.05657959,-0.10314941400000001,0.03816794,4.908396700000001,3.4732822999999997,2019-08-08 14:08:47,-2.0
661.0,-0.017700195,-0.06225586,-0.10906982400000001,9.709924,4.5496182,2.4961832000000004,2019-08-08 14:08:47,-2.0
662.0,-0.017089844,-0.06896973,-0.10144043,18.832062,3.793893,-1.1526718,2019-08-08 14:08:47,-2.0
663.0,-0.018371582,-0.07183838,-0.09851074,-23.320610000000002,7.480916000000001,2.2595419999999997,2019-08-08 14:08:47,-2.0
664.0,-0.01776123,-0.048706055,-0.11444092,-12.053435,5.3511453,-1.6183206,2019-08-08 14:08:47,-2.0
665.0,-0.014587402,-0.06927489999999999,-0.10064697,17.244274,0.17557251,-5.473282299999999,2019-08-08 14:08:48,-2.0
666.0,-0.01776123,-0.07000732400000001,-0.10235596,2.2137403,2.9694657,-3.5038167999999996,2019-08-08 14:08:48,-2.0
667.0,-0.015136719,-0.06188965,-0.10192871,2.0229008,4.0992365,1.0992366000000002,2019-08-08 14:08:48,-2.0
668.0,-0.009338379,-0.06500244,-0.09918213,8.847328,1.5267175,3.3053436,2019-08-08 14:08:48,-2.0
669.0,-0.014221191000000001,-0.07342529,-0.10131836,-10.7786255,-1.9465648999999998,6.152672,2019-08-08 14:08:48,-2.0
670.0,-0.021118164,-0.04840088,-0.10516357400000001,-6.259542,1.2671756,7.1297708,2019-08-08 14:08:48,-2.0
671.0,-0.011047363000000001,-0.054138184000000006,-0.10888672,8.290076,3.0687022,5.671755999999999,2019-08-08 14:08:48,-2.0
672.0,-0.014831543,-0.059631348,-0.10266113,13.519084,2.0839694,3.1603053,2019-08-08 14:08:48,-2.0
673.0,-0.024841309,-0.07330322,-0.09875488,10.267176,4.335878,2.816794,2019-08-08 14:08:48,-2.0
674.0,-0.0211792,-0.06060791,-0.10308838,3.465649,4.1755724,1.1450381,2019-08-08 14:08:48,-2.0
675.0,-0.015197753999999999,-0.07409668,-0.09936523400000001,-1.0076336,4.2977099999999995,-0.78625953,2019-08-08 14:08:48,-2.0
676.0,-0.015625,-0.07092285,-0.11065674,-18.664122,3.6641220000000003,1.0229008,2019-08-08 14:08:48,-2.0
677.0,-0.007507324,-0.061401367000000005,-0.1071167,-12.435115,1.3435115,1.2137405,2019-08-08 14:08:48,-2.0
678.0,-0.0079956055,-0.061828613,-0.1038208,-6.709923700000001,5.3053436,2.557252,2019-08-08 14:08:48,-2.0
679.0,-0.014221191000000001,-0.05419922,-0.10717773400000001,12.816792999999999,1.6030535,2.0305343000000002,2019-08-08 14:08:48,-2.0
680.0,-0.015136719,-0.06860351599999999,-0.097473145,18.93893,-1.2824427,2.961832,2019-08-08 14:08:48,-2.0
681.0,-0.0211792,-0.06726074,-0.09918213,11.267176,-0.90839696,3.8778627,2019-08-08 14:08:48,-2.0
682.0,-0.012817383,-0.06488037,-0.10083008,8.053435,0.97709924,1.8015267,2019-08-08 14:08:48,-2.0
683.0,-0.011169433999999999,-0.06048584,-0.10070801,5.328244000000001,3.4274809999999998,1.6641221000000002,2019-08-08 14:08:48,-2.0
684.0,-0.012390136999999999,-0.07250976599999999,-0.101379395,-3.2900763,2.4961832000000004,1.8625953999999998,2019-08-08 14:08:48,-2.0
685.0,-0.014160156,-0.066589355,-0.10272217,-8.045800999999999,2.3206108,1.2442749,2019-08-08 14:08:48,-2.0
686.0,-0.01751709,-0.06829834,-0.10504150400000001,-11.083969,3.8854961,3.8854961,2019-08-08 14:08:48,-2.0
687.0,-0.015991211,-0.060791015999999996,-0.10668945,-13.587786999999999,3.7557251000000003,4.9923663000000005,2019-08-08 14:08:48,-2.0
688.0,-0.01727295,-0.060546875,-0.101379395,-2.5954200000000003,2.3969467,3.4809160000000006,2019-08-08 14:08:48,-2.0
689.0,-0.013244628999999999,-0.05987549,-0.101623535,-12.503817,1.5954198999999998,6.1221375,2019-08-08 14:08:48,-2.0
690.0,-0.015991211,-0.061950684000000006,-0.10717773400000001,-12.114504,0.66412216,3.091603,2019-08-08 14:08:48,-2.0
691.0,-0.014099121000000001,-0.06262207,-0.11010742,3.3129769999999996,3.4122138,3.1908397999999996,2019-08-08 14:08:48,-2.0
692.0,-0.011779785,-0.072143555,-0.101379395,-9.870229,1.7557251,0.740458,2019-08-08 14:08:48,-2.0
693.0,-0.013305663999999998,-0.0501709,-0.11254883,-19.809160000000002,4.4198474999999995,3.648855,2019-08-08 14:08:48,-2.0
694.0,-0.012817383,-0.057739257999999995,-0.09936523400000001,-7.0152674,4.6488547,3.3206108,2019-08-08 14:08:48,-2.0
695.0,-0.015014648,-0.058288574,-0.10510254,-7.40458,2.7251909,3.9770992,2019-08-08 14:08:48,-2.0
696.0,-0.01373291,-0.060668945,-0.10717773400000001,-3.0992367,4.7175574000000005,2.5877862,2019-08-08 14:08:48,-2.0
697.0,-0.011108398,-0.061950684000000006,-0.10467529,-11.541985,0.48854962,3.4122138,2019-08-08 14:08:48,-2.0
698.0,-0.015075683999999999,-0.054992676,-0.10595703,-7.5725193,1.9694656000000004,2.8015267999999995,2019-08-08 14:08:48,-2.0
699.0,-0.020385742,-0.058532715,-0.11029053,-14.435115,2.6030533,2.29771,2019-08-08 14:08:48,-2.0
700.0,-0.011779785,-0.053649902,-0.11010742,-7.3129773,4.221374,0.9160305000000001,2019-08-08 14:08:48,-2.0
701.0,-0.019226074,-0.051452637,-0.11297607400000001,-1.6717557,2.183206,1.3435115,2019-08-08 14:08:49,-2.0
702.0,-0.015258788999999998,-0.052978515999999996,-0.11059569999999999,2.3587787000000002,3.70229,1.8549619,2019-08-08 14:08:49,-2.0
703.0,-0.013000488000000001,-0.06335449,-0.10406494,2.832061,2.1068702,3.7328242999999994,2019-08-08 14:08:49,-2.0
704.0,-0.013977051,-0.055664062,-0.10571289,-4.3587785000000006,0.6259541999999999,3.7404580000000003,2019-08-08 14:08:49,-2.0
705.0,-0.012634277,-0.044067382999999995,-0.11053467,-7.0152674,1.3435115,3.2900763,2019-08-08 14:08:49,-2.0
706.0,-0.016418457,-0.047607422,-0.10986328,1.259542,2.6335877999999995,3.4427480000000004,2019-08-08 14:08:49,-2.0
707.0,-0.010864258,-0.06005859400000001,-0.1083374,1.9847328999999998,2.2442749,1.70229,2019-08-08 14:08:49,-2.0
708.0,-0.018981934,-0.056518555,-0.10345459,1.6717557,1.7633588,0.17557251,2019-08-08 14:08:49,-2.0
709.0,-0.015563965,-0.06579589999999999,-0.111206055,-8.129771,0.9847328000000002,-2.557252,2019-08-08 14:08:49,-2.0
710.0,-0.014831543,-0.05834961,-0.10772705,-23.312977,1.2748091000000001,-2.465649,2019-08-08 14:08:49,-2.0
711.0,-0.00970459,-0.05328369,-0.10845947,-34.778625,5.236641400000001,3.778626,2019-08-08 14:08:49,-2.0
712.0,-0.015319824,-0.051757812,-0.11328125,-24.458015,0.17557251,1.6259542,2019-08-08 14:08:49,-2.0
713.0,-0.020324707,-0.038330078,-0.12365723,-16.992367,1.1221374,1.9389313000000001,2019-08-08 14:08:49,-2.0
714.0,-0.0087890625,-0.04107666,-0.107421875,21.694656,2.0458016,0.71755725,2019-08-08 14:08:49,-2.0
715.0,-0.010864258,-0.042053223,-0.11364746,31.580153000000003,-2.5877862,1.5038168,2019-08-08 14:08:49,-2.0
716.0,-0.013549805,-0.057678223,-0.10546875,31.61832,-0.77862597,-0.36641222,2019-08-08 14:08:49,-2.0
717.0,-0.013122558999999999,-0.05712890599999999,-0.10626221,20.10687,-0.86259544,0.610687,2019-08-08 14:08:49,-2.0
718.0,-0.015625,-0.057495117000000005,-0.10778808599999999,6.557252,2.7328243,-0.19083970000000003,2019-08-08 14:08:49,-2.0
719.0,-0.010498047,-0.056396484000000004,-0.109313965,-0.31297709999999995,2.1145039,1.4274809,2019-08-08 14:08:49,-2.0
720.0,-0.011413574,-0.05493164,-0.1071167,5.6870227,4.076336,0.122137405,2019-08-08 14:08:49,-2.0
721.0,-0.015686035,-0.06842041,-0.10046387,-0.36641222,6.526717700000001,-0.41221374,2019-08-08 14:08:49,-2.0
722.0,-0.0115356445,-0.06762695,-0.09606933599999999,-6.9160304,1.8320610000000002,1.1832061000000003,2019-08-08 14:08:49,-2.0
723.0,-0.020935059,-0.062561035,-0.110839844,-18.519083,-1.7328244,-0.8015267,2019-08-08 14:08:49,-2.0
724.0,-0.021606445,-0.04699707,-0.10424805,-24.51145,4.145038,-2.3664122000000005,2019-08-08 14:08:49,-2.0
725.0,-0.005493164,-0.03857422,-0.111816406,-13.183207000000001,5.1221375,-1.1908396,2019-08-08 14:08:49,-2.0
726.0,-0.024108887000000002,-0.057006836,-0.104003906,-3.1984732000000005,3.7862597,-3.6335877999999995,2019-08-08 14:08:49,-2.0
727.0,-0.013183594,-0.052978515999999996,-0.10815430000000001,-15.0,4.374046,-1.2290076,2019-08-08 14:08:49,-2.0
728.0,-0.012756348,-0.046081542999999996,-0.11621094,-10.435115,5.473282299999999,-4.8320612999999994,2019-08-08 14:08:49,-2.0
729.0,-0.013427733999999998,-0.062072754,-0.10467529,-18.526718,5.5419846,0.27480915,2019-08-08 14:08:49,-2.0
730.0,-0.0072631836,-0.051635742000000005,-0.11596680000000001,-28.23664,6.412214,4.3816795,2019-08-08 14:08:49,-2.0
731.0,-0.010498047,-0.037902832000000004,-0.1149292,-9.946565,3.7557251000000003,3.1755726,2019-08-08 14:08:49,-2.0
732.0,-0.015686035,-0.039916992000000005,-0.10772705,2.2442749,1.8244275,2.2595419999999997,2019-08-08 14:08:49,-2.0
733.0,-0.0072631836,-0.047973632999999995,-0.10864258,7.1755724,0.46564886,2.6259542000000002,2019-08-08 14:08:49,-2.0
734.0,-0.016479492,-0.054260254,-0.11639404,6.2290077,1.6564884999999998,1.7099236,2019-08-08 14:08:49,-2.0
735.0,-0.010620117,-0.04522705,-0.11291504,13.183207000000001,3.5725190000000002,2.0992367,2019-08-08 14:08:49,-2.0
736.0,-0.012878418,-0.044067382999999995,-0.11376953,19.923664000000002,1.6259542,1.961832,2019-08-08 14:08:50,-2.0
737.0,-0.011230469,-0.054016113,-0.11206055,15.419847500000001,0.19847329,3.221374,2019-08-08 14:08:50,-2.0
738.0,-0.019348145,-0.06121826,-0.10461426,10.175572,3.1755726,4.7175574000000005,2019-08-08 14:08:50,-2.0
739.0,-0.0107421875,-0.047546387,-0.10980224599999999,4.0610685,2.9541984,2.4732822999999997,2019-08-08 14:08:50,-2.0
740.0,-0.017700195,-0.054260254,-0.11035156,0.7557252,1.6870228999999999,4.0839696000000005,2019-08-08 14:08:50,-2.0
741.0,-0.014892578,-0.054260254,-0.11108398400000001,-1.7251908999999999,0.65648854,0.99236643,2019-08-08 14:08:50,-2.0
742.0,-0.010192871,-0.04833984400000001,-0.10968017599999999,3.9389312000000007,2.946565,2.4961832000000004,2019-08-08 14:08:50,-2.0
743.0,-0.016723633,-0.053344727,-0.10546875,4.335878,3.2748091,0.31297709999999995,2019-08-08 14:08:50,-2.0
744.0,-0.0146484375,-0.054382324,-0.11102295,2.870229,3.923664,0.77862597,2019-08-08 14:08:50,-2.0
745.0,-0.009094238000000001,-0.052001953,-0.1038208,-0.36641222,3.4503817999999997,3.8396947,2019-08-08 14:08:50,-2.0
746.0,-0.012634277,-0.04901123,-0.10717773400000001,-0.79389316,2.9923662999999996,2.0839694,2019-08-08 14:08:50,-2.0
747.0,-0.013305663999999998,-0.052734375,-0.11706543,-1.9847328999999998,3.7251909,2.3740457999999998,2019-08-08 14:08:50,-2.0
748.0,-0.01184082,-0.050109863,-0.10998535,-0.07633588,1.648855,1.4503816,2019-08-08 14:08:50,-2.0
749.0,-0.017089844,-0.05328369,-0.10473633,1.6564884999999998,3.7404580000000003,2.29771,2019-08-08 14:08:50,-2.0
750.0,-0.020202637,-0.049987792999999996,-0.10186767599999999,0.90076333,2.1984732000000005,0.71755725,2019-08-08 14:08:50,-2.0
751.0,-0.01171875,-0.055664062,-0.10968017599999999,0.71755725,0.9541985000000001,1.6870228999999999,2019-08-08 14:08:50,-2.0
752.0,-0.017456055,-0.05706787,-0.10614014,-1.5267175,3.9007633000000004,2.8549618999999997,2019-08-08 14:08:50,-2.0
753.0,-0.010009766,-0.047607422,-0.10876465,-4.587786,1.2366412,3.6793892,2019-08-08 14:08:50,-2.0
754.0,-0.009216309,-0.04522705,-0.10925293,-6.190840000000001,1.3435115,1.5419847,2019-08-08 14:08:50,-2.0
755.0,-0.014709473,-0.043029785,-0.11541748,-1.6335878000000001,1.6870228999999999,1.9312977,2019-08-08 14:08:50,-2.0
756.0,-0.016601562,-0.05883789,-0.11242676,-2.206107,2.7175572,1.519084,2019-08-08 14:08:50,-2.0
757.0,-0.012084961000000002,-0.050048828,-0.115234375,-2.3740457999999998,1.5877863,1.8167938999999997,2019-08-08 14:08:50,-2.0
758.0,-0.011047363000000001,-0.052612305,-0.11029053,-3.29771,2.2824428,2.076336,2019-08-08 14:08:50,-2.0
759.0,-0.017211914,-0.05255127,-0.10980224599999999,-5.8320612999999994,3.3282442000000003,2.4885497,2019-08-08 14:08:50,-2.0
760.0,-0.0071411133,-0.043395996,-0.10607910000000002,-5.2137402999999996,2.5038167999999996,2.0076337,2019-08-08 14:08:50,-2.0
761.0,-0.014770508,-0.050720215,-0.11682129,-1.5419847,3.7709922999999996,2.465649,2019-08-08 14:08:50,-2.0
762.0,-0.010314941,-0.04663086,-0.11206055,-1.5877863,3.3969467000000004,2.6412212999999998,2019-08-08 14:08:50,-2.0
763.0,-0.012817383,-0.051086426,-0.11706543,2.610687,0.007633588,4.152672,2019-08-08 14:08:50,-2.0
764.0,-0.013183594,-0.05621338,-0.11102295,-4.1374044,4.587786,1.9770991999999998,2019-08-08 14:08:50,-2.0
765.0,-0.0071411133,-0.041503906,-0.10998535,-12.343511999999999,4.908396700000001,-0.15267175,2019-08-08 14:08:50,-2.0
766.0,-0.0138549805,-0.04498291,-0.10913086,-11.961832000000001,5.183206,-9.183207000000001,2019-08-08 14:08:50,-2.0
767.0,-0.012023926,-0.059692382999999995,-0.11175537,-21.687023,6.4885497,-4.4961834000000005,2019-08-08 14:08:50,-2.0
768.0,-0.006042480500000001,-0.056396484000000004,-0.11242676,-47.862595,3.8625953,-5.603053599999999,2019-08-08 14:08:50,-2.0
769.0,-0.015197753999999999,-0.029846191,-0.11596680000000001,-48.08397,2.5954200000000003,-2.2900763,2019-08-08 14:08:50,-2.0
770.0,-0.0107421875,-0.03363037,-0.11749267599999999,-32.900764,6.1603055,4.656488400000001,2019-08-08 14:08:50,-2.0
771.0,-0.008544922,-0.043395996,-0.11828613,-29.267176,6.5648856,-1.9389313000000001,2019-08-08 14:08:50,-2.0
772.0,-0.007446289,-0.026916503999999997,-0.1182251,-28.213741,3.0687022,1.4732825,2019-08-08 14:08:50,-2.0
773.0,-0.012634277,-0.026794434,-0.12072754,-4.3206105,1.389313,1.5038168,2019-08-08 14:08:51,-2.0
774.0,-0.0119018555,-0.031188965,-0.12109375,9.656488000000001,-0.89312977,1.2061069,2019-08-08 14:08:51,-2.0
775.0,-0.015991211,-0.050354004,-0.11529541,9.091603,0.48854962,3.6259542000000002,2019-08-08 14:08:51,-2.0
776.0,-0.012451172,-0.02911377,-0.11932373,-0.7480916,3.221374,5.190840000000001,2019-08-08 14:08:51,-2.0
777.0,-0.006958008000000001,-0.041137695,-0.11291504,11.404580000000001,4.854962,2.5267177000000003,2019-08-08 14:08:51,-2.0
778.0,-0.008178711,-0.041931152,-0.11743164,-5.221374,2.312977,2.7328243,2019-08-08 14:08:51,-2.0
779.0,-0.01751709,-0.044799805,-0.11541748,-4.7099237,0.053435113,3.4580152,2019-08-08 14:08:51,-2.0
780.0,-0.014160156,-0.026733398,-0.11547851599999999,-6.3511453,0.6259541999999999,3.1450381000000003,2019-08-08 14:08:51,-2.0
781.0,-0.017700195,-0.038391113,-0.11560058599999999,6.847328,4.2290077,1.1450381,2019-08-08 14:08:51,-2.0
782.0,-0.013366699,-0.038208007999999995,-0.115722656,3.0229008,0.7480916,3.053435,2019-08-08 14:08:51,-2.0
783.0,-0.010009766,-0.037719727,-0.1149292,4.076336,4.1374044,1.8549619,2019-08-08 14:08:51,-2.0
784.0,-0.0134887695,-0.040649414,-0.11456299,-0.099236645,1.1297709999999999,3.183206,2019-08-08 14:08:51,-2.0
785.0,-0.012207031,-0.037597656,-0.113220215,-6.5038165999999995,1.5572518999999998,5.59542,2019-08-08 14:08:51,-2.0
786.0,-0.009887695,-0.034362792999999996,-0.11999512,-7.3893127000000005,3.465649,4.6183205,2019-08-08 14:08:51,-2.0
787.0,-0.012756348,-0.037475586,-0.12182617,-1.6183206,2.3435113,5.015267400000001,2019-08-08 14:08:51,-2.0
788.0,-0.009094238000000001,-0.03527832,-0.11254883,-0.48091602,0.10687023,3.7862597,2019-08-08 14:08:51,-2.0
789.0,-0.012573242,-0.03363037,-0.11633301,5.603053599999999,1.2748091000000001,4.038168,2019-08-08 14:08:51,-2.0
790.0,-0.012512207,-0.03527832,-0.11621094,10.78626,0.96183205,2.6793892,2019-08-08 14:08:51,-2.0
791.0,-0.011352538999999998,-0.046447754,-0.11590576,1.3740458,1.4198473999999999,2.2824428,2019-08-08 14:08:51,-2.0
792.0,-0.014831543,-0.033447266,-0.121032715,-4.7175574000000005,2.8854961,3.7251909,2019-08-08 14:08:51,-2.0
793.0,-0.0045776367,-0.034484863,-0.11938476599999999,3.076336,2.70229,2.7633588,2019-08-08 14:08:51,-2.0
794.0,-0.012451172,-0.034362792999999996,-0.11462402,3.2595419999999997,2.6717557999999997,3.9541983999999997,2019-08-08 14:08:51,-2.0
795.0,-0.016235351999999998,-0.031311035,-0.123168945,8.015267,3.0076337000000004,2.221374,2019-08-08 14:08:51,-2.0
796.0,-0.012756348,-0.04498291,-0.11254883,12.007633,5.59542,-1.1374046,2019-08-08 14:08:51,-2.0
797.0,-0.0099487305,-0.045837402,-0.12036133,-2.6946564,3.6793892,-0.45801526,2019-08-08 14:08:51,-2.0
798.0,-0.010192871,-0.041931152,-0.11975098,-3.1374047000000003,1.8778626,1.2900764,2019-08-08 14:08:51,-2.0
799.0,-0.015991211,-0.049194336,-0.11004639,-4.3129773,3.29771,-0.45038167,2019-08-08 14:08:51,-2.0
800.0,-0.009765625,-0.035705566,-0.12121582,-16.152672,4.038168,-0.8167939000000001,2019-08-08 14:08:51,-2.0
801.0,-0.008666992,-0.023498535,-0.11743164,0.40458015,5.8625956,-1.0305344,2019-08-08 14:08:51,-2.0
802.0,-0.012023926,-0.044189453,-0.10974121,2.0,5.4351144,-0.71755725,2019-08-08 14:08:51,-2.0
803.0,-0.004333496,-0.03326416,-0.119140625,-5.3816795,2.7175572,1.3587786,2019-08-08 14:08:51,-2.0
804.0,-0.0126953125,-0.035949707000000004,-0.11370849599999999,4.8015265,1.6183206,-0.96183205,2019-08-08 14:08:51,-2.0
805.0,-0.0065307617,-0.042907715,-0.12084961,0.9694656999999999,-0.46564886,1.5419847,2019-08-08 14:08:51,-2.0
806.0,-0.009460449000000001,-0.036987305,-0.115356445,5.1603055,1.5419847,1.4885496,2019-08-08 14:08:51,-2.0
807.0,-0.0138549805,-0.04522705,-0.10736084,3.5419848,-0.091603056,-0.08396947,2019-08-08 14:08:52,-2.0
808.0,-0.009399414,-0.038146973,-0.11206055,0.22137405,-0.78625953,3.4809160000000006,2019-08-08 14:08:52,-2.0
809.0,-0.018920898000000002,-0.033325195,-0.12225342,9.877863,1.6259542,1.2366412,2019-08-08 14:08:52,-2.0
810.0,-0.01373291,-0.044067382999999995,-0.11138916,0.77862597,2.2824428,2.8091602000000004,2019-08-08 14:08:52,-2.0
811.0,-0.014587402,-0.04498291,-0.121032715,-0.58778626,-0.8854962,4.3816795,2019-08-08 14:08:52,-2.0
812.0,-0.012939453,-0.039794922,-0.11285400400000001,-4.6183205,-0.32061067,4.3053436,2019-08-08 14:08:52,-2.0
813.0,-0.0065307617,-0.02166748,-0.11932373,14.351145,2.4045799999999997,3.5877862,2019-08-08 14:08:52,-2.0
814.0,-0.015808105,-0.04547119,-0.11627197,19.366413,2.2366412,0.7633588000000001,2019-08-08 14:08:52,-2.0
815.0,-0.0126953125,-0.041992188,-0.11688232400000001,-11.160305000000001,1.2671756,6.9923663000000005,2019-08-08 14:08:52,-2.0
816.0,-0.009033203,-0.029724121000000003,-0.11932373,1.3358778999999998,4.053435299999999,5.0839696,2019-08-08 14:08:52,-2.0
817.0,-0.010803223,-0.030029297000000003,-0.11743164,14.312976999999998,5.473282299999999,3.4122138,2019-08-08 14:08:52,-2.0
818.0,-0.0034179688000000002,-0.03967285,-0.11053467,0.39694658,1.7938931,3.038168,2019-08-08 14:08:52,-2.0
819.0,-0.012817383,-0.044677734000000004,-0.11059569999999999,-1.6870228999999999,2.4885497,4.59542,2019-08-08 14:08:52,-2.0
820.0,-0.011779785,-0.051086426,-0.10968017599999999,-11.0992365,0.6793893,3.1908397999999996,2019-08-08 14:08:52,-2.0
821.0,-0.01751709,-0.038513184,-0.11499023400000001,-18.603054,0.7251908,2.2290077,2019-08-08 14:08:52,-2.0
822.0,-0.010986328,-0.02734375,-0.11505127,-1.9541985,3.3893129999999996,3.3816792999999996,2019-08-08 14:08:52,-2.0
823.0,-0.00793457,-0.034301757999999995,-0.11431885,5.3129773,0.7480916,3.870229,2019-08-08 14:08:52,-2.0
824.0,-0.009399414,-0.035461426000000004,-0.11456299,6.374046,-3.3129769999999996,5.2519083,2019-08-08 14:08:52,-2.0
825.0,-0.01776123,-0.03173828,-0.11547851599999999,10.328244,-1.648855,6.0305343,2019-08-08 14:08:52,-2.0
826.0,-0.014770508,-0.04663086,-0.117126465,1.4274809,2.793893,6.1221375,2019-08-08 14:08:52,-2.0
827.0,-0.01373291,-0.046813965,-0.12402344,0.5038168,1.2519083999999998,6.908396700000001,2019-08-08 14:08:52,-2.0
828.0,-0.011779785,-0.035705566,-0.11975098,7.557252,1.4503816,3.923664,2019-08-08 14:08:52,-2.0
829.0,-0.0138549805,-0.044799805,-0.111450195,2.1603053,0.86259544,3.70229,2019-08-08 14:08:52,-2.0
830.0,-0.016601562,-0.036193848,-0.11883545,-0.83206105,0.86259544,2.9923662999999996,2019-08-08 14:08:52,-2.0
831.0,-0.014770508,-0.043518065999999994,-0.12109375,-1.6641221000000002,1.4961832,1.610687,2019-08-08 14:08:52,-2.0
832.0,-0.008911133,-0.03149414,-0.115722656,-6.183206,2.5114503,2.5038167999999996,2019-08-08 14:08:52,-2.0
833.0,-0.007690429699999999,-0.03265381,-0.11389160000000002,-0.18320611,2.9770992,4.1755724,2019-08-08 14:08:52,-2.0
834.0,-0.0138549805,-0.036621094,-0.11560058599999999,2.870229,3.908397,4.557252,2019-08-08 14:08:52,-2.0
835.0,-0.0095825195,-0.03778076,-0.115722656,9.122137,2.221374,2.610687,2019-08-08 14:08:52,-2.0
836.0,-0.016357422,-0.051818848,-0.11462402,1.9465648999999998,1.4122137,2.7099237,2019-08-08 14:08:52,-2.0
837.0,-0.010681152,-0.041015625,-0.12335205,-6.8778625,2.8244274,0.10687023,2019-08-08 14:08:52,-2.0
838.0,-0.008239746,-0.03100586,-0.12054443,-2.4580152,3.2519082999999998,0.48854962,2019-08-08 14:08:52,-2.0
839.0,-0.0119018555,-0.03704834,-0.11157226599999999,2.4351146,3.129771,-0.52671754,2019-08-08 14:08:52,-2.0
840.0,-0.013305663999999998,-0.042663574,-0.11450195,10.854961,2.8244274,0.31297709999999995,2019-08-08 14:08:52,-2.0
841.0,-0.010131836,-0.04675293,-0.11773682,-0.90839696,2.4351146,-0.14503817,2019-08-08 14:08:52,-2.0
842.0,-0.015686035,-0.03845215,-0.119140625,-6.557252,1.6335878000000001,0.8244275,2019-08-08 14:08:52,-2.0
843.0,-0.018798828,-0.040527344,-0.11773682,-7.183206,1.6717557,-0.49618322,2019-08-08 14:08:52,-2.0
844.0,-0.007873535,-0.04498291,-0.11340332,-16.08397,2.091603,-0.33587787,2019-08-08 14:08:53,-2.0
845.0,-0.011291503999999999,-0.032592773,-0.11273193,-23.91603,3.6793892,-1.610687,2019-08-08 14:08:53,-2.0
846.0,-0.011474608999999998,-0.025390625,-0.12145996,-16.801527,2.0229008,-0.39694658,2019-08-08 14:08:53,-2.0
847.0,-0.0115356445,-0.03704834,-0.11596680000000001,-8.732824,3.8396947,-0.9312976999999999,2019-08-08 14:08:53,-2.0
848.0,-0.013793945,-0.032226562,-0.12451172,-6.7709923,3.832061,-3.1068702,2019-08-08 14:08:53,-2.0
849.0,-0.012207031,-0.02722168,-0.12261963,14.045801,0.6870229,2.908397,2019-08-08 14:08:53,-2.0
850.0,-0.01184082,-0.034423828,-0.11999512,27.824427000000004,-0.16030534,2.4351146,2019-08-08 14:08:53,-2.0
851.0,-0.017822266,-0.04559326,-0.11767578,33.793890000000005,3.5419848,1.2900764,2019-08-08 14:08:53,-2.0
852.0,-0.011230469,-0.055236815999999994,-0.10961914,3.6030532999999996,1.6335878000000001,0.22137405,2019-08-08 14:08:53,-2.0
853.0,-0.012084961000000002,-0.04815674,-0.11889648400000001,-20.465649,1.5038168,-0.4427481,2019-08-08 14:08:53,-2.0
854.0,-0.015136719,-0.02545166,-0.12243652,-33.206109999999995,4.366412,-1.6946564999999998,2019-08-08 14:08:53,-2.0
855.0,-0.013305663999999998,-0.036132812,-0.11798096,-19.038168,3.3053436,-3.908397,2019-08-08 14:08:53,-2.0
856.0,-0.013977051,-0.026916503999999997,-0.11932373,-10.320611,0.24427481,-6.5496182,2019-08-08 14:08:53,-2.0
857.0,-0.008300781,-0.034484863,-0.12109375,-5.7709923,3.7557251000000003,-1.1068702,2019-08-08 14:08:53,-2.0
858.0,0.0010375977,-0.027282715,-0.12005615,3.29771,4.038168,-6.908396700000001,2019-08-08 14:08:53,-2.0
859.0,-0.008056641,-0.035705566,-0.121032715,2.4351146,2.4503817999999997,0.129771,2019-08-08 14:08:53,-2.0
860.0,-0.015075683999999999,-0.04260254,-0.11096191400000001,3.29771,1.5343511,0.49618322,2019-08-08 14:08:53,-2.0
861.0,-0.010070800999999999,-0.040649414,-0.1161499,-5.2061067,1.2519083999999998,0.7251908,2019-08-08 14:08:53,-2.0
862.0,-0.013793945,-0.03741455,-0.11566162,-6.1603055,-0.6259541999999999,3.2442749,2019-08-08 14:08:53,-2.0
863.0,-0.014770508,-0.024414062,-0.11877441400000001,6.3587785000000006,0.15267175,0.71755725,2019-08-08 14:08:53,-2.0
864.0,-0.004272461,-0.039367676000000004,-0.11706543,25.954199,1.8091604,-0.8778626,2019-08-08 14:08:53,-2.0
865.0,-0.01159668,-0.040893555,-0.11022949,8.992367,2.8549618999999997,3.3740457999999998,2019-08-08 14:08:53,-2.0
866.0,-0.007629394499999999,-0.040405273,-0.11755371,7.969465700000001,1.4732825,5.809159999999999,2019-08-08 14:08:53,-2.0
867.0,-0.010620117,-0.028747559,-0.11193848,10.916031,0.22900763,2.0,2019-08-08 14:08:53,-2.0
868.0,-0.016967773000000002,-0.04748535,-0.111816406,6.221374,3.4198472,1.6946564999999998,2019-08-08 14:08:53,-2.0
869.0,-0.009643555,-0.04034424,-0.11260986,-8.137404,1.2137405,2.2595419999999997,2019-08-08 14:08:53,-2.0
870.0,-0.011047363000000001,-0.03466797,-0.11761474599999999,-7.969465700000001,1.1908396,1.648855,2019-08-08 14:08:53,-2.0
871.0,-0.015014648,-0.03894043,-0.11199951,-5.2519083,2.4885497,2.572519,2019-08-08 14:08:53,-2.0
872.0,-0.008056641,-0.020080566,-0.11273193,-1.3358778999999998,-0.5114504,3.8244274,2019-08-08 14:08:53,-2.0
873.0,-0.00970459,-0.0357666,-0.12030029,23.389313,4.053435299999999,2.557252,2019-08-08 14:08:53,-2.0
874.0,-0.010192871,-0.04321289,-0.11260986,20.213741,4.4885497,0.45801526,2019-08-08 14:08:53,-2.0
875.0,-0.009094238000000001,-0.04309082,-0.109436035,12.267176,2.519084,2.0687022,2019-08-08 14:08:53,-2.0
876.0,-0.014526367,-0.04284668,-0.11798096,3.5801528,2.1374047000000003,0.8015267,2019-08-08 14:08:53,-2.0
877.0,-0.008178711,-0.04815674,-0.1161499,-8.404580000000001,3.5725190000000002,-0.5801527,2019-08-08 14:08:53,-2.0
878.0,0.0026855469,-0.038513184,-0.12109375,-8.206107000000001,18.603054,-9.351144999999999,2019-08-08 14:08:53,-2.0
879.0,-0.016052246000000003,-0.04083252,-0.11621094,-7.10687,-0.45038167,-0.34351146,2019-08-08 14:08:54,-2.0
880.0,-0.0056152343999999995,-0.039978027,-0.11578369,-19.038168,2.9770992,1.038168,2019-08-08 14:08:54,-2.0
881.0,-0.008850098,-0.031677246,-0.119140625,3.7175572,1.8244275,2.9007633,2019-08-08 14:08:54,-2.0
882.0,-0.007751465,-0.04095459,-0.121032715,16.664122,1.6412214,4.40458,2019-08-08 14:08:54,-2.0
883.0,-0.013793945,-0.05303955,-0.11102295,-13.740458499999999,0.007633588,9.328244,2019-08-08 14:08:54,-2.0
884.0,-0.012023926,-0.025878906,-0.12420654,-0.57251906,-0.55725193,7.2442746,2019-08-08 14:08:54,-2.0
885.0,-0.01550293,-0.028015137000000002,-0.119262695,0.16030534,0.022900764,4.7251905999999995,2019-08-08 14:08:54,-2.0
886.0,-0.016479492,-0.05029297,-0.11126709,10.992367,4.091603299999999,5.0610685,2019-08-08 14:08:54,-2.0
887.0,-0.015625,-0.039001465,-0.11932373,-11.061069,1.4351145,4.4580154,2019-08-08 14:08:54,-2.0
888.0,-0.0064697266000000005,-0.046203613,-0.11383057,17.007633,-1.1908396,-0.90076333,2019-08-08 14:08:54,-2.0
889.0,-0.0071411133,-0.041320800000000005,-0.12591553,-2.7404580000000003,2.7404580000000003,0.46564886,2019-08-08 14:08:54,-2.0
890.0,-0.014343261999999999,-0.052612305,-0.12011719,-11.916031,1.1984733,2.793893,2019-08-08 14:08:54,-2.0
891.0,-0.014465332,-0.028015137000000002,-0.11462402,-24.832062,4.625954,7.6412214999999994,2019-08-08 14:08:54,-2.0
892.0,-0.010131836,-0.013977051,-0.12524414,15.251907999999998,1.259542,3.1374047000000003,2019-08-08 14:08:54,-2.0
893.0,-0.014221191000000001,-0.037475586,-0.12133789,27.854961,-0.79389316,15.709923999999999,2019-08-08 14:08:54,-2.0
894.0,-0.009033203,-0.04443359400000001,-0.11218262,22.053434,4.0305343,3.778626,2019-08-08 14:08:54,-2.0
895.0,-0.016418457,-0.047912598,-0.11212158,4.2061067,3.2900763,-1.2137405,2019-08-08 14:08:54,-2.0
896.0,-0.008911133,-0.04724121,-0.11779785,-3.5648854,1.0839695,1.3435115,2019-08-08 14:08:54,-2.0
897.0,-0.006042480500000001,-0.036621094,-0.118652344,-17.931297,2.129771,1.4732825,2019-08-08 14:08:54,-2.0
898.0,-0.015319824,-0.03125,-0.11804199,-22.198473,4.885496,2.2366412,2019-08-08 14:08:54,-2.0
899.0,-0.008117675999999999,-0.029785156,-0.110839844,-2.0992367,3.59542,3.0229008,2019-08-08 14:08:54,-2.0
900.0,-0.008728027,-0.029296875,-0.12170410000000002,10.358779,3.053435,3.1526718,2019-08-08 14:08:54,-2.0
901.0,-0.008483886999999999,-0.04345703,-0.1171875,13.030535,2.5267177000000003,3.40458,2019-08-08 14:08:54,-2.0
902.0,-0.008911133,-0.053771973,-0.11285400400000001,-5.8015265,1.4045801000000002,0.9694656999999999,2019-08-08 14:08:54,-2.0
903.0,-0.005859375,-0.044677734000000004,-0.11779785,-10.343511999999999,0.6793893,0.96183205,2019-08-08 14:08:54,-2.0
904.0,-0.01574707,-0.021728516,-0.12109375,-0.78625953,2.0610688,1.6946564999999998,2019-08-08 14:08:54,-2.0
905.0,-0.018066406,-0.044799805,-0.11663818,-0.20610687,2.3816792999999996,0.77862597,2019-08-08 14:08:54,-2.0
906.0,-0.007446289,-0.03564453,-0.11645508,2.2442749,3.4961832000000004,2.5801528,2019-08-08 14:08:54,-2.0
907.0,-0.016967773000000002,-0.04083252,-0.118652344,-7.816794,2.908397,2.442748,2019-08-08 14:08:54,-2.0
908.0,-0.012145996000000001,-0.03137207,-0.12457275400000001,-4.2977099999999995,3.0152671000000004,3.221374,2019-08-08 14:08:54,-2.0
909.0,-0.00982666,-0.034301757999999995,-0.115356445,3.8549618999999997,-0.36641222,0.9465648999999999,2019-08-08 14:08:54,-2.0
910.0,-0.0065307617,-0.036071777,-0.122924805,0.83206105,1.5954198999999998,2.442748,2019-08-08 14:08:54,-2.0
911.0,-0.017578125,-0.036743164,-0.11157226599999999,-2.778626,2.3206108,2.4122138,2019-08-08 14:08:54,-2.0
912.0,-0.008911133,-0.026916503999999997,-0.11987305,4.908396700000001,1.8396946,1.0610687,2019-08-08 14:08:54,-2.0
913.0,-0.014587402,-0.02911377,-0.11895752,6.0076336999999995,1.9236640999999999,2.9007633,2019-08-08 14:08:54,-2.0
914.0,-0.009155273,-0.033813477,-0.11761474599999999,6.1374044,2.1603053,3.465649,2019-08-08 14:08:55,-2.0
915.0,-0.010620117,-0.04095459,-0.12542725,5.671755999999999,1.0076336,2.946565,2019-08-08 14:08:55,-2.0
916.0,-0.009216309,-0.040771484,-0.11993408,4.152672,2.9847328999999996,1.2671756,2019-08-08 14:08:55,-2.0
917.0,-0.016235351999999998,-0.044128417999999996,-0.11950683599999999,-5.625954,0.6183206,2.0152671000000004,2019-08-08 14:08:55,-2.0
918.0,-0.010375977,-0.02947998,-0.11517334,0.73282444,3.1984732000000005,0.38167940000000006,2019-08-08 14:08:55,-2.0
919.0,-0.009155273,-0.030883789,-0.11596680000000001,1.2977100000000001,4.1297708,-0.64122134,2019-08-08 14:08:55,-2.0
920.0,-0.015625,-0.04046631,-0.113464355,-3.6717557999999997,3.4198472,-0.40458015,2019-08-08 14:08:55,-2.0
921.0,-0.015197753999999999,-0.032714844,-0.12194824,0.6259541999999999,4.038168,0.33587787,2019-08-08 14:08:55,-2.0
922.0,-0.010009766,-0.031799316,-0.11688232400000001,8.145039,3.0076337000000004,-0.77099234,2019-08-08 14:08:55,-2.0
923.0,-0.008850098,-0.04547119,-0.113220215,5.3511453,1.3206106000000002,1.8854961,2019-08-08 14:08:55,-2.0
924.0,-0.010009766,-0.03955078,-0.11389160000000002,-1.9923664,0.90839696,2.778626,2019-08-08 14:08:55,-2.0
925.0,-0.016906738,-0.037475586,-0.12200928,-6.526717700000001,1.259542,2.6030533,2019-08-08 14:08:55,-2.0
926.0,-0.012145996000000001,-0.03955078,-0.11877441400000001,-8.106871,2.1603053,2.70229,2019-08-08 14:08:55,-2.0
927.0,-0.011291503999999999,-0.03491211,-0.11212158,-2.167939,0.3740458,1.5496184,2019-08-08 14:08:55,-2.0
928.0,-0.014587402,-0.032470703,-0.12023926,-0.23664123,1.9389313000000001,2.0229008,2019-08-08 14:08:55,-2.0
929.0,-0.01159668,-0.038391113,-0.11383057,-2.0076337,4.7938933,3.076336,2019-08-08 14:08:55,-2.0
930.0,-0.0037231445,-0.03186035,-0.11791992,-0.5954198,0.5801527,2.9770992,2019-08-08 14:08:55,-2.0
931.0,-0.010864258,-0.04345703,-0.12341308599999999,-8.022901,3.4503817999999997,3.1374047000000003,2019-08-08 14:08:55,-2.0
932.0,-0.005737304699999999,-0.033569336,-0.11407471,7.3816795,4.3511453,-0.259542,2019-08-08 14:08:55,-2.0
933.0,-0.01550293,-0.04083252,-0.11657715,-7.4503818,0.7099236999999999,0.022900764,2019-08-08 14:08:55,-2.0
934.0,-0.013122558999999999,-0.026733398,-0.11315918,-8.656488000000001,1.5114504,0.7557252,2019-08-08 14:08:55,-2.0
935.0,-0.009765625,-0.029296875,-0.119628906,4.1755724,1.8473282,1.0,2019-08-08 14:08:55,-2.0
936.0,-0.014831543,-0.034240723,-0.115234375,6.091603299999999,5.366412,-1.0076336,2019-08-08 14:08:55,-2.0
937.0,-0.012573242,-0.03942871,-0.10974121,-2.3358779999999997,1.648855,2.465649,2019-08-08 14:08:55,-2.0
938.0,-0.015625,-0.03955078,-0.11639404,-10.435115,1.0610687,1.3129771000000001,2019-08-08 14:08:55,-2.0
939.0,-0.0075683593999999995,-0.026916503999999997,-0.11694336,-5.923664,0.13740458,4.0992365,2019-08-08 14:08:55,-2.0
940.0,-0.014404297,-0.03173828,-0.12011719,1.6870228999999999,1.3664121999999999,4.5801525000000005,2019-08-08 14:08:55,-2.0
941.0,-0.01586914,-0.029418945,-0.119628906,6.70229,2.8091602000000004,5.9694657,2019-08-08 14:08:55,-2.0
942.0,-0.014465332,-0.03741455,-0.11254883,9.580152499999999,1.4961832,3.0076337000000004,2019-08-08 14:08:55,-2.0
943.0,-0.015319824,-0.044006348,-0.11968994,2.6183207000000004,5.5648856,1.8320610000000002,2019-08-08 14:08:55,-2.0
944.0,-0.006042480500000001,-0.02734375,-0.11730957,-0.64122134,5.557252,1.5572518999999998,2019-08-08 14:08:55,-2.0
945.0,-0.004272461,-0.034362792999999996,-0.11688232400000001,-0.5038168,4.4503818,0.9389313,2019-08-08 14:08:55,-2.0
946.0,-0.0154418945,-0.049682617000000005,-0.12030029,-11.595419999999999,4.885496,1.4198473999999999,2019-08-08 14:08:55,-2.0
947.0,-0.008422852,-0.03552246,-0.11560058599999999,-9.335877,5.259542,2.534351,2019-08-08 14:08:55,-2.0
948.0,-0.0072631836,-0.03100586,-0.12341308599999999,-12.251908,3.4198472,3.1984732000000005,2019-08-08 14:08:55,-2.0
949.0,-0.01171875,-0.030395507999999998,-0.11376953,-4.8320612999999994,3.9847328999999996,2.3206108,2019-08-08 14:08:55,-2.0
950.0,-0.007385254,-0.030517577999999997,-0.11859131,-1.3358778999999998,4.7709923,0.34351146,2019-08-08 14:08:56,-2.0
951.0,-0.014526367,-0.040100098,-0.11328125,-7.4198475,2.4961832000000004,-0.83206105,2019-08-08 14:08:56,-2.0
952.0,-0.011047363000000001,-0.03527832,-0.12188721,-12.374044999999999,1.5038168,-2.4503817999999997,2019-08-08 14:08:56,-2.0
953.0,-0.014770508,-0.010864258,-0.1296997,-9.984733,-4.8015265,3.8244274,2019-08-08 14:08:56,-2.0
954.0,-0.013244628999999999,-0.029052734,-0.11370849599999999,21.229008,1.4427481000000002,4.2671757,2019-08-08 14:08:56,-2.0
955.0,-0.011657715,-0.028686523,-0.12371826,24.57252,1.7557251,8.122137,2019-08-08 14:08:56,-2.0
956.0,-0.014160156,-0.04156494,-0.11480713,29.19084,3.0458016,5.366412,2019-08-08 14:08:56,-2.0
957.0,-0.00970459,-0.044006348,-0.11114502,12.969465,1.7251908999999999,2.5877862,2019-08-08 14:08:56,-2.0
958.0,-0.007080078,-0.059509277,-0.10925293,-8.610686999999999,-0.97709924,0.8091603,2019-08-08 14:08:56,-2.0
959.0,-0.016113281,-0.041748047,-0.11932373,-39.648853,3.8931297999999996,1.1603054,2019-08-08 14:08:56,-2.0
960.0,-0.007019043000000001,-0.013244628999999999,-0.121154785,-0.17557251,-0.8778626,3.8244274,2019-08-08 14:08:56,-2.0
961.0,-0.012451172,-0.026733398,-0.11547851599999999,28.328245000000003,-4.2061067,1.6946564999999998,2019-08-08 14:08:56,-2.0
962.0,-0.017089844,-0.057495117000000005,-0.11694336,8.847328,4.236641400000001,-2.1908397999999996,2019-08-08 14:08:56,-2.0
963.0,-0.0079956055,-0.025695799999999998,-0.11602783,4.961832,1.6259542,0.9541985000000001,2019-08-08 14:08:56,-2.0
964.0,-0.0154418945,-0.026733398,-0.12359619,28.664121999999995,2.9389312000000003,3.59542,2019-08-08 14:08:56,-2.0
965.0,-0.015258788999999998,-0.03942871,-0.11627197,25.091601999999998,1.0534351,6.1603055,2019-08-08 14:08:56,-2.0
966.0,-0.010925293,-0.04815674,-0.10864258,23.824427,0.122137405,3.7251909,2019-08-08 14:08:56,-2.0
967.0,-0.0178833,-0.047424315999999994,-0.11175537,-3.129771,1.9541985,2.312977,2019-08-08 14:08:56,-2.0
968.0,-0.015808105,-0.04724121,-0.11633301,-14.358779,1.5725191,4.343511599999999,2019-08-08 14:08:56,-2.0
969.0,-0.0115356445,-0.03527832,-0.12145996,-7.5725193,0.71755725,5.076336,2019-08-08 14:08:56,-2.0
970.0,-0.012268066000000001,-0.046569824,-0.12121582,-9.885496,2.2671757,5.5801525000000005,2019-08-08 14:08:56,-2.0
971.0,-0.014038086000000002,-0.029785156,-0.12506104,14.183207000000001,0.27480915,3.8473281999999998,2019-08-08 14:08:56,-2.0
972.0,-0.016235351999999998,-0.045288086,-0.115112305,5.816794,1.1984733,2.3664122000000005,2019-08-08 14:08:56,-2.0
973.0,-0.017456055,-0.03765869,-0.11193848,0.6946565,2.5496182000000003,3.7709922999999996,2019-08-08 14:08:56,-2.0
974.0,-0.012023926,-0.03326416,-0.11791992,2.9007633,2.2824428,4.5419846,2019-08-08 14:08:56,-2.0
975.0,-0.006652831999999999,-0.022338867000000002,-0.119262695,19.137404999999998,3.206107,8.389313000000001,2019-08-08 14:08:56,-2.0
976.0,-0.01776123,-0.049560547,-0.113464355,33.53435,1.5496184,-1.7404580000000003,2019-08-08 14:08:56,-2.0
977.0,-0.009643555,-0.042297363,-0.11126709,6.152672,2.8015267999999995,0.67175573,2019-08-08 14:08:56,-2.0
978.0,-0.009521484,-0.04058838,-0.11444092,12.129771,3.3969467000000004,-1.8931297999999999,2019-08-08 14:08:56,-2.0
979.0,-0.014709473,-0.053588867000000005,-0.11663818,14.328244,1.6793894,-0.740458,2019-08-08 14:08:56,-2.0
980.0,-0.011962891000000002,-0.057617188,-0.10882568,-5.5496182,3.961832,1.3282443000000002,2019-08-08 14:08:56,-2.0
981.0,-0.012512207,-0.03302002,-0.11444092,-10.633588,3.6335877999999995,0.27480915,2019-08-08 14:08:56,-2.0
982.0,-0.009094238000000001,-0.04284668,-0.11791992,-6.1603055,4.0305343,1.8091604,2019-08-08 14:08:56,-2.0
983.0,-0.0126953125,-0.04345703,-0.111328125,1.5801526000000001,2.0610688,0.22137405,2019-08-08 14:08:56,-2.0
984.0,-0.012512207,-0.045166015999999996,-0.117126465,-6.7862597000000004,1.5648855,1.3969465,2019-08-08 14:08:56,-2.0
985.0,-0.009887695,-0.04510498,-0.11682129,-10.916031,5.5725193,2.2824428,2019-08-08 14:08:56,-2.0
986.0,-0.017028809,-0.04248047,-0.11260986,-7.259542,-1.2366412,1.389313,2019-08-08 14:08:56,-2.0
987.0,-0.011779785,-0.048095703,-0.10650635,14.580152499999999,-4.0610685,3.6183207000000004,2019-08-08 14:08:57,-2.0
988.0,-0.018188476999999998,-0.03717041,-0.13049316,-18.801527,0.9160305000000001,4.4198474999999995,2019-08-08 14:08:57,-2.0
989.0,-0.0045166016,-0.04443359400000001,-0.117126465,24.770992,6.015267400000001,0.6870229,2019-08-08 14:08:57,-2.0
990.0,-0.010925293,-0.036804199999999995,-0.11682129,24.770992,0.8778626,2.8778627,2019-08-08 14:08:57,-2.0
991.0,-0.013000488000000001,-0.055786132999999995,-0.11401367,19.732824,0.40458015,1.6412214,2019-08-08 14:08:57,-2.0
992.0,-0.010925293,-0.046142578,-0.11187744,0.9847328000000002,1.610687,2.9160306,2019-08-08 14:08:57,-2.0
993.0,-0.012084961000000002,-0.050231934000000006,-0.101501465,-1.4503816,3.2290077,1.9312977,2019-08-08 14:08:57,-2.0
994.0,-0.010131836,-0.04345703,-0.11053467,-5.5496182,1.0076336,5.557252,2019-08-08 14:08:57,-2.0
995.0,-0.007507324,-0.039916992000000005,-0.11932373,11.076336,1.7862595000000001,3.793893,2019-08-08 14:08:57,-2.0
996.0,-0.015625,-0.04852295,-0.10870361,16.442749,3.40458,2.0076337,2019-08-08 14:08:57,-2.0
997.0,-0.0126953125,-0.04437256,-0.10998535,0.55725193,0.6946565,4.5725193,2019-08-08 14:08:57,-2.0
998.0,-0.014282227,-0.0435791,-0.11401367,-0.4274809,1.7175573,1.6259542,2019-08-08 14:08:57,-2.0
999.0,-0.01953125,-0.048583984000000004,-0.11199951,-2.3206108,1.4427481000000002,1.0763359,2019-08-08 14:08:57,-2.0
1000.0,-0.010009766,-0.049865723,-0.11499023400000001,-5.816794,2.8015267999999995,-0.5801527,2019-08-08 14:08:57,-2.0
1001.0,-0.016906738,-0.06072998,-0.11352539,-20.587785999999998,4.328244000000001,-4.8778625,2019-08-08 14:08:57,-2.0
1002.0,-0.009887695,-0.057434082000000004,-0.10498047,-42.21374,6.2290077,-6.587786,2019-08-08 14:08:57,-2.0
1003.0,-0.012145996000000001,-0.03857422,-0.11413574,-51.129771999999996,7.793893300000001,-8.770992,2019-08-08 14:08:57,-2.0
1004.0,-0.010498047,-0.0390625,-0.12188721,-41.84733,7.7328243,-6.6870227,2019-08-08 14:08:57,-2.0
1005.0,-0.017028809,-0.033325195,-0.11651611,-53.572517000000005,6.1679387000000006,-1.961832,2019-08-08 14:08:57,-2.0
1006.0,-0.013793945,-0.0234375,-0.12792969,-31.824427000000004,6.1755724,-1.0534351,2019-08-08 14:08:57,-2.0
1007.0,-0.004333496,-0.032104492000000005,-0.113220215,-27.076335999999998,7.206106699999999,-3.5267177000000003,2019-08-08 14:08:57,-2.0
1008.0,-0.0025024414000000004,-0.027404785,-0.1116333,-37.320609999999995,3.6030532999999996,-2.70229,2019-08-08 14:08:57,-2.0
1009.0,-0.016479492,-0.031066895,-0.11395264,-38.396946,1.0610687,-5.1984735,2019-08-08 14:08:57,-2.0
1010.0,-0.018127441,-0.023742676,-0.12268066400000001,-31.419846999999997,4.0992365,-6.9465647,2019-08-08 14:08:57,-2.0
1011.0,0.0022583008,-0.02154541,-0.11883545,-23.709923,5.0,-3.7328242999999994,2019-08-08 14:08:57,-2.0
1012.0,-0.006225586,-0.026000977,-0.11981201,-23.580153,2.7862597,-2.5419848,2019-08-08 14:08:57,-2.0
1013.0,-0.008605957,-0.013122558999999999,-0.12164307,-12.671756,2.9923662999999996,-1.4045801000000002,2019-08-08 14:08:57,-2.0
1014.0,-0.004272461,-0.016296387,-0.12176514,-4.3893127,3.038168,2.6641220000000003,2019-08-08 14:08:57,-2.0
1015.0,-0.006958008000000001,-0.022399902000000003,-0.12048339999999998,-2.8931298,2.8015267999999995,1.7633588,2019-08-08 14:08:57,-2.0
1016.0,-0.010620117,-0.026428222999999997,-0.12268066400000001,-15.2213745,2.0,-0.5648854999999999,2019-08-08 14:08:57,-2.0
1017.0,-0.00982666,-0.016418457,-0.11419678,-13.206107000000001,3.1603053,0.099236645,2019-08-08 14:08:57,-2.0
1018.0,-0.0018920898,-0.013305663999999998,-0.11975098,-6.1221375,4.2748094000000005,-0.030534351,2019-08-08 14:08:57,-2.0
1019.0,-0.009338379,-0.014221191000000001,-0.11999512,-5.3129773,0.64122134,0.3740458,2019-08-08 14:08:57,-2.0
1020.0,-0.010681152,-0.017211914,-0.1262207,2.6564887,-1.1221374,0.58778626,2019-08-08 14:08:57,-2.0
1021.0,-0.0049438477,-0.004028320300000001,-0.11749267599999999,17.206106,-8.335877,4.6793895,2019-08-08 14:08:58,-2.0
1022.0,-0.010620117,-0.026000977,-0.11553955,32.809162,-4.4274807,8.374044999999999,2019-08-08 14:08:58,-2.0
1023.0,-0.0078125,-0.029052734,-0.117126465,6.335878,-5.40458,11.297709,2019-08-08 14:08:58,-2.0
1024.0,-0.007873535,-0.010925293,-0.11730957,1.8015267,-8.694656,8.541985,2019-08-08 14:08:58,-2.0
1025.0,-0.013549805,-0.020507812,-0.12402344,2.687023,0.45038167,7.793893300000001,2019-08-08 14:08:58,-2.0
1026.0,-0.014953613000000001,-0.018371582,-0.13342285,6.068702,3.4351146,0.16030534,2019-08-08 14:08:58,-2.0
1027.0,-0.0034179688000000002,-0.009521484,-0.10827637,8.770992,7.10687,-2.1374047000000003,2019-08-08 14:08:58,-2.0
1028.0,-0.012268066000000001,-0.018554688,-0.12615967,37.82443,4.809159999999999,1.4427481000000002,2019-08-08 14:08:58,-2.0
1029.0,-0.014465332,-0.045837402,-0.11975098,33.14504,6.6488547,-2.3435113,2019-08-08 14:08:58,-2.0
1030.0,-0.011230469,-0.051757812,-0.111450195,-19.351145000000002,3.3893129999999996,1.5648855,2019-08-08 14:08:58,-2.0
1031.0,-0.008300781,-0.0134887695,-0.119628906,-25.38168,-2.1145039,-0.19083970000000003,2019-08-08 14:08:58,-2.0
1032.0,-0.012329102,-0.012390136999999999,-0.123168945,6.7328243,0.8396947,0.18320611,2019-08-08 14:08:58,-2.0
1033.0,-0.014038086000000002,-0.018249512,-0.1293335,19.244274,0.7480916,0.86259544,2019-08-08 14:08:58,-2.0
1034.0,-0.014953613000000001,-0.032836914,-0.11657715,19.603054,4.0839696000000005,-0.45801526,2019-08-08 14:08:58,-2.0
1035.0,-0.00793457,-0.031311035,-0.11987305,6.923664,3.5114503,-0.43511450000000007,2019-08-08 14:08:58,-2.0
1036.0,-0.00982666,-0.03845215,-0.12005615,-10.725191,4.1755724,1.8854961,2019-08-08 14:08:58,-2.0
1037.0,-0.0095825195,-0.026306152000000003,-0.11596680000000001,-14.419847500000001,3.1221373,2.3282442000000003,2019-08-08 14:08:58,-2.0
1038.0,-0.009399414,-0.022705077999999997,-0.11950683599999999,-11.923664,3.6641220000000003,3.1984732000000005,2019-08-08 14:08:58,-2.0
1039.0,-0.015258788999999998,-0.023742676,-0.12536621,-8.198473,3.0076337000000004,1.9541985,2019-08-08 14:08:58,-2.0
1040.0,-0.006713866999999999,-0.022216797000000003,-0.11840819999999999,-13.160305,3.3893129999999996,1.9083970000000001,2019-08-08 14:08:58,-2.0
1041.0,-0.006958008000000001,-0.025939941,-0.11676025400000001,-11.083969,4.1679387000000006,-1.2977100000000001,2019-08-08 14:08:58,-2.0
1042.0,-0.008239746,-0.020690918,-0.122558594,-6.259542,4.190840000000001,1.3282443000000002,2019-08-08 14:08:58,-2.0
1043.0,-0.013977051,-0.021118164,-0.11578369,-11.694656,5.854962,-1.1984733,2019-08-08 14:08:58,-2.0
1044.0,-0.007446289,-0.018737793,-0.122558594,-7.557252,5.1221375,0.26717559,2019-08-08 14:08:58,-2.0
1045.0,-0.013183594,-0.01727295,-0.119018555,0.23664123,4.0152674,2.206107,2019-08-08 14:08:58,-2.0
1046.0,-0.011169433999999999,-0.030944824,-0.11883545,-4.1374044,0.58778626,3.1221373,2019-08-08 14:08:58,-2.0
1047.0,-0.009338379,-0.024414062,-0.113464355,-3.778626,2.8473282,1.6564884999999998,2019-08-08 14:08:58,-2.0
1048.0,-0.015319824,-0.024169922000000003,-0.12066650400000001,-6.0610685,1.9083970000000001,2.9160306,2019-08-08 14:08:58,-2.0
1049.0,-0.009155273,-0.015197753999999999,-0.11657715,-0.67175573,1.0763359,1.5877863,2019-08-08 14:08:58,-2.0
1050.0,-0.008728027,-0.01727295,-0.11877441400000001,2.519084,3.4732822999999997,0.46564886,2019-08-08 14:08:58,-2.0
1051.0,-0.00793457,-0.027893066,-0.12030029,3.7557251000000003,4.59542,2.0992367,2019-08-08 14:08:58,-2.0
1052.0,-0.011291503999999999,-0.018676758,-0.1227417,-0.091603056,4.4885497,0.9465648999999999,2019-08-08 14:08:58,-2.0
1053.0,-0.012084961000000002,-0.022583007999999998,-0.12731934,0.53435117,3.5877862,0.65648854,2019-08-08 14:08:58,-2.0
1054.0,-0.0037231445,-0.016113281,-0.12585449,-4.4656487,2.3969467,3.0458016,2019-08-08 14:08:58,-2.0
1055.0,-0.0064086914,-0.017211914,-0.12237549,-1.4427481000000002,1.0229008,3.5419848,2019-08-08 14:08:58,-2.0
1056.0,-0.007873535,-0.015808105,-0.11303711,-2.4503817999999997,1.1068702,2.8854961,2019-08-08 14:08:58,-2.0
1057.0,-0.005981445300000001,-0.016296387,-0.1194458,-0.35114503,1.519084,1.610687,2019-08-08 14:08:58,-2.0
1058.0,-0.00970459,-0.015319824,-0.12231445,3.9389312000000007,2.0229008,0.35114503,2019-08-08 14:08:59,-2.0
1059.0,-0.014404297,-0.023498535,-0.12188721,6.1297708,7.763358599999999,0.5114504,2019-08-08 14:08:59,-2.0
1060.0,-0.0040893555,-0.021057128999999997,-0.12286377,-2.870229,9.977099,2.1374047000000003,2019-08-08 14:08:59,-2.0
1061.0,-0.0010986328,-0.0178833,-0.12213135,-4.8702292,3.5877862,2.4351146,2019-08-08 14:08:59,-2.0
1062.0,-0.0064086914,-0.016235351999999998,-0.12213135,3.8091602,2.8549618999999997,1.9389313000000001,2019-08-08 14:08:59,-2.0
1063.0,-0.013000488000000001,-0.027770996000000003,-0.1182251,7.4732823,0.55725193,0.6259541999999999,2019-08-08 14:08:59,-2.0
1064.0,-0.00793457,-0.023254395,-0.12261963,3.1908397999999996,2.129771,3.6183207000000004,2019-08-08 14:08:59,-2.0
1065.0,-0.008483886999999999,-0.016906738,-0.12280273400000001,-0.89312977,0.90076333,2.2671757,2019-08-08 14:08:59,-2.0
1066.0,-0.014221191000000001,-0.016235351999999998,-0.11975098,4.931298,2.076336,1.6641221000000002,2019-08-08 14:08:59,-2.0
1067.0,-0.005432129,-0.019897461,-0.12121582,8.595419999999999,1.7328244,1.0687023,2019-08-08 14:08:59,-2.0
1068.0,-0.01171875,-0.030883789,-0.12200928,8.114504,0.17557251,2.0076337,2019-08-08 14:08:59,-2.0
1069.0,-0.0028076171999999997,-0.020935059,-0.11694336,6.664122,-1.9312977,2.427481,2019-08-08 14:08:59,-2.0
1070.0,-0.009521484,-0.015380858999999998,-0.11834717,12.114504,-1.6335878000000001,3.6412212999999998,2019-08-08 14:08:59,-2.0
1071.0,-0.014038086000000002,-0.015380858999999998,-0.12145996,18.847328,-0.9389313,4.9694657,2019-08-08 14:08:59,-2.0
1072.0,-0.0052490233999999995,-0.022888184,-0.12579346,54.793890000000005,0.19083970000000003,4.625954,2019-08-08 14:08:59,-2.0
1073.0,-0.01184082,-0.006042480500000001,-0.12475586,53.450382,-7.038167999999999,14.961832000000001,2019-08-08 14:08:59,-2.0
1074.0,-0.0115356445,-0.010681152,-0.12554932,82.20611,1.038168,20.068703,2019-08-08 14:08:59,-2.0
1075.0,-0.008422852,-0.03643799,-0.11767578,92.80915999999999,5.1755724,27.389313,2019-08-08 14:08:59,-2.0
1076.0,-0.008422852,-0.051086426,-0.113098145,74.175575,3.1908397999999996,25.908398000000002,2019-08-08 14:08:59,-2.0
