measurement,Acc_X,Acc_Y,Acc_Z,Gyr_X,Gyr_Y,Gyr_Z,Label
0,-0.011352539,0.09259033,-0.06329346,-14.702291,9.763359,-5.5419846,10
1,-0.011779785,0.09112549,-0.057495117,-17.648855,11.557252,-4.778626,10
2,-0.01159668,0.089416504,-0.05609131,-26.70229,12.748092,-7.1755724,10
3,-0.009216309,0.092285156,-0.057861328,-26.908398,11.946565,-5.221374,10
4,-0.01171875,0.09246826,-0.055908203,-30.847328,14.541985,-9.572519,10
5,-0.0095825195,0.09448242,-0.05444336,-41.748093,14.503817,-9.832061,10
6,-0.0063476562,0.097473145,-0.070495605,-49.89313,18.473282,-4.778626,10
7,-0.0095825195,0.09729004,-0.048461914,-51.83206,15.511451,-10.839695,10
8,-0.007080078,0.0982666,-0.046142578,-54.16794,16.67939,-10.137404,10
9,-0.008666992,0.10247803,-0.043884277,-65.48855,18.786259,-9.709924,10
10,-0.0078125,0.10284424,-0.04046631,-77.824425,19.633587,-11.671756,10
11,-0.00793457,0.107299805,-0.03656006,-84.07633,19.793894,-9.7404585,10
12,-0.0063476562,0.10986328,-0.032714844,-84.824425,19.167938,-10.709924,10
13,-0.009094238,0.10760498,-0.02960205,-88.0458,24.656488,-12.229008,10
14,-0.008972168,0.11224365,-0.014953613,-102.63359,26.786259,-15.007633,10
15,-0.0053100586,0.11608887,-0.010131836,-101.67175,26.610687,-12.152672,10
16,-0.0076904297,0.11437988,-0.010559082,-91.67175,28.473282,-13.534351,10
17,-0.006225586,0.116760254,0.003540039,-99.091606,26.374046,-20.885496,10
18,-0.0078125,0.12683105,0.005493164,-119.03817,29.175573,-19.496183,10
19,-0.012512207,0.12609863,0.012512207,-131.93893,32.671757,-21.641222,10
20,-0.007385254,0.12487793,0.017333984,-97.12214,24.12977,-15.358779,10
21,-0.010375977,0.13116455,0.024597168,-52.34351,14.641221,-15.137404,10
22,-0.012390137,0.12445068,0.025512695,-35.633587,13.847328,-14.854961,10
23,-0.017700195,0.117004395,0.033203125,-55.633587,16.580153,-11.175572,10
24,-0.011657715,0.1307373,0.047851562,-41.664124,15.641221,-12.389313,10
25,-0.010925293,0.12982178,0.033447266,-9.664123,10.694656,-14.687023,10
26,-0.0020141602,0.12145996,0.034057617,16.007633,1.9847329,0.4427481,10
27,-0.009277344,0.10412598,0.03466797,-10.7786255,2.038168,-1.8167939,10
28,-0.014587402,0.11444092,0.04333496,-73.541985,15.4198475,-11.687023,10
29,-0.008666992,0.11956787,0.038085938,-91.71756,16.435114,-20.664122,10
30,-0.013000488,0.124816895,0.036499023,-65.32061,10.061069,-12.946565,10
31,-0.011352539,0.111083984,0.06951904,-26.267176,3.335878,-15.694656,10
32,-0.0018310547,0.109558105,0.05279541,-39.412212,9.389313,0.8778626,10
33,-0.010681152,0.10467529,0.056396484,-89.541985,13.022901,-16.694656,10
34,-0.015686035,0.10650635,0.056762695,-137.71756,21.206106,-27.389313,10
35,-0.004211426,0.14434814,0.07470703,-64.41222,1.3358779,-2.221374,10
36,-0.021240234,0.09460449,0.08532715,3.6793892,-10.328244,-14.496183,10
37,-0.016296387,0.10241699,0.08544922,-40.74046,3.351145,10.870229,10
38,-0.010559082,0.108947754,0.08178711,-57.190838,6.6793895,0.48091602,10
39,-0.0134887695,0.113464355,0.0826416,-55.580154,11.38168,-10.709924,10
40,-0.008239746,0.11590576,0.079956055,-34.694656,9.305344,-3.648855,10
41,-0.014160156,0.11437988,0.08526611,-3.1526718,-2.7328243,-8.603053,10
42,-0.015136719,0.10736084,0.08288574,25.625954,-8.717557,1.7480916,10
43,-0.017456055,0.110961914,0.07598877,15.770992,-7.2290077,-0.6259542,10
44,-0.011413574,0.109375,0.073913574,5.9770994,-5.9083967,-2.3740458,10
45,-0.00970459,0.105895996,0.07556152,2.0992367,-7.5343513,-4.2900763,10
46,-0.011779785,0.10662842,0.078308105,1.9236641,-13.282443,-5.961832,10
47,-0.011047363,0.11138916,0.074645996,-6.7862597,-10.030535,-7.6106873,10
48,-0.009155273,0.1149292,0.07495117,-6.740458,-6.931298,-6.2290077,10
49,-0.0076904297,0.11584473,0.077697754,9.755725,-14.137404,-6.3053436,10
50,-0.010986328,0.1126709,0.07763672,21.007633,-16.045801,-6.5343513,10
51,-0.008605957,0.1060791,0.07397461,20.435114,-18.633587,-6.8702292,10
52,-0.008361816,0.10675049,0.074523926,10.106871,-14.641221,-7.70229,10
53,-0.009033203,0.105041504,0.074035645,7.5267177,-19.312977,-7.5038166,10
54,-0.0026245117,0.107910156,0.07128906,-7.068702,-14.732824,-11.641221,10
55,-0.006958008,0.10668945,0.07867432,-16.38168,-14.465649,-15.290076,10
56,-0.009460449,0.11206055,0.08154297,-18.305344,-21.458015,-17.67939,10
57,-0.007446289,0.11578369,0.08288574,0.4351145,-21.610687,-14.519084,10
58,-0.0056762695,0.107299805,0.07867432,9.511451,-26,-21.122137,10
59,-0.010253906,0.107299805,0.078125,15.290076,-28.862595,-17.412214,10
60,-0.010192871,0.10870361,0.077819824,0.39694658,-25.923664,-17.526718,10
61,-0.015014648,0.11102295,0.07623291,5.59542,-26.259542,-15.458015,10
62,-0.008666992,0.110839844,0.07519531,8.717557,-24.480917,-11.503817,10
63,-0.011779785,0.111206055,0.07977295,18.503817,-27.732824,-13.4198475,10
64,-0.010559082,0.11047363,0.077941895,20.755726,-26.541985,-10.076336,10
65,-0.012268066,0.10559082,0.072631836,19.007633,-23.778625,-8.328244,10
66,-0.008728027,0.10626221,0.07116699,4.59542,-16.305344,-11.045801,10
67,-0.012268066,0.107421875,0.07537842,-1.7709924,-15.549619,-11.412213,10
68,-0.008300781,0.113708496,0.074035645,3.1984732,-11.603053,-7.9083967,10
69,-0.010437012,0.111328125,0.07543945,24.152672,-10.9007635,-8.839695,10
70,-0.010314941,0.1105957,0.07867432,23.23664,-8.793893,-6.4503818,10
71,-0.0063476562,0.115478516,0.056518555,23.89313,-6.6870227,-1.4732825,10
72,-0.009521484,0.10864258,0.07141113,23.458015,-5.038168,-7.8244276,10
73,-0.0115356445,0.10827637,0.06854248,13.122137,-4.931298,-5.931298,10
74,-0.008117676,0.1071167,0.07055664,3.4732823,-1,-6.3053436,10
75,-0.009094238,0.10784912,0.070251465,2.6793892,-0.58778626,-4.40458,10
76,-0.010009766,0.1083374,0.06665039,5.4580154,0.6183206,0.114503816,10
77,-0.008117676,0.10986328,0.068847656,7.557252,-0.65648854,3.389313,10
78,-0.009643555,0.109558105,0.06829834,16.137405,-1.5877863,7.145038,10
79,-0.007385254,0.109375,0.066223145,16.25191,-1.8625954,6.9694657,10
80,-0.006225586,0.11022949,0.07397461,12.297709,1.221374,12.274809,10
81,-0.0059814453,0.111206055,0.07080078,7.2671757,1.4351145,11.549619,10
82,-0.0051879883,0.115722656,0.071777344,4.633588,7.0534353,10.625955,10
83,-0.0033569336,0.12109375,0.06939697,14.251908,8.885496,15.076336,10
84,-0.0033569336,0.11779785,0.06488037,19.755726,12.5801525,9.183207,10
85,0.0004272461,0.117248535,0.06573486,22.007633,13.328244,9.022901,10
86,-0.0013427734,0.118774414,0.06341553,16.25191,13.480916,3.870229,10
87,-0.0010375977,0.11846924,0.06109619,22.961832,14.992367,4.068702,10
88,-0.0021972656,0.12243652,0.059570312,39.17557,12.61832,7.1603055,10
89,0.0036621094,0.1251831,0.053344727,66.19847,6.480916,12.274809,10
90,0.0015258789,0.11230469,0.049194336,73.00764,7.9541984,11.427481,10
91,0.0009765625,0.11175537,0.044677734,52.52672,10.732824,11.038168,10
92,-0.0009765625,0.10797119,0.043029785,46.480915,8.366412,15.923664,10
93,0.0009155273,0.11315918,0.043518066,65.42748,5.152672,18.343512,10
94,0.0017700195,0.109680176,0.03869629,74.08397,7.664122,25.030535,10
95,0.0044555664,0.11291504,0.039123535,63.91603,11.954199,31.10687,10
96,0.0068969727,0.12005615,0.034118652,48.839695,18.274809,25.770992,10
97,0.009399414,0.12536621,0.028137207,35.25954,20.419847,18.48855,10
98,0.01184082,0.13378906,0.040893555,33.015266,20.580153,15.2595415,10
99,0.012207031,0.13189697,0.030029297,48.12214,23.160305,13.206107,10
100,0.018127441,0.12365723,0.0126953125,66.9771,23.48855,11.091603,10
101,0.015930176,0.11450195,0.0064697266,60.961834,22.67939,-1.480916,10
102,0.008605957,0.104003906,0.016418457,13.351145,28.404581,-5.7862597,10
103,0.021484375,0.11340332,0.010070801,-15.511451,21.25191,5.89313,10
104,0.015136719,0.11578369,0.0076904297,14.366412,26.908398,3.8854961,10
105,0.018737793,0.11029053,0.0064086914,19.755726,28.549618,7.3511453,10
106,0.023376465,0.1159668,0.019897461,1.778626,21.351145,10.770992,10
107,0.019958496,0.12579346,0.008911133,38.55725,15.351145,18.343512,10
108,0.015686035,0.109069824,0.016723633,31.564886,28.38168,4.7328243,10
109,0.019042969,0.10913086,0.010925293,-12.076336,38.17557,17.358778,10
110,0.03137207,0.11151123,0.01159668,-30.045801,42.198475,11.763359,10
111,0.053649902,0.14788818,-0.020507812,-21.51145,13.251908,18.183207,10
112,0.014099121,0.12762451,0.0002441406,37.030533,-2.2671757,-0.5801527,10
113,0.032104492,0.107543945,0.0107421875,33.038166,-19.374046,3.183206,10
114,0.010498047,0.1038208,0.013244629,42.885498,-18.244274,17.267176,10
115,0.025756836,0.105651855,0.0048217773,52.389313,-11.183207,-1.0229008,10
116,0.034423828,0.10803223,-0.0119018555,2.0305343,-7.4351144,0.4351145,10
117,0.034179688,0.11651611,0.013549805,-33.78626,-12.870229,0.20610687,10
118,0.028015137,0.122680664,0.011657715,-17.580153,-15.61832,6.0076337,10
119,0.019226074,0.12194824,0.024108887,-40.068703,-1.2366412,-14.832061,10
120,0.03527832,0.14581299,0.008300781,-19.526718,-0.70229006,4.3969464,10
121,0.028015137,0.12780762,0.01727295,20.778625,-6.5038166,-21.23664,10
122,0.022277832,0.09967041,0.011352539,9.21374,-6.587786,-15.59542,10
123,0.025268555,0.09942627,0.011169434,-25.068703,0.648855,-10.022901,10
124,0.030578613,0.10443115,0.00793457,-47.045803,8.312977,-17.167938,10
125,0.02758789,0.10839844,0.016479492,-93.15267,12.465649,-26.259542,10
126,0.023254395,0.11407471,0.014587402,-94.92367,9.732824,-18.396946,10
127,0.028381348,0.111206055,0.003479004,-57.82443,-7.0610685,-29.389313,10
128,0.021362305,0.120788574,0.022094727,-47.52672,-4.740458,-16.732824,10
129,0.011169434,0.11651611,0.054992676,-99.44275,7.1755724,-18.786259,10
130,0.028625488,0.14154053,0.065979004,-42.29771,15.992367,0.6870229,10
131,0.016113281,0.14117432,0.045776367,-5.9160304,25.503817,-34.335876,10
132,0.010681152,0.11126709,0.019714355,9.351145,23.396946,-31.435114,10
133,0.015991211,0.104003906,0.0335083,-39.229008,28.458015,-27.114504,10
134,0.021240234,0.115356445,0.049804688,-13.061069,10.511451,-3.221374,10
135,0.024414062,0.10461426,0.01940918,30.114504,-3.2671757,6.412214,10
136,0.030212402,0.11364746,0.003967285,14.7786255,-9.816793,4.0458016,10
137,0.028625488,0.115112305,0.010253906,47.244274,-34.160305,16.778625,10
138,0.027709961,0.09631348,0.011108398,65.32061,-62.44275,22.664122,10
139,0.027832031,0.10650635,0.0087890625,91.21374,-82.36641,67.24428,10
140,0.030334473,0.10827637,0.009216309,144.61069,-90.78626,99.01527,10
141,0.042297363,0.10247803,0.0138549805,187.73282,-92.94656,126.89313,10
142,0.04333496,0.07543945,0.0063476562,178.73282,-81.061066,145.08397,10
143,0.036743164,0.062316895,0.0024414062,138.75572,-56.40458,161.42747,10
144,0.06213379,0.09448242,-0.0020751953,100.70992,-21.022902,182.18321,10
145,0.06976318,0.07354736,-0.0017700195,93.67939,-1.1450381,174.51909,10
146,0.065979004,0.051086426,0.006225586,90.70229,13.21374,164.16794,10
147,0.06903076,0.032287598,0.007507324,54.580154,41.282444,166.35115,10
148,0.09106445,0.051330566,-0.007507324,-1.4122137,76.98473,159.08397,10
149,0.1251831,0.061279297,-0.001953125,-47.114502,93.259544,147.17557,10
150,0.13189697,0.057739258,0.008361816,-65.9313,78.08397,130.05344,10
151,0.13348389,0.0592041,0.008850098,-92.99236,64.27481,111.57252,10
152,0.1453247,0.044128418,0.0061035156,-197.89313,71.15267,65,10
153,0.15045166,0.07006836,0.02722168,-250.1374,64.32061,44.709923,10
154,0.159729,0.099487305,0.008605957,-243.16031,33.480915,37.46565,10
155,0.125,0.09515381,0.03552246,-125.91603,14.091603,9.458015,10
156,0.11022949,0.081970215,0.03955078,-34.52672,15.167939,-2.0076337,10
157,0.109375,0.070251465,0.03277588,10.938931,18.328245,4.6412215,10
158,0.10650635,0.057617188,0.025146484,25.229008,20.19084,6.10687,10
159,0.1003418,0.03894043,0.020629883,26.114504,16.93893,3.1908398,10
160,0.09692383,0.013366699,-0.005859375,-40.389313,23.70229,2.4503818,10
161,0.10913086,0.033081055,-0.0045166016,-134.9084,39.717556,19.587786,10
162,0.119506836,0.048950195,0.016723633,-98.51908,20.816793,18.801527,10
163,0.12542725,0.06317139,0.047607422,-14.801527,-18.526718,17.793894,10
164,0.11608887,0.049560547,0.031921387,69.41222,-34.52672,40.27481,10
165,0.11566162,0.039001465,0.0335083,144.6565,-30.259542,47.282444,10
166,0.11975098,0.026550293,0.03161621,167.19084,-22.664122,61.137405,10
167,0.1194458,0.01776123,0.026306152,152.70229,-11.984733,58.778625,10
168,0.11254883,0.016784668,0.022949219,128.93893,-4.5038166,46.870228,10
169,0.11431885,0.012145996,0.022094727,98.03053,4.625954,45.038166,10
170,0.11431885,0.014099121,0.018676758,58.70229,13.870229,32.52672,10
171,0.11645508,0.028564453,0.0178833,63.221375,15.931297,39.335876,10
172,0.120788574,0.024963379,0.024169922,91.89313,9.839695,39.15267,10
173,0.115112305,0.019348145,0.016235352,117.770996,7.3893127,40.885498,10
174,0.11651611,0.017211914,0.017944336,130.52672,5.885496,52.435116,10
175,0.118896484,0.0007324219,0.013000488,103.91603,4.2748094,31.38168,10
176,0.12463379,-0.003967285,0.012939453,47,4.0839696,13.648855,10
177,0.12719727,-0.0016479492,0.016235352,-7.2137403,1.0229008,-15.78626,10
178,0.12536621,-0.004211426,0.018066406,-50.900764,-4.5267177,-48.755726,10
179,0.1274414,0.0051879883,0.020629883,-66.580154,-11.877863,-54.427483,10
180,0.12451172,-0.006164551,0.019348145,-59.030533,-8.80916,-54.633587,10
181,0.1217041,-0.0014648438,0.015380859,-35.49618,-1.961832,-54.44275,10
182,0.116760254,-0.0029907227,0.017456055,-30.900763,-4.4351144,-28.755726,10
183,0.11730957,0.0026855469,0.017944336,-21.786259,-2.5877862,-15.763359,10
184,0.11529541,0.0030517578,0.020385742,-26.122137,-0.86259544,-10.21374,10
185,0.11462402,0.006958008,0.023010254,-43.15267,0.6335878,-3.8778627,10
186,0.11480713,0.010681152,0.023254395,-53.885498,1.0992366,-7.9770994,10
187,0.1149292,0.016967773,0.025268555,-52.59542,4.6412215,-10.633588,10
188,0.11621094,0.018798828,0.026245117,-42.48855,7.59542,-9.152672,10
189,0.11785889,0.014465332,0.022399902,-31.022902,8.137404,-14.366412,10
190,0.11804199,0.014831543,0.02166748,-26.824427,9.679389,-10.267176,10
191,0.117614746,0.012573242,0.019042969,-25.290077,9.480916,-13.015267,10
192,0.11810303,0.011169434,0.017944336,-29.900763,10.488549,-10.870229,10
193,0.11743164,0.013000488,0.018371582,-31.312977,6.3816795,-8.244275,10
194,0.11834717,0.016540527,0.01977539,-29.42748,5.961832,-5.7938933,10
195,0.119018555,0.018981934,0.019592285,-24.984734,2.923664,-3.29771,10
196,0.11798096,0.021972656,0.022155762,-13.679389,3.664122,-2.557252,10
197,0.117614746,0.022399902,0.022644043,2.778626,1.3282443,-4.6030536,10
198,0.116882324,0.021484375,0.024902344,20.12977,0.740458,-5.5267177,10
199,0.115356445,0.018615723,0.024230957,32.816795,1.0152671,-4.1984735,10
200,0.11413574,0.0126953125,0.025390625,33.08397,0.83206105,-8.503817,10
201,0.117492676,0.010864258,0.024658203,14.9007635,2.6030533,-6.6412215,10
202,0.117370605,0.010009766,0.024841309,-0.32061067,0.5954198,-10.152672,10
203,0.119384766,0.010375977,0.022644043,9.145039,-0.8778626,-10.091603,10
204,0.1204834,0.0072631836,0.024719238,3.1145039,0.9312977,-13.007633,10
205,0.11743164,0.008178711,0.024169922,-7.4503818,-0.114503816,-7.412214,10
206,0.11682129,0.009765625,0.024291992,-12.534351,-1.0610687,-10.954199,10
207,0.11645508,0.012023926,0.025939941,-21.290077,2.4961832,-8.679389,10
208,0.1171875,0.016418457,0.028686523,-27.580153,2.7862597,-10.442748,10
209,0.11541748,0.018127441,0.025024414,-31.267176,0.8549618,-11.076336,10
210,0.11999512,0.024902344,0.029052734,-30.587786,3.4961832,-10.641221,10
211,0.11633301,0.022705078,0.026550293,-15.335877,1.4961832,-9.40458,10
212,0.11657715,0.021911621,0.026977539,-0.007633588,1.3206106,-9.19084,10
213,0.11584473,0.019836426,0.02722168,10.068703,-0.8015267,-7.4503818,10
214,0.11639404,0.016845703,0.026611328,11.129771,1.2290076,-8.770992,10
215,0.116882324,0.014404297,0.02746582,6.038168,-0.610687,-8.244275,10
216,0.11645508,0.013244629,0.027832031,-8.847328,-1.221374,-14.358779,10
217,0.11657715,0.015197754,0.026062012,-23.908398,-0.33587787,-12.770992,10
218,0.11627197,0.01763916,0.0234375,-27.473282,-1.2290076,-16.564886,10
219,0.11773682,0.020202637,0.022277832,-25.984734,-0.3816794,-13.977099,10
220,0.114990234,0.020629883,0.028137207,-21.114504,-3.038168,-10.824428,10
221,0.11401367,0.020935059,0.029663086,-16.931297,1.4580153,-9.343512,10
222,0.113098145,0.020385742,0.029418945,-11.19084,5.1984735,-11.824428,10
223,0.11193848,0.022460938,0.02947998,-11.694656,5.5343513,-9.320611,10
224,0.11151123,0.020690918,0.029052734,-12.152672,6.335878,-10.236641,10
225,0.11315918,0.020874023,0.027404785,-15.106871,11.59542,-8.442748,10
226,0.114990234,0.021240234,0.026611328,-15.748092,10.297709,-7.8625956,10
227,0.11767578,0.020629883,0.02557373,-15.473283,8.648855,-5.0458016,10
228,0.120910645,0.02368164,0.023132324,-7.9847326,6.0534353,-4.480916,10
229,0.12030029,0.023742676,0.02911377,4.961832,6.5496182,-3.5877862,10
230,0.11956787,0.02154541,0.02935791,4.2519083,2.8244274,-4.0229006,10
231,0.11657715,0.022338867,0.030395508,8.374045,2.8854961,-0.9694657,10
232,0.117370605,0.018981934,0.029907227,5.5419846,3.221374,0.4351145,10
233,0.1182251,0.017944336,0.027404785,7.0992365,0.099236645,0.77862597,10
234,0.11639404,0.019836426,0.029785156,10.801527,2.2137403,-1.2671756,10
235,0.11798096,0.024719238,0.033203125,15.473283,-2.1221373,4.7099237,10
236,0.116760254,0.01928711,0.033325195,18.80916,0.90076333,-0.9389313,10
237,0.11883545,0.020080566,0.02368164,17.885496,0.5114504,1.2748091,10
238,0.11413574,0.01727295,0.031433105,13.015267,3.4122138,-7.259542,10
239,0.113220215,0.01727295,0.032287598,11.480916,2.6564887,-2.335878,10
240,0.11517334,0.016235352,0.034057617,3.519084,2.1450381,-9.885496,10
241,0.11669922,0.016418457,0.032043457,-6.0229006,0.9465649,-5.0992365,10
242,0.11694336,0.019897461,0.03375244,-10.7404585,2.038168,-5.6030536,10
243,0.11633301,0.019714355,0.031188965,-13.671756,2.8396947,-6.145038,10
244,0.11633301,0.023010254,0.03186035,-7.480916,4.259542,-0.60305345,10
245,0.1171875,0.021850586,0.03186035,-5.1221375,1.6717557,-1.9389313,10
246,0.11639404,0.023864746,0.03125,-0.40458015,0.99236643,-1.3358779,10
247,0.11730957,0.022460938,0.030578613,3.6717558,2.7328243,-3.1984732,10
248,0.11810303,0.02166748,0.032409668,2.557252,1.778626,-3.6946564,10
249,0.11804199,0.021606445,0.030700684,5.183206,1.2290076,-5.183206,10
250,0.11846924,0.020996094,0.029846191,7.2137403,-1.3206106,-7.0305343,10
251,0.1171875,0.019958496,0.030151367,11.450381,-1.5267175,-6.7633586,10
252,0.11645508,0.014953613,0.032043457,8.954199,-2.1984732,-5.0992365,10
253,0.11425781,0.016967773,0.030883789,9.465649,-1.3206106,-2.4885497,10
254,0.11669922,0.018920898,0.03186035,9.748092,-1.4732825,-3.8778627,10
255,0.11553955,0.017578125,0.030700684,6.076336,-0.030534351,0.007633588,10
256,0.115112305,0.018188477,0.03289795,5.3816795,0.4351145,-4,10
257,0.116882324,0.018432617,0.032714844,2.0076337,2.4732823,-2.961832,10
258,0.11663818,0.019592285,0.031311035,0.90839696,0.45801526,-3.7862597,10
259,0.11706543,0.018432617,0.030639648,1.3358779,-0.030534351,-2.793893,10
260,0.117126465,0.019042969,0.030273438,0.6259542,0.45038167,-2.5648854,10
261,0.116882324,0.018615723,0.029785156,-1.038168,2.3206108,-5.5801525,10
262,0.117004395,0.018371582,0.030456543,-1.4198474,1.4961832,-5.6030536,10
263,0.1171875,0.01965332,0.028259277,0.10687023,0.66412216,-3.664122,10
264,0.11657715,0.018371582,0.030029297,2.7633588,-1.5343511,-5.038168,10
265,0.11657715,0.019348145,0.03112793,7.2366414,-0.79389316,-3.740458,10
266,0.115722656,0.0178833,0.030761719,9.748092,-0.3053435,-4.7633586,10
267,0.11633301,0.016906738,0.030700684,10.961832,-1.1221374,-6.847328,10
268,0.117004395,0.0154418945,0.03112793,4.5114503,0.8244275,-4.3893127,10
269,0.115722656,0.015563965,0.030578613,2.8778627,0.3816794,-5.2900763,10
270,0.11639404,0.015197754,0.032592773,-2.389313,0.70229006,-4.1984735,10
271,0.117126465,0.016052246,0.031066895,-4.2900763,1.4045801,-5.0839696,10
272,0.11810303,0.016174316,0.029968262,-6.1221375,0,-6.557252,10
273,0.117126465,0.018249512,0.031188965,-3.0992367,0.20610687,-5.2366414,10
274,0.1161499,0.01776123,0.030883789,-1.9694656,-0.65648854,-5.0534353,10
275,0.11816406,0.022827148,0.040771484,-1.9160305,-0.23664123,-1.4045801,10
276,0.11529541,0.017089844,0.031311035,-0.519084,-1.4503816,-3.8625953,10
277,0.11621094,0.018005371,0.03137207,0.5038168,-2,-5.7251906,10
278,0.117492676,0.016845703,0.031982422,0.030534351,-1.6946565,-4.374046,10
279,0.11828613,0.016296387,0.031555176,0.2977099,-3.1068702,-5.9083967,10
280,0.11773682,0.016845703,0.03137207,0.47328246,-3.2519083,-5.3893127,10
281,0.117614746,0.018127441,0.030151367,0.99236643,-3.8778627,-6.0534353,10
282,0.11633301,0.016601562,0.031555176,0.2519084,-1.7557251,-4.0229006,10
283,0.117004395,0.01763916,0.031677246,0.29007635,-2.0458016,-3.0305343,10
284,0.12561035,0.021728516,0.0048828125,-3.4198472,-0.2519084,4.6793895,10
285,0.11651611,0.01977539,0.030212402,1.351145,-0.24427481,0.6946565,10
286,0.117004395,0.019897461,0.03112793,3.5267177,-1.3282443,-1.3129771,10
287,0.117126465,0.019042969,0.029968262,6.89313,-1.8015267,-1.832061,10
288,0.11706543,0.01965332,0.028076172,10.4198475,-0.4274809,-1.3206106,10
289,0.11682129,0.017944336,0.028442383,16.725191,-0.90076333,0.8778626,10
290,0.11804199,0.016601562,0.028076172,18.450382,-0.2519084,-1.351145,10
291,0.11651611,0.014343262,0.02722168,21.526718,-1.1984733,-0.648855,10
292,0.11608887,0.013244629,0.028015137,18.160305,-2.7709923,-1.4198474,10
293,0.12194824,0.01586914,0.043518066,15.091603,-1.167939,0.84732825,10
294,0.11633301,0.016113281,0.028930664,18.290077,-1.0152671,-1.7099236,10
295,0.117248535,0.014587402,0.029418945,20.61832,0.32824427,-1.1068702,10
296,0.1159668,0.014160156,0.030700684,20.167938,0.9694657,-0.3816794,10
297,0.1171875,0.012756348,0.029724121,18.213741,1.1450381,-1.1603054,10
298,0.11767578,0.011413574,0.027038574,13.816793,1.351145,-4.3129773,10
299,0.117370605,0.0119018555,0.026611328,10.061069,1.7557251,-2.2824428,10
300,0.117614746,0.010559082,0.027282715,7.7633586,2.312977,-4.1755724,10
301,0.11883545,0.012084961,0.027038574,6.6412215,1.1984733,-2.1374047,10
302,0.12200928,0.013244629,0.026611328,6.3129773,0.045801528,-2.3969467,10
303,0.115722656,0.011657715,0.026977539,5.3893127,0.099236645,-1.7251909,10
304,0.11621094,0.012268066,0.02734375,7.778626,-0.9465649,-1.7480916,10
305,0.11633301,0.0126953125,0.026245117,6.885496,-0.9541985,-4.0458016,10
306,0.1159668,0.012390137,0.025939941,6.480916,-0.40458015,-3.8778627,10
307,0.11633301,0.012207031,0.026489258,7.480916,0.6259542,-4.2442746,10
308,0.11804199,0.011047363,0.02923584,5.1603055,0.3740458,-6.5648856,10
309,0.11883545,0.011047363,0.028442383,-0.66412216,3.5419848,-6.6412215,10
310,0.11853027,0.00970459,0.026611328,-2.8473282,0.9694657,-5.40458,10
311,0.11785889,0.010803223,0.024475098,-6.9465647,-0.34351146,-5.6030536,10
312,0.117004395,0.012023926,0.026062012,-5.1297708,-0.648855,-8.0992365,10
313,0.11694336,0.0134887695,0.026306152,-3.6564887,0.53435117,-4.2824426,10
314,0.11706543,0.013549805,0.02545166,-3.5877862,-0.38931298,-6.442748,10
315,0.11645508,0.013793945,0.027893066,-0.39694658,-0.08396947,-9.022901,10
316,0.11651611,0.014221191,0.026855469,0.03816794,0.015267176,-9.061069,10
317,0.11779785,0.012878418,0.02734375,-0.10687023,0.47328246,-8.854961,10
318,0.117370605,0.01184082,0.026916504,-0.03816794,-0.35114503,-9.870229,10
319,0.1182251,0.01171875,0.02722168,-0.55725193,-0.32824427,-6.2671757,10
320,0.11895752,0.012145996,0.025634766,-2.8625953,0.3129771,-5.9389315,10
321,0.1182251,0.012268066,0.027709961,-5.847328,-0.7099237,-8.068703,10
322,0.1194458,0.013183594,0.021606445,-8.145039,0.46564886,-9.893129,10
323,0.124572754,0.01928711,0.026428223,-10.366412,-2.5038168,-16.61832,10
324,0.12976074,0.023132324,0.018859863,-9.40458,-9.061069,-26.38168,10
325,0.1317749,0.027709961,0.012939453,-19.198473,-16.656488,-49.47328,10
326,0.12866211,0.022827148,0.017944336,-57.74046,-23.534351,-54.87786,10
327,0.1239624,0.04510498,0.01727295,-76.03053,-23.557251,-58.93893,10
328,0.1295166,0.07885742,0.008178711,13.091603,-27.80916,-56.839695,10
329,0.115356445,0.050964355,0.012573242,67.419846,-32.305344,-72.0687,10
330,0.111694336,0.053710938,0.01586914,84.496185,-33.91603,-44.580154,10
331,0.11212158,0.060913086,0.010681152,93.145035,-31.053434,-54.427483,10
332,0.11022949,0.055541992,0.016357422,73.71756,-21.923664,-58.519085,10
333,0.11187744,0.060546875,0.012573242,82.778625,-20.93893,-54.625954,10
334,0.1105957,0.05505371,0.0126953125,100.75572,-23.282442,-76.96183,10
335,0.10290527,0.045898438,0.014160156,75.96183,-23.42748,-63.412212,10
336,0.10046387,0.043029785,0.013305664,50.694656,-10.007633,-78.1145,10
337,0.1003418,0.04663086,0.018981934,21.442749,2.1221373,-87.25191,10
338,0.092041016,0.02960205,0.016174316,-39.27481,10.007633,-103.900764,10
339,0.0925293,0.050048828,0.01776123,-103.29771,28.007633,-102.091606,10
340,0.09106445,0.049926758,0.015136719,-132.32062,45.46565,-107,10
341,0.0927124,0.06512451,0.025817871,-137.82443,50.396946,-92.29008,10
342,0.08709717,0.07672119,0.03137207,-106.73283,47.91603,-67.816795,10
343,0.087524414,0.07489014,0.03338623,-81.8855,46.137405,-60.27481,10
344,0.07696533,0.06817627,0.03527832,-86.87786,51.549618,-54.366413,10
345,0.078552246,0.08331299,0.042419434,-84.61069,50.267174,-54.32061,10
346,0.07434082,0.0881958,0.0423584,-47.961834,42.20611,-32.59542,10
347,0.075805664,0.08648682,0.047546387,-17.832062,32.14504,-29.419847,10
348,0.074279785,0.07836914,0.050048828,-28.671755,31.51145,-22.625954,10
349,0.07196045,0.08520508,0.05456543,-33.458015,34.64122,-12.114504,10
350,0.07537842,0.08312988,0.054016113,-16.015266,29.10687,-14.19084,10
351,0.07788086,0.08618164,0.0501709,-9.198473,26.51145,-6.4351144,10
352,0.079711914,0.08947754,0.051757812,-12.61832,20.213741,3.946565,10
353,0.078186035,0.069885254,0.046142578,29.099237,0.13740458,9.2595415,10
354,0.0748291,0.06542969,0.041992188,16.152672,1.4351145,7.259542,10
355,0.08544922,0.069885254,0.033935547,-48.21374,-2.1221373,6.9694657,10
356,0.091552734,0.08850098,0.054016113,-107.63359,5.10687,-23.633587,10
357,0.06726074,0.08123779,0.064819336,-69.44275,-31.29771,-19.374046,10
358,0.08099365,0.089660645,0.0491333,-58.038166,-23.396946,-16.91603,10
359,0.073791504,0.06329346,0.06567383,-69.32061,-29,-17.946566,10
360,0.07519531,0.09631348,0.067993164,-67.58778,-22.717558,-11.328244,10
361,0.07611084,0.081970215,0.06951904,-20.412214,-42.190838,-17.580153,10
362,0.0748291,0.08319092,0.0803833,-19.709923,-37.328243,-6.9847326,10
363,0.071777344,0.08343506,0.084106445,-11.297709,-31.038168,-3.1450381,10
364,0.072631836,0.0803833,0.07946777,2.7175572,-30.595419,-2.2442749,10
365,0.07385254,0.09289551,0.07067871,32.49618,-32.458015,11.78626,10
366,0.07098389,0.06781006,0.064575195,55.52672,-39.23664,10.0992365,10
367,0.079711914,0.087402344,0.066101074,60.435116,-32.801525,38.17557,10
368,0.0770874,0.099609375,0.056274414,133.81679,-45.08397,49.78626,10
369,0.077941895,0.0758667,0.042236328,168.74046,-50.91603,41.580154,10
370,0.08288574,0.071777344,0.027832031,162.48856,-43.015266,64.381676,10
371,0.08526611,0.07659912,0.03894043,184.64122,-47,74.54962,10
372,0.087524414,0.056884766,0.031921387,148.22137,-24.671755,58.34351,10
373,0.091918945,0.057861328,0.014221191,94.72519,2.40458,70.183205,10
374,0.1015625,0.057250977,0.0057373047,49.15267,6.6412215,58.450382,10
375,0.10235596,0.062561035,0.0040283203,33.587788,-0.9847328,62.809162,10
376,0.103149414,0.051086426,0.00793457,44.450382,-4.7709923,64.08397,10
377,0.09881592,0.038208008,0.008178711,30.519083,3.8625953,64.51145,10
378,0.106933594,0.045654297,0.015625,5.1679387,14.358779,65.862595,10
379,0.11633301,0.047546387,0.017578125,-7.7328243,11.503817,66.71756,10
380,0.119506836,0.042419434,0.016662598,-9.442748,10.030535,57.885498,10
381,0.12207031,0.042114258,0.021118164,-7.0152674,10.633588,51.664124,10
382,0.11956787,0.0390625,0.02154541,-14.969465,12.412213,40.89313,10
383,0.118652344,0.043518066,0.019836426,-20.908398,11.648855,34.572517,10
384,0.11590576,0.04144287,0.0178833,-6.3129773,13.0992365,29.114504,10
385,0.11608887,0.037475586,0.014953613,-5.0992365,14.938931,22.908398,10
386,0.11553955,0.040771484,0.017944336,4.5648856,15.290076,26.977098,10
387,0.113586426,0.033935547,0.01739502,25.76336,16.19084,23.167938,10
388,0.115356445,0.028930664,0.012573242,29.847328,20.954199,29.412214,10
389,0.118896484,0.025939941,0.0071411133,23.435114,16.29771,28.099237,10
390,0.11773682,0.02355957,0.008728027,3.8778627,16.152672,24.404581,10
391,0.118774414,0.023010254,0.013305664,-7.0076337,9.801527,21.816793,10
392,0.11975098,0.027282715,0.011352539,9.4198475,8.992367,18.007633,10
393,0.1182251,0.025512695,0.016540527,31,5.412214,10.625955,10
394,0.11694336,0.01977539,0.022949219,24.213741,4.0305343,3.40458,10
395,0.119140625,0.016418457,0.015197754,-21.435114,6.8244276,2.3206108,10
396,0.11828613,0.022949219,0.015625,-28.389313,2.129771,-7.076336,10
397,0.11920166,0.018676758,0.017089844,-31.57252,0.519084,-17.91603,10
398,0.116882324,0.021728516,0.018737793,-21.244274,-3.2748091,-10.923664,10
399,0.11639404,0.0178833,0.019470215,-20.08397,-3.9389312,-12.816793,10
400,0.11669922,0.018005371,0.018920898,-19.450382,-1.0305344,-7.412214,10
401,0.11682129,0.01727295,0.018981934,-17.480917,-1.7251909,-9.694656,10
402,0.116882324,0.017944336,0.022094727,-14.885496,-0.90839696,-7.5648856,10
403,0.11633301,0.018676758,0.022338867,-13.251908,-0.16030534,-9.137404,10
404,0.11633301,0.018066406,0.023864746,-11.824428,-1.519084,-6.9007635,10
405,0.11645508,0.017944336,0.027832031,-10.984733,0.6793893,-3.9312978,10
406,0.1149292,0.018676758,0.022338867,-8.793893,-1.0458015,-7.6564884,10
407,0.114746094,0.018432617,0.022644043,-8.801527,0.3816794,-6.335878,10
408,0.11669922,0.01928711,0.022949219,-9.725191,-0.4351145,-5.2519083,10
409,0.11553955,0.01928711,0.022155762,-1.0458015,1.7938931,-4.8702292,10
410,0.11645508,0.018371582,0.020935059,0.54198474,-1.1374046,-6.0229006,10
411,0.11517334,0.018188477,0.020874023,-0.28244275,-0.5801527,-4.0610685,10
412,0.11566162,0.01940918,0.02178955,-0.8091603,0.67175573,-3.7251909,10
413,0.115356445,0.018920898,0.020935059,1.1221374,-0.83206105,-4.068702,10
414,0.115356445,0.020019531,0.022705078,6.068702,0.20610687,-3.1755726,10
415,0.11590576,0.018066406,0.022399902,7.5801525,0.7251908,-3.8244274,10
416,0.11706543,0.017211914,0.023010254,6.8320613,1.9923664,-3.129771,10
417,0.11706543,0.017700195,0.02331543,4.8320613,1.778626,-3.0839694,10
418,0.11810303,0.016479492,0.021362305,5.152672,-0.4274809,-3.3053436,10
419,0.123168945,0.018615723,0.021118164,3.259542,0.79389316,-1.9160305,10
420,0.11645508,0.016479492,0.020812988,1.3129771,2.389313,-2.351145,10
421,0.117126465,0.015686035,0.0211792,0.519084,1.4427481,-4.7251906,10
422,0.116882324,0.016357422,0.02166748,-1.7099236,0.122137405,-5.2748094,10
423,0.116882324,0.016357422,0.020690918,-1.0305344,-0.16793893,-4.519084,10
424,0.11639404,0.015808105,0.0211792,-0.60305345,0.7480916,-6.9160304,10
425,0.11810303,0.017456055,0.01928711,-1.9847329,0.740458,-6.442748,10
426,0.11810303,0.018554688,0.020751953,-0.19847329,0.061068702,-4.2824426,10
427,0.11621094,0.016906738,0.020568848,4.816794,0.90076333,-2.6412213,10
428,0.12097168,0.019226074,0.02911377,6.2442746,0.5496183,-3.6946564,10
429,0.119506836,0.015380859,0.02178955,3.3282442,0.47328246,-4.8015265,10
430,0.11621094,0.01727295,0.022094727,5.5801525,1.4656489,-5.8702292,10
431,0.11730957,0.0146484375,0.020874023,4.480916,0.89312977,-4.633588,10
432,0.11791992,0.016052246,0.021362305,3.442748,0.83206105,-5.519084,10
433,0.11767578,0.015197754,0.020202637,-1.6717557,1.1526718,-5.2366414,10
434,0.11779785,0.016540527,0.020629883,-0.8778626,1.29771,-6.0839696,10
435,0.11669922,0.014709473,0.019470215,0.58778626,1.2824427,-6.9389315,10
436,0.117248535,0.015319824,0.020690918,-1.6564885,0.2519084,-4.671756,10
437,0.11785889,0.017211914,0.020263672,-1.3587786,0.39694658,-7.5801525,10
438,0.11779785,0.016052246,0.022827148,1.4732825,0.48091602,-5.4503818,10
439,0.11602783,0.01574707,0.022338867,0.7251908,0.29007635,-5.442748,10
440,0.11621094,0.015380859,0.019897461,-2.3435113,3.2671757,-6.7862597,10
441,0.1171875,0.01574707,0.019104004,-3.312977,2.6564887,-7.7633586,10
442,0.1171875,0.015625,0.02142334,-4.5343513,0.36641222,-6.2290077,10
443,0.119262695,0.014709473,0.019592285,-6.7480917,1.2519084,-7.7251906,10
444,0.11895752,0.015686035,0.020202637,-5.70229,0.53435117,-6.6564884,10
445,0.12023926,0.016845703,0.021850586,-5.9694657,-0.48854962,-5.8702292,10
446,0.11682129,0.018005371,0.020385742,-0.8244275,-0.7480916,-7.3587785,10
447,0.11566162,0.015625,0.020080566,1.1145039,0.8854962,-6.2748094,10
448,0.11657715,0.015991211,0.018981934,-2.0152671,-1.3664122,-5.5038166,10
449,0.115112305,0.017028809,0.022277832,-1.3740458,0.053435113,-8.053435,10
450,0.114868164,0.015563965,0.022460938,-4.2137403,0.053435113,-6.3053436,10
451,0.115234375,0.016601562,0.022521973,-5.114504,1.4198474,-7.328244,10
452,0.11633301,0.01727295,0.018432617,-3.6183207,2.0152671,-5.4580154,10
453,0.115234375,0.018310547,0.022521973,-3.3206108,2.1068702,-6.0458016,10
454,0.116882324,0.01751709,0.022399902,-0.022900764,1.6030535,-6.7099237,10
455,0.11651611,0.018310547,0.021972656,0.73282444,1.9160305,-6.0152674,10
456,0.11987305,0.01751709,0.02368164,-0.8549618,2.0152671,-5.6870227,10
457,0.117248535,0.018615723,0.023071289,-1.3816794,0.41984734,-7.2824426,10
458,0.11627197,0.016723633,0.022583008,1.8167939,1.1374046,-5.40458,10
459,0.115722656,0.01586914,0.022094727,1.038168,-0.27480915,-6.5267177,10
460,0.11553955,0.01586914,0.022094727,0.9694657,0.08396947,-7.6793895,10
461,0.116760254,0.017028809,0.021972656,0.6793893,0.78625953,-4.931298,10
462,0.11743164,0.016357422,0.022888184,0.47328246,0.9694657,-4.4503818,10
463,0.11633301,0.017333984,0.022460938,0.27480915,0.41221374,-5.6106873,10
464,0.115112305,0.01574707,0.022460938,0.28244275,0.07633588,-6.152672,10
465,0.11419678,0.016052246,0.023132324,-0.7251908,-0.77862597,-7.374046,10
466,0.116882324,0.018249512,0.017089844,-3.519084,3.40458,-5.40458,10
467,0.11779785,0.017211914,0.02331543,-6.5038166,2.7862597,-6.2290077,10
468,0.11828613,0.018615723,0.022338867,-4.557252,0.32061067,-5.114504,10
469,0.11804199,0.019165039,0.02130127,-3.442748,1.351145,-5.145038,10
470,0.11755371,0.019592285,0.019592285,-1.7251909,1.5572519,-9.007633,10
471,0.11639404,0.018859863,0.022888184,1.1374046,-0.3816794,-6.8625956,10
472,0.114868164,0.018493652,0.02166748,1.4961832,-1.4198474,-7.9694657,10
473,0.11706543,0.017456055,0.022460938,1.1374046,0.5648855,-5.442748,10
474,0.117004395,0.018188477,0.023620605,1.5419847,0.740458,-4.183206,10
475,0.12261963,0.02142334,0.0009765625,0.8778626,0.648855,-1.1832061,10
476,0.11456299,0.016967773,0.023254395,4.2519083,1.5114504,-5.7862597,10
477,0.11517334,0.015625,0.022033691,5.038168,1.7862595,-7.0229006,10
478,0.11816406,0.016479492,0.02142334,0.3740458,2.5801528,-5.0992365,10
479,0.117248535,0.018371582,0.022094727,-0.7480916,-1.7709924,-2.7480917,10
480,0.11810303,0.018371582,0.022827148,1.6793894,0.9389313,-4.0534353,10
481,0.11743164,0.017700195,0.021911621,1.4580153,1.221374,-5.557252,10
482,0.11834717,0.016784668,0.022338867,0.32061067,1.8244275,-8.106871,10
483,0.11651611,0.018188477,0.022644043,0.19847329,1.3129771,-7.259542,10
484,0.12054443,0.01763916,0.025268555,0.8091603,1.480916,-4.068702,10
485,0.118652344,0.016296387,0.020935059,-0.5648855,1.7251909,-4.0839696,10
486,0.11694336,0.016113281,0.021972656,-1.129771,-2.9007633,-5.9694657,10
487,0.116760254,0.016296387,0.02142334,-2.687023,-0.78625953,-5.8244276,10
488,0.11462402,0.017333984,0.02142334,-1.259542,1.5038168,-4.1297708,10
489,0.11657715,0.01739502,0.021484375,-2.4961832,1.4198474,-5.7709923,10
490,0.11669922,0.018737793,0.020874023,0,-1,-4.0992365,10
491,0.1184082,0.018493652,0.023742676,2.4580152,-0.48854962,-3.091603,10
492,0.11791992,0.01965332,0.022949219,4.4198475,0.86259544,-4.4885497,10
493,0.11828613,0.01751709,0.022216797,6.519084,0.60305345,-4.0229006,10
494,0.1159668,0.015625,0.022888184,2.6030533,2.183206,-6.4198475,10
495,0.114746094,0.015930176,0.022155762,-0.39694658,3.5877862,-7.3206105,10
496,0.11621094,0.016113281,0.022277832,-4.3893127,1.8396946,-5.6793895,10
497,0.11767578,0.017150879,0.022216797,-5.961832,4.0534353,-6.2442746,10
498,0.117248535,0.01776123,0.02154541,-1.6870229,0.091603056,-5.7938933,10
499,0.11682129,0.018005371,0.022033691,-0.29007635,2.053435,-7.10687,10
500,0.11608887,0.01739502,0.019165039,0.9236641,-0.27480915,-4.70229,10
501,0.11785889,0.01751709,0.02178955,0.5114504,0.045801528,-6.366412,10
502,0.11657715,0.018127441,0.020080566,5.2671757,-0.28244275,-5.3816795,10
503,0.11773682,0.016906738,0.022705078,7.3587785,-0.39694658,-4.3893127,10
504,0.117248535,0.015136719,0.02368164,7.183206,-0.14503817,-4.5725193,10
505,0.11706543,0.015197754,0.023803711,1.4732825,2.0992367,-5.961832,10
506,0.11590576,0.016235352,0.022766113,-0.8778626,0.38931298,-8.480916,10
507,0.11798096,0.015075684,0.019958496,-4.2671757,2.3740458,-7.3969464,10
508,0.11755371,0.016296387,0.020080566,-7.0152674,2.3206108,-4.3969464,10
509,0.11932373,0.017211914,0.020507812,-10.21374,2.4503818,-9.274809,10
510,0.11773682,0.020751953,0.019592285,-5.2748094,-2.59542,-6.3969464,10
511,0.11706543,0.01928711,0.022827148,-0.20610687,0.114503816,-5.5114503,10
512,0.11602783,0.019165039,0.022094727,2.7557251,0.5038168,-3.6030533,10
513,0.11639404,0.020141602,0.022155762,6.7175574,-0.8854962,-4.3893127,10
514,0.11584473,0.017822266,0.022155762,8.129771,-1.961832,-2.9160306,10
515,0.11669922,0.016784668,0.024963379,4.923664,1.9465649,-5.9465647,10
516,0.11791992,0.016540527,0.024780273,2.0305343,1.8778626,-5.1374044,10
517,0.11602783,0.015930176,0.022949219,-1.6183206,1.2824427,-7.9923663,10
518,0.117370605,0.016479492,0.021850586,-2.442748,0.5801527,-7.40458,10
519,0.11694336,0.016784668,0.022216797,1.129771,0.870229,-8.129771,10
520,0.11895752,0.018676758,0.020202637,-2.1603053,-1.5877863,-6.0839696,10
521,0.11669922,0.018066406,0.02508545,2.3587787,0.77862597,-6.0610685,10
522,0.11810303,0.017211914,0.025268555,5.114504,0.14503817,-5.6870227,10
523,0.115722656,0.016662598,0.024536133,6.2900763,1.4656489,-5.9694657,10
524,0.11450195,0.015075684,0.023254395,2.832061,1.259542,-6.778626,10
525,0.11462402,0.014709473,0.02368164,1.648855,1.1068702,-5.183206,10
526,0.11621094,0.0146484375,0.022705078,-3.8015268,0.22900763,-5.1984735,10
527,0.1184082,0.017028809,0.0234375,-6.7328243,0.4351145,-4.6488547,10
528,0.11682129,0.018676758,0.023376465,-5.8015265,-0.8396947,-4.0916033,10
529,0.117126465,0.018920898,0.022583008,-1.519084,-0.07633588,-4.366412,10
530,0.11633301,0.018859863,0.02178955,4.1984735,-0.114503816,-5.4732823,10
531,0.11639404,0.018371582,0.022155762,3.0305343,-1.5343511,-5.6183205,10
532,0.11608887,0.018432617,0.023498535,2.8778627,0.8549618,-5.4732823,10
533,0.117492676,0.016967773,0.024780273,4.9770994,-0.053435113,-4.1374044,10
534,0.11816406,0.016967773,0.023071289,2.923664,1.1755725,-4.3511453,10
535,0.11779785,0.016418457,0.021240234,1.6259542,1.0305344,-6.70229,10
536,0.116882324,0.0178833,0.022155762,1.2824427,0.5954198,-6.40458,10
537,0.115722656,0.016174316,0.022094727,2.7633588,-0.22900763,-6.0916033,10
538,0.117492676,0.01727295,0.021484375,1.1526718,0.07633588,-6.6412215,10
539,0.1171875,0.01763916,0.025756836,3.8396947,0.07633588,-4.854962,10
540,0.12536621,0.021484375,0.0002441406,3.9847329,0.22137405,1.0076336,10
541,0.115234375,0.016845703,0.024658203,9.389313,-0.54198474,-4.3816795,10
542,0.11590576,0.016052246,0.023498535,6.221374,1.7328244,-3.6259542,10
543,0.11590576,0.014465332,0.02154541,1.2748091,1.1603054,-5.4274807,10
544,0.11645508,0.0146484375,0.022338867,-1.2290076,1.2442749,-1.961832,10
545,0.119384766,0.01763916,0.021057129,-4.038168,0.36641222,-5.923664,10
546,0.118652344,0.017822266,0.021362305,-5,0.5038168,-5.8015265,10
547,0.117492676,0.019714355,0.02142334,-1.1221374,0.8396947,-6.7175574,10
548,0.1161499,0.019836426,0.023254395,3.70229,-0.9236641,-4.7099237,10
549,0.1182251,0.019470215,0.040039062,4.0992365,0.79389316,-4.2748094,10
550,0.11602783,0.017211914,0.022155762,5.1297708,0.90839696,-5.0610685,10
551,0.11755371,0.017089844,0.022460938,6.480916,-1.038168,-4.9465647,10
552,0.11663818,0.017333984,0.022277832,7.931298,1.5572519,-2.389313,10
553,0.11682129,0.014770508,0.022338867,4.0610685,1.4427481,-5.0992365,10
554,0.117004395,0.0154418945,0.021362305,1.6030535,-0.28244275,-4.8702292,10
555,0.117126465,0.016052246,0.022460938,-1.5496184,-1.2824427,-6.4198475,10
556,0.117492676,0.018127441,0.021240234,1.167939,0.78625953,-2.312977,10
557,0.118774414,0.017578125,0.024597168,1.7251909,-2.1221373,-5.847328,10
558,0.12042236,0.023254395,0.022644043,-2.183206,-2.534351,-3.8473282,10
559,0.11468506,0.015319824,0.026062012,4.6106873,-4.7938933,-6.4961834,10
560,0.11584473,0.014160156,0.02319336,0.9236641,-5.145038,-3.2824428,10
561,0.11517334,0.014831543,0.019348145,-4.3816795,-4.3969464,-7.4274807,10
562,0.11651611,0.016601562,0.017578125,-5.0305343,-1.4122137,-5.671756,10
563,0.11834717,0.016723633,0.019836426,-1.1603054,-4.671756,-5.038168,10
564,0.12030029,0.016906738,0.017822266,1.70229,-5.0305343,-3.206107,10
565,0.11743164,0.016296387,0.018432617,1.8931298,-4.0916033,-4.0305343,10
566,0.1159668,0.014526367,0.020874023,1.7480916,-0.32824427,-3.2366412,10
567,0.116882324,0.017089844,0.020019531,3.2900763,0.9160305,-4.0916033,10
568,0.11480713,0.016052246,0.020446777,3.9007633,0.99236643,-5.4656487,10
569,0.11743164,0.015563965,0.020812988,0.6793893,4.114504,-6.6106873,10
570,0.11804199,0.0154418945,0.020935059,-1.8549619,6.1984735,-6.5496182,10
571,0.11633301,0.015930176,0.020263672,-2.1221373,3.053435,-7.2900763,10
572,0.11608887,0.015563965,0.02142334,-3.206107,7.0458016,-9.40458,10
573,0.11804199,0.015808105,0.018066406,-4.7938933,7.9160304,-5.5725193,10
574,0.118774414,0.018310547,0.019348145,-3.4198472,4.4656487,-8.534351,10
575,0.117248535,0.016418457,0.01940918,3.3816793,0.5496183,-7.328244,10
576,0.12036133,0.015075684,0.020446777,2.3206108,0.77862597,-3.870229,10
577,0.11621094,0.015625,0.02166748,3.6793892,-0.7480916,-5.7099237,10
578,0.11584473,0.01586914,0.023986816,6.221374,-0.740458,-4.89313,10
579,0.11773682,0.014465332,0.021484375,5.2519083,0.45038167,-5.335878,10
580,0.11669922,0.014282227,0.026489258,1.6717557,3.167939,-5.9541984,10
581,0.11645508,0.0146484375,0.025024414,-4.0229006,2.2366412,-7.7251906,10
582,0.11633301,0.015380859,0.02368164,-7.8778625,2.6412213,-8.480916,10
583,0.1171875,0.016174316,0.022521973,-12.183207,2.9770992,-8.923664,10
584,0.116882324,0.016479492,0.020263672,-11.923664,3.0687022,-7.29771,10
585,0.11846924,0.018493652,0.020324707,-8.610687,0.8854962,-5.4961834,10
586,0.11773682,0.019897461,0.020446777,-1.8854961,-1.167939,-4.8396945,10
587,0.11828613,0.019042969,0.022949219,0.67175573,-0.259542,-4.6488547,10
588,0.11804199,0.019104004,0.023803711,8.954199,-1.5419847,-2.7709923,10
589,0.116882324,0.016662598,0.025512695,12.267176,-1.7099236,-4.6183205,10
590,0.115356445,0.014770508,0.024658203,10.610687,-0.648855,-5.9923663,10
591,0.115600586,0.013305664,0.022827148,5.0458016,1.3816794,-4.480916,10
592,0.11663818,0.013671875,0.023742676,-4.0305343,0.648855,-4.6106873,10
593,0.1171875,0.015197754,0.0234375,-6.6946564,1.1832061,-5.4580154,10
594,0.11810303,0.016418457,0.021972656,-8.045801,0.259542,-6.10687,10
595,0.115600586,0.018371582,0.02130127,-6.961832,0.8244275,-6.671756,10
596,0.117248535,0.018371582,0.021850586,-1.6641221,0.8396947,-3.8625953,10
597,0.11566162,0.018676758,0.022521973,3.793893,-0.022900764,-4.5496182,10
598,0.1161499,0.017456055,0.024475098,6.7938933,0.46564886,-4.2519083,10
599,0.11627197,0.01763916,0.023498535,6.519084,0.97709924,-3.9923663,10
600,0.117004395,0.016479492,0.022155762,6.412214,0.73282444,-4.885496,10
601,0.115600586,0.014892578,0.02166748,7.0458016,0.9541985,-4.5343513,10
602,0.11651611,0.013000488,0.021850586,3.0152671,1.908397,-5.9389315,10
603,0.11895752,0.013916016,0.02142334,-1.7099236,3.0687022,-3.5038168,10
604,0.1182251,0.01586914,0.022155762,-4.9541984,-0.5496183,-5.8320613,10
605,0.12609863,0.020751953,-0.0032348633,-4.7175574,0.57251906,0.84732825,10
606,0.11541748,0.01751709,0.022033691,0.870229,0.9312977,-6.8320613,10
607,0.11779785,0.016845703,0.021911621,0.8091603,0.46564886,-5.6183205,10
608,0.115478516,0.016784668,0.02355957,2.70229,-1.29771,-5.59542,10
609,0.117004395,0.01550293,0.021911621,1.5877863,0.28244275,-3.8931298,10
610,0.117614746,0.015686035,0.022521973,-1.0458015,1.7328244,-5.1603055,10
611,0.118896484,0.016174316,0.022583008,-2.3435113,-0.045801528,-5.8625956,10
612,0.11846924,0.016357422,0.020141602,-3.0458016,0.06870229,-5.7709923,10
613,0.11730957,0.015991211,0.019226074,-0.4427481,-0.03816794,-7.7175574,10
614,0.12145996,0.018554688,0.016784668,-3.3816793,1.7175573,-4.0534353,10
615,0.11804199,0.018432617,0.020324707,0.45801526,0.45801526,-3.8396947,10
616,0.11773682,0.017211914,0.023803711,1.6412214,1.0076336,-4.8320613,10
617,0.11773682,0.01739502,0.024047852,4.8778625,0.3129771,-2.335878,10
618,0.11785889,0.016296387,0.022583008,5.328244,0.5954198,-4.6030536,10
619,0.1182251,0.017333984,0.022888184,4.076336,1.2366412,-6.0839696,10
620,0.11767578,0.015319824,0.022277832,3.5496182,2.2824428,-5.7557254,10
621,0.11907959,0.016296387,0.021728516,-1.0763359,2.3740458,-5.1603055,10
622,0.11981201,0.015930176,0.021362305,-2.3816793,2.534351,-6.2519083,10
623,0.12365723,0.01727295,0.019897461,-2.4198472,2.9389312,-4.625954,10
624,0.12054443,0.017333984,0.021057129,-0.061068702,0.86259544,-7.3053436,10
625,0.12017822,0.016723633,0.021118164,2.9847329,1.1832061,-3.7251909,10
626,0.11981201,0.016845703,0.020874023,5.328244,0.28244275,-5.587786,10
627,0.120666504,0.015991211,0.021972656,5.671756,-0.5038168,-3.351145,10
628,0.120910645,0.014953613,0.022644043,6.740458,1.3053435,-1.259542,10
629,0.122680664,0.014770508,0.02368164,2.7557251,0.78625953,-4.587786,10
630,0.123046875,0.015625,0.022766113,0.5038168,1.4732825,-4.59542,10
631,0.12188721,0.015014648,0.023254395,-1.29771,-0.84732825,-5.3435116,10
632,0.12445068,0.016845703,0.018859863,-3.9694657,0.9312977,-6.0152674,10
633,0.12225342,0.01550293,0.020263672,-3.7328243,0.86259544,-6.6183205,10
634,0.12463379,0.017211914,0.021606445,-3.2442749,0.55725193,-4.0458016,10
635,0.125,0.0178833,0.02142334,-1.3129771,0.8854962,-5.2137403,10
636,0.1237793,0.016723633,0.021911621,1.5267175,1.4503816,-2.9160306,10
637,0.122680664,0.018249512,0.021057129,1.3053435,0.7251908,-5.931298,10
638,0.12219238,0.017822266,0.022949219,2.8091602,0.3053435,-4.6870227,10
639,0.12359619,0.01727295,0.022644043,4.10687,1.167939,-3.6335878,10
640,0.12286377,0.016540527,0.022094727,4.8396945,0.41984734,-3.2671757,10
641,0.12567139,0.016418457,0.023010254,1.9160305,0.7480916,-5.0076337,10
642,0.125,0.016174316,0.025024414,3.259542,0.5648855,-5.4732823,10
643,0.12512207,0.015563965,0.021911621,0.52671754,1.4351145,-4.0152674,10
644,0.1262207,0.015686035,0.024230957,-0.7251908,3.8396947,-4.625954,10
645,0.12646484,0.0146484375,0.021484375,-2.4885497,1.8473282,-7.9923663,10
646,0.12701416,0.016540527,0.02355957,-2.7633588,1.29771,-4.4580154,10
647,0.12677002,0.016540527,0.023376465,-0.14503817,1.3587786,-6.9694657,10
648,0.12689209,0.016052246,0.023620605,0.22137405,0.7633588,-1.1221374,10
649,0.12658691,0.016906738,0.024108887,0.96183205,-0.96183205,-4.6870227,10
650,0.12530518,0.015991211,0.02520752,3.4732823,-0.16030534,-5.366412,10
651,0.1262207,0.015625,0.026062012,4.0229006,-0.35877863,-6.664122,10
652,0.13476562,0.0178833,-0.0025024414,1.0152671,3.1603053,1.7099236,10
653,0.12762451,0.01361084,0.02508545,-0.58778626,0.9236641,-5.7480917,10
654,0.12762451,0.0154418945,0.023986816,-0.54198474,0.08396947,-5.4351144,10
655,0.12878418,0.015258789,0.025024414,-0.55725193,1.6717557,-5.6564884,10
656,0.12902832,0.014831543,0.024169922,-0.16030534,0.9465649,-6.3969464,10
657,0.12878418,0.015014648,0.025146484,-1.9694656,2.0152671,-6.1221375,10
658,0.1296997,0.016540527,0.02355957,-1.389313,1.1984733,-4.7709923,10
659,0.12823486,0.016113281,0.025024414,0.16030534,0.45038167,-5.328244,10
660,0.13018799,0.017456055,0.022766113,-1.5801526,1.1908396,-4.9923663,10
661,0.12805176,0.016906738,0.023376465,0.091603056,0.35877863,-5.4351144,10
662,0.13024902,0.016296387,0.022583008,0.10687023,0.14503817,-4.2290077,10
663,0.12963867,0.017944336,0.024169922,0.35114503,0.65648854,-3.5038168,10
664,0.12756348,0.016113281,0.024169922,5.0458016,-1.6412214,-4.1221375,10
665,0.12731934,0.016479492,0.024353027,5.5648856,-0.870229,-5.0152674,10
666,0.12664795,0.01550293,0.024108887,6.6106873,0.22137405,-3.5419848,10
667,0.12860107,0.014831543,0.025817871,4.1679387,0.47328246,-3.961832,10
668,0.12890625,0.015136719,0.026855469,5,-0.71755725,-5.0458016,10
669,0.12994385,0.014526367,0.02520752,1.2671756,0.46564886,-6.9770994,10
670,0.13696289,0.018188477,-6.1035156E-05,-1.778626,0.8091603,-0.32061067,10
671,0.12738037,0.0146484375,0.0234375,-0.79389316,1.7862595,-6.8320613,10
672,0.12945557,0.016235352,0.022338867,-3.1908398,1.5114504,-4.8320613,10
673,0.12841797,0.016601562,0.022949219,0.33587787,0.35877863,-3.6259542,10
674,0.12774658,0.016418457,0.02319336,0.77099234,-0.061068702,-5.7633586,10
675,0.12799072,0.017822266,0.023742676,4.4580154,-0.53435117,-5.5343513,10
676,0.12634277,0.015197754,0.023925781,7.557252,-0.83206105,-4.8778625,10
677,0.12731934,0.015075684,0.025024414,6.4274807,0.030534351,-4.70229,10
678,0.12670898,0.015136719,0.025024414,7.412214,0.48091602,-6.7633586,10
679,0.13256836,0.015319824,0.037841797,1.3664122,3.0152671,-1.6793894,10
680,0.12805176,0.01361084,0.022766113,-1.0534351,1.167939,-5.374046,10
681,0.12878418,0.014770508,0.024353027,-3.3969467,3.1450381,-6.442748,10
682,0.12902832,0.01550293,0.022827148,-5.4961834,2.312977,-6.587786,10
683,0.12872314,0.0154418945,0.022766113,-2.9389312,1.4274809,-5.442748,10
684,0.12774658,0.015930176,0.023620605,-1.9770992,1.8167939,-4.587786,10
685,0.1282959,0.016357422,0.024230957,0.122137405,-1.2824427,-6.9160304,10
686,0.12652588,0.016357422,0.024780273,4.740458,-1.4656489,-6.366412,10
687,0.12762451,0.015075684,0.02532959,4.038168,0.22900763,-6.3511453,10
688,0.12854004,0.017456055,0.018371582,6.4885497,0.4351145,-6.10687,10
689,0.12780762,0.014221191,0.024414062,2.6259542,-0.19847329,-4.038168,10
690,0.12768555,0.013549805,0.024475098,0.10687023,1.038168,-7.480916,10
691,0.12792969,0.014831543,0.024047852,-4.3587785,3.0076337,-6.3435116,10
692,0.12835693,0.014709473,0.023498535,-4.2900763,3.091603,-5.671756,10
693,0.1281128,0.016052246,0.023376465,-3.259542,0.60305345,-6.633588,10
694,0.12884521,0.016479492,0.02319336,-2.8931298,0.8396947,-5.1603055,10
695,0.12756348,0.016784668,0.023803711,-0.90076333,-0.053435113,-5.442748,10
696,0.12719727,0.016235352,0.024780273,-0.90839696,-0.18320611,-5.2442746,10
697,0.12823486,0.016113281,0.024414062,0.8015267,-0.8549618,-6.89313,10
698,0.12731934,0.016540527,0.023620605,0.90076333,0.6793893,-4.7480917,10
699,0.12670898,0.015014648,0.024597168,-0.89312977,-0.48091602,-8.396947,10
700,0.12658691,0.016479492,0.024719238,-2.9389312,-1.4656489,-5.7709923,10
701,0.12609863,0.016479492,0.024719238,-3.8091602,0.610687,-5.70229,10
702,0.12750244,0.015808105,0.024475098,-2.3053436,0.66412216,-6.2900763,10
703,0.12713623,0.015686035,0.025024414,-2.8015268,-0.15267175,-7.1984735,10
704,0.12628174,0.017211914,0.024719238,-1.3969465,0.9465649,-7.3435116,10
705,0.12768555,0.017211914,0.023376465,-1.740458,-0.6183206,-8.732824,10
706,0.1272583,0.017700195,0.024597168,-0.45038167,0.2977099,-8.083969,10
707,0.12591553,0.016479492,0.025817871,-1.4580153,-0.4274809,-7.4580154,10
708,0.12713623,0.016540527,0.024353027,-3.183206,0.07633588,-6.0229006,10
709,0.1262207,0.016113281,0.026000977,-4.0229006,-1.3587786,-8.129771,10
710,0.12652588,0.016479492,0.023620605,-2.59542,0.114503816,-8.21374,10
711,0.12512207,0.017578125,0.025268555,-1.480916,0.091603056,-6.0229006,10
712,0.12628174,0.018127441,0.025634766,0.77099234,0.53435117,-6.0229006,10
713,0.12524414,0.018249512,0.026000977,1.2137405,-1.29771,-5.7709923,10
714,0.1251831,0.017944336,0.026916504,2.0992367,0.35877863,-4.8320613,10
715,0.12591553,0.017089844,0.026367188,2.5648854,0.18320611,-4.9083967,10
716,0.12426758,0.016418457,0.026428223,2.9847329,0.08396947,-7.6946564,10
717,0.12567139,0.016235352,0.026367188,1.7938931,0.53435117,-5.5496182,10
718,0.12530518,0.016357422,0.026245117,-0.15267175,-0.4427481,-5.7175574,10
719,0.12554932,0.016052246,0.026794434,0.14503817,3.3206108,-7.70229,10
720,0.12536621,0.017333984,0.024902344,0.122137405,-0.007633588,-4.6488547,10
721,0.124694824,0.016357422,0.024291992,1.9923664,0.48854962,-8.862596,10
722,0.12512207,0.016479492,0.02532959,0.90076333,0.67175573,-4.2290077,10
723,0.12384033,0.016967773,0.027282715,2.1984732,-0.2519084,-6.152672,10
724,0.1239624,0.01586914,0.027038574,2.572519,-0.16793893,-5.80916,10
725,0.12286377,0.015319824,0.026855469,2.687023,-0.79389316,-8.312977,10
726,0.12438965,0.016052246,0.02520752,-1.0534351,1.740458,-6.4885497,10
727,0.12335205,0.016174316,0.025390625,-3.2900763,-0.22137405,-6.19084,10
728,0.12420654,0.016662598,0.024902344,-2.6946564,0.39694658,-5.8396945,10
729,0.12365723,0.017211914,0.02508545,-2.167939,0.9236641,-7.7251906,10
730,0.12335205,0.01739502,0.024719238,-2.3969467,0.48091602,-7.0305343,10
731,0.122680664,0.018127441,0.024291992,-3.0992367,2.4961832,-8.145039,10
732,0.12225342,0.01727295,0.024353027,-0.48091602,1.5572519,-5.8625956,10
733,0.12310791,0.017456055,0.025756836,-1.4351145,2.3206108,-5.519084,10
734,0.12390137,0.018005371,0.02532959,0.03816794,-0.08396947,-5.412214,10
735,0.1227417,0.017822266,0.024719238,0.27480915,0.091603056,-5.4351144,10
736,0.122558594,0.01739502,0.024963379,-0.48091602,1.5801526,-9.015267,10
737,0.12207031,0.017211914,0.022583008,-2.3435113,0.57251906,-6.587786,10
738,0.121520996,0.018859863,0.024414062,0.099236645,-0.64122134,-4.221374,10
739,0.1204834,0.0178833,0.024291992,1.3053435,-0.36641222,-7.1221375,10
740,0.12133789,0.017944336,0.024353027,2.6946564,1.0305344,-6.5496182,10
741,0.121276855,0.017211914,0.025268555,0.045801528,0.9694657,-3.2442749,10
742,0.12176514,0.016845703,0.025878906,-1.6030535,1.0534351,-7.0992365,10
743,0.1217041,0.017150879,0.02508545,-2.3587787,1.7862595,-5.4580154,10
744,0.12939453,0.020324707,0.0045776367,-4.4961834,2.038168,-1.0305344,10
745,0.12164307,0.017456055,0.024047852,-1.9694656,1.7938931,-4.5801525,10
746,0.12017822,0.017089844,0.025146484,-2.1145039,0.97709924,-6.366412,10
747,0.11968994,0.01739502,0.023803711,-1.648855,0.55725193,-6.6870227,10
748,0.120788574,0.017700195,0.025634766,-2.648855,0.8015267,-6.8396945,10
749,0.11956787,0.018615723,0.0256958,-0.60305345,2.6793892,-6.480916,10
750,0.118896484,0.016906738,0.027282715,-0.27480915,2.40458,-5.519084,10
751,0.12042236,0.017028809,0.026428223,2.6030533,1.091603,-3.870229,10
752,0.12322998,0.016479492,0.033081055,-0.099236645,3.8931298,-3.9923663,10
753,0.1217041,0.017333984,0.025024414,-0.8396947,4.1755724,-6.6870227,10
754,0.12207031,0.01739502,0.026733398,-4.923664,2.9007633,-8.297709,10
755,0.120666504,0.018188477,0.026306152,-3.1755726,-0.17557251,-6.9923663,10
756,0.119506836,0.017211914,0.02557373,-2.7328243,-1.1145039,-8.480916,10
757,0.12060547,0.016967773,0.025878906,-2.8549619,-0.90839696,-6.29771,10
758,0.119506836,0.01776123,0.026489258,1.8244275,0.55725193,-6.0610685,10
759,0.12030029,0.017333984,0.026489258,1.1526718,1.4045801,-5.7938933,10
760,0.11773682,0.016418457,0.026489258,-2.427481,3.1603053,-7.412214,10
761,0.12036133,0.019165039,0.023986816,-0.19847329,-0.45038167,-4.3129773,10
762,0.1194458,0.017944336,0.024597168,3.961832,0.41221374,-4.7099237,10
763,0.117614746,0.01776123,0.024658203,3.2366412,0.3816794,-3.5419848,10
764,0.12030029,0.019042969,0.025512695,3.9770992,1.259542,-3.2366412,10
765,0.11779785,0.016174316,0.026306152,7.7633586,1.0687023,-3.70229,10
766,0.11657715,0.016174316,0.026611328,18.343512,-1.259542,-1.0839695,10
767,0.12011719,0.015380859,0.029907227,18.854961,-0.8854962,-0.99236643,10
768,0.117614746,0.018676758,0.026184082,-3.7328243,2.908397,2.2748091,10
769,0.118774414,0.015319824,0.028442383,5.9465647,2.1603053,-6.2061067,10
770,0.11968994,0.017028809,0.023071289,2.572519,3.648855,-0.3053435,10
771,0.118896484,0.016540527,0.025390625,-1.7480916,2.8931298,-5.3816795,10
772,0.11694336,0.015991211,0.026123047,6.7709923,1.6183206,-3.9389312,10
773,0.11651611,0.013305664,0.027954102,1.3587786,-0.5496183,-5.4961834,10
774,0.1182251,0.0178833,0.025512695,-5.9083967,2.038168,-0.79389316,10
775,0.11791992,0.016906738,0.027893066,-0.122137405,-0.08396947,-6.038168,10
776,0.116760254,0.016174316,0.025512695,-3.6717558,0.29007635,-2.6946564,10
777,0.11669922,0.016601562,0.026916504,-3.2442749,0.7557252,-5.2824426,10
778,0.11645508,0.017028809,0.026306152,-2.427481,1.351145,-5.931298,10
779,0.11682129,0.01739502,0.026611328,-1.7480916,-0.4351145,-6.557252,10
780,0.1171875,0.017211914,0.026733398,1.6793894,1.3206106,-5.3587785,10
781,0.117126465,0.015625,0.027648926,3.0839694,1.8396946,-6.8702292,10
782,0.116760254,0.015075684,0.027954102,4.3511453,0.60305345,-5.412214,10
783,0.11608887,0.014099121,0.02734375,3.664122,0.8854962,-4.2748094,10
784,0.11651611,0.0138549805,0.028381348,3.9389312,0.8244275,-4.2290077,10
785,0.117248535,0.014587402,0.027893066,0.519084,1.5419847,-5.7099237,10
786,0.11639404,0.014587402,0.027832031,1.1374046,1.2824427,-4.4503818,10
787,0.11639404,0.015258789,0.028198242,-1.7099236,0.6183206,-4.6946564,10
788,0.11730957,0.015991211,0.026123047,-0.7557252,1.1603054,-6.7175574,10
789,0.11682129,0.015319824,0.025939941,0.15267175,0.33587787,-6.328244,10
790,0.11743164,0.015380859,0.026489258,1.4351145,0.65648854,-7.2137403,10
791,0.11669922,0.014038086,0.026672363,0.3129771,1.1984733,-7.7633586,10
792,0.11682129,0.013122559,0.028137207,-0.007633588,0.5496183,-5.1221375,10
793,0.11633301,0.014343262,0.027954102,-1.1603054,-0.53435117,-6.6870227,10
794,0.115722656,0.014892578,0.028930664,-4.114504,2.40458,-6.2900763,10
795,0.11480713,0.016174316,0.028015137,-3.221374,0.7251908,-7.1679387,10
796,0.11450195,0.015625,0.026916504,-3.7251909,1.2748091,-5.816794,10
797,0.115478516,0.016357422,0.027404785,-1.519084,2.2824428,-6.2519083,10
798,0.11407471,0.016540527,0.027038574,-0.08396947,2.5877862,-6.1374044,10
799,0.11578369,0.015136719,0.029663086,3.0305343,3.4732823,-4.6030536,10
800,0.1161499,0.0134887695,0.027404785,-4.480916,4.816794,-7.7709923,10
801,0.11584473,0.016113281,0.026733398,-2.1755726,5.89313,-1.480916,10
802,0.1149292,0.019592285,0.029663086,6.1297708,2.8625953,-5.29771,10
803,0.112854004,0.013671875,0.03100586,11.763359,5.3587785,-5.7175574,10
804,0.11584473,0.014831543,0.029846191,2.0076337,9.893129,0.64122134,10
805,0.11730957,0.0134887695,0.030273438,1.778626,8.534351,-5.366412,10
806,0.11706543,0.013305664,0.030944824,-0.84732825,8.4198475,-3.5038168,10
807,0.119628906,0.0146484375,0.029968262,3.3053436,13.358779,-2.2748091,10
808,0.12786865,0.016662598,0.009887695,1.4580153,12.702291,1.7709924,10
809,0.12017822,0.013305664,0.030090332,5.366412,7.1984735,-3.3587787,10
810,0.11785889,0.011657715,0.027954102,10.267176,7.3816795,-6.480916,10
811,0.11553955,0.011047363,0.029785156,8.694656,11.374045,-2.427481,10
812,0.11608887,0.012573242,0.030639648,8.870229,9.358779,-0.519084,10
813,0.11566162,0.0115356445,0.03186035,10.38168,2.9541984,0.08396947,10
814,0.11621094,0.012145996,0.032043457,5.6946564,4.8625956,0.3129771,10
815,0.11804199,0.012329102,0.032470703,2.3740458,6.442748,-2.8778627,10
816,0.11987305,0.013000488,0.034118652,-1.3435115,3.519084,-2.6335878,10
817,0.12133789,0.015808105,0.031433105,-4.9770994,2.3435113,-3.3969467,10
818,0.118896484,0.015563965,0.036376953,-4.9770994,0.1908397,-7.9847326,10
819,0.121154785,0.014770508,0.03564453,-1.6793894,-0.6259542,-8.305344,10
820,0.11920166,0.0134887695,0.036376953,-5.8320613,-1.8625954,-8.679389,10
821,0.120910645,0.01361084,0.037231445,-7.9923663,-3.2824428,-6.5038166,10
822,0.12036133,0.014526367,0.037597656,-9.564885,-3.3969467,-11.40458,10
823,0.11987305,0.016357422,0.039855957,-8.206107,-4.5419846,-10.290076,10
824,0.11883545,0.016601562,0.0390625,-9.366412,-4.4351144,-9.442748,10
825,0.12084961,0.0146484375,0.03741455,-9.122137,-5.183206,-5.854962,10
826,0.12036133,0.017211914,0.042907715,-9.770992,-3.9541984,-4.335878,10
827,0.117492676,0.014892578,0.03338623,-10.603053,-2.0229008,-6.5114503,10
828,0.11706543,0.013793945,0.03466797,-14.832061,-2.778626,-7.335878,10
829,0.115112305,0.014953613,0.031677246,-19.877863,-3.534351,-6.9389315,10
830,0.11651611,0.016235352,0.031982422,-22.015266,-4.29771,-4.587786,10
831,0.117614746,0.016113281,0.031433105,-20.435114,-5.0152674,-3.740458,10
832,0.11871338,0.016174316,0.034057617,-19.496183,-5.2366414,-1.2900764,10
833,0.11981201,0.0154418945,0.030822754,-18.343512,-6.9389315,0.053435113,10
834,0.12060547,0.0146484375,0.030883789,-21.206106,-8.480916,-2.0229008,10
835,0.121032715,0.014953613,0.030578613,-22.29771,-7.5038166,-2.0839694,10
836,0.120666504,0.013183594,0.028137207,-24.160305,-8.839695,-0.45038167,10
837,0.12145996,0.014282227,0.03363037,-20.824427,-9.290076,0.71755725,10
838,0.12408447,0.014282227,0.029785156,-17.396946,-6.7938933,3.0458016,10
839,0.123291016,0.0134887695,0.031066895,-14.59542,-5.6106873,1.519084,10
840,0.12414551,0.012939453,0.032104492,-14.511451,-6.1297708,5.412214,10
841,0.11920166,0.012878418,0.02923584,-12.328244,-6.7862597,4.2671757,10
842,0.116760254,0.012084961,0.027770996,-10.717557,-5.4503818,3.9923663,10
843,0.11816406,0.012756348,0.028015137,-10.412213,-6.7251906,1.7557251,10
844,0.122558594,0.012390137,0.027648926,-5.412214,-6.80916,-0.9694657,0
845,0.12475586,0.010070801,0.028930664,-5.6793895,-7.3053436,-4.2671757,0
846,0.12487793,0.008178711,0.027709961,-3.9694657,-10.603053,-8.656488,0
847,0.123535156,0.0067749023,0.026855469,-5.2671757,-9.282443,-18.610687,0
848,0.120666504,0.0052490234,0.025146484,-7.2137403,-9.38168,-21.221375,0
849,0.11505127,0.0040283203,0.022644043,-13.068703,-8.19084,-24.687023,0
850,0.113708496,0.005554199,0.018127441,-18.25191,-5.7862597,-20.961832,0
851,0.113586426,0.005859375,0.016357422,-15.396947,-5.038168,-17.534351,0
852,0.111694336,0.008361816,0.01727295,-14.816793,-4.4503818,-17.847328,0
853,0.11254883,0.00982666,0.018676758,-15.015267,-8.763359,-6.328244,0
854,0.11193848,0.0087890625,0.017211914,-11.488549,-4.6030536,-0.41984734,0
855,0.11279297,0.009094238,0.015991211,-12.160305,-4.335878,3.351145,0
856,0.11138916,0.008911133,0.015136719,-10.763359,-6.671756,6.152672,0
857,0.11193848,0.009216309,0.014221191,-7.1603055,-3.0687022,7.3435116,0
858,0.11437988,0.010131836,0.016540527,-4.816794,-0.36641222,10.015267,0
859,0.11743164,0.009887695,0.016418457,-0.24427481,-0.46564886,9,0
860,0.118652344,0.00793457,0.014953613,-0.35877863,-0.5648855,10.80916,0
861,0.1182251,0.0078125,0.016357422,-4.9847326,0.13740458,12.442748,0
862,0.11541748,0.007507324,0.016418457,-9.946565,-0.90839696,9.21374,0
863,0.11437988,0.007446289,0.015258789,-18.366413,1.8931298,7.7862597,0
864,0.111572266,0.008300781,0.014160156,-23.51145,2.1450381,6,0
865,0.108947754,0.0076904297,0.013183594,-28.068703,1.3206106,2.3282442,0
866,0.10681152,0.010803223,0.012634277,-28.694656,1.908397,-1.4198474,0
867,0.1060791,0.010559082,0.00970459,-24.389313,3.8091602,-3.389313,0
868,0.10852051,0.009765625,0.010803223,-21,3.793893,-3.9541984,0
869,0.111572266,0.0064086914,0.009155273,-16.87023,4.2748094,-5.1755724,0
870,0.11529541,0.003540039,0.008728027,-11.793893,4.1679387,-0.67175573,0
871,0.119262695,0.0029296875,0.010864258,-19.473282,6.4580154,-3.6946564,0
872,0.12475586,0.01159668,0.008483887,-11.282443,0.648855,7.3511453,0
873,0.1305542,0.0057373047,-0.011108398,15.274809,0.6335878,10.847328,0
874,0.12207031,-0.010620117,0.0064086914,22.496183,-1.6030535,6.633588,0
875,0.12365723,-0.009887695,0.007080078,-23.389313,3.9694657,-13.045801,0
876,0.12243652,-0.007446289,0.004272461,-44.610687,4.5801525,-17.564886,0
877,0.13842773,-0.005004883,0.0061035156,-65.29008,5.847328,-23.351145,0
878,0.14178467,-0.0040283203,0.007751465,-94.908394,8.358779,-21.931297,0
879,0.13861084,0.010559082,0.012390137,-107.16794,-3.3206108,-22.175573,0
880,0.1227417,0.014099121,0.014953613,-85.56489,-13.137404,-20.030535,0
881,0.11413574,0.016967773,0.015625,-46.14504,-16.19084,-24.664122,0
882,0.11236572,0.012634277,0.0115356445,-23.694656,-11.351145,-24.19084,0
883,0.11004639,0.0095825195,0.020690918,-18.954199,-16.229008,-30.068703,0
884,0.109558105,0.0067749023,0.023986816,-17.755726,-21.312977,-35.08397,0
885,0.1149292,0.009460449,0.025817871,-20.877863,-17.099237,-29.030535,0
886,0.1184082,0.01373291,0.030151367,-13.129771,-17.76336,-25.32061,0
887,0.12420654,0.010864258,0.033996582,-7.778626,-26.587786,-22.57252,0
888,0.12945557,0.010681152,0.035339355,-14.015267,-25.183207,-20.549618,0
889,0.12908936,0.0095825195,0.03656006,-17.259542,-18.343512,-19.229008,0
890,0.12322998,0.010131836,0.032043457,-21.694656,-16.541985,-25.977098,0
891,0.11273193,0.010925293,0.025390625,-28.91603,-20.068703,-32.954197,0
892,0.101745605,0.009460449,0.018127441,-30.152672,-12.61832,-37.93893,0
893,0.10107422,0.009155273,0.014953613,-25.274809,1,-33.53435,0
894,0.10308838,0.011657715,0.012817383,-14.198473,3.167939,-24.328245,0
895,0.103515625,0.011230469,0.012145996,-12.526717,1.6870229,-21.67939,0
896,0.10168457,0.011962891,0.010253906,-16.259542,3.1221373,-3.2900763,0
897,0.10205078,0.01373291,0.0045776367,-12.160305,11.076336,9.198473,0
898,0.10290527,0.010803223,0.009399414,-5.068702,7.0458016,20.603054,0
899,0.105407715,0.009887695,0.01159668,-8.290076,7.59542,31.740458,0
900,0.11694336,0.009765625,0.009460449,-12.541985,14.793893,44.137405,0
901,0.12915039,0.009399414,0.01739502,-12.465649,22.267176,55.458015,0
902,0.13964844,0.008850098,0.0134887695,-19.76336,20.648855,58.48855,0
903,0.1430664,0.008605957,0.013183594,-21.213741,11.687023,55.229008,0
904,0.13806152,0.0026245117,0.016723633,-32.564884,6.0458016,42.648853,0
905,0.15783691,-0.0018310547,0.035217285,-59.709923,15.229008,34.610687,0
906,0.16882324,0.004211426,0.038635254,-86.98473,22.832062,32.251907,0
907,0.16827393,0.006958008,0.032226562,-104.52672,12.083969,21.343512,0
908,0.12322998,0.010620117,0.006958008,-121.69466,-12.717557,-3.6335878,0
909,0.08642578,0.013122559,0.00592041,-118.15267,-23.259542,-24.42748,0
910,0.08026123,0.0146484375,0.012634277,-103.0458,-12.366412,-38.931297,0
911,0.09057617,0.020141602,0.01928711,-71.8855,-2.0839694,-42.40458,0
912,0.10821533,0.019165039,0.02545166,-34.251907,-10.694656,-42.053436,0
913,0.12615967,0.014099121,0.024536133,-11.9007635,-18.74809,-38.038166,0
914,0.12445068,0.008117676,0.020751953,-8.053435,-24.664122,-38.923664,0
915,0.11395264,0.009216309,0.01751709,-14.083969,-22.770992,-32.648853,0
916,0.101257324,0.0076904297,0.0134887695,-13.282443,-22.74809,-27.709923,0
917,0.09020996,0.010009766,0.0064697266,-8.7786255,-16.259542,-26.740458,0
918,0.09088135,0.011169434,0.0065307617,0.38931298,-3.1984732,-17.38168,0
919,0.09698486,0.01159668,0.007446289,13.564885,-0.03816794,-7.9389315,0
920,0.10028076,0.010620117,0.008361816,17.496183,-0.122137405,0.16793893,0
921,0.10064697,0.012023926,0.007080078,23.06107,0.6259542,5.0229006,0
922,0.107299805,0.010498047,0.0059814453,34.099236,7.931298,15.030535,0
923,0.11541748,0.007446289,0.0068359375,37.603054,9.015267,22.641222,0
924,0.124938965,0.006591797,0.007507324,35.47328,13.511451,27.213741,0
925,0.13085938,0.0049438477,0.007446289,28.229008,14.290076,27.992367,0
926,0.12640381,0.006164551,0.008911133,20.23664,15,26.198473,0
927,0.1305542,0.0087890625,0.010437012,13.801527,19,18.564886,0
928,0.15478516,0.008056641,0.016235352,21.145039,24.335878,23.137405,0
929,0.15460205,0.012573242,0.019042969,22.12977,21.221375,18.67939,0
930,0.1461792,0.015197754,0.01574707,18.122137,2.4732823,18.366413,0
931,0.10900879,0.020568848,0.008728027,28.305344,-14.526717,2.3435113,0
932,0.10467529,0.020019531,0.015075684,58.35878,-4.19084,-4.2748094,0
933,0.11706543,0.015014648,0.025146484,76.30534,3.2824428,-6.4885497,0
934,0.12677002,0.014892578,0.030517578,74.175575,-9.030535,-6.442748,0
935,0.12640381,0.014892578,0.029907227,67.38931,-19.93893,-8.40458,0
936,0.12200928,0.0138549805,0.028381348,63.694656,-21.374046,-21.152672,0
937,0.11755371,0.0068969727,0.023071289,62.648853,-12.267176,-32.91603,0
938,0.122802734,0.008422852,0.0020141602,57.587788,-15.412213,-38.83206,0
939,0.109069824,0.002746582,0.016418457,44.450382,-20.603054,-54.587788,0
940,0.105895996,0.006164551,0.014831543,32.34351,-19.312977,-54.664124,0
941,0.10333252,0.007873535,0.016784668,33.030533,-17.885496,-54.366413,0
942,0.107421875,0.009399414,0.018005371,36.954197,-20.610687,-54.282444,0
943,0.11077881,0.0073242188,0.015197754,42.84733,-24.274809,-54.709923,0
944,0.11340332,0.0016479492,0.011962891,36.50382,-26.480917,-49.603054,0
945,0.116882324,-0.0014038086,0.0178833,23.740458,-29.862595,-38.068703,0
946,0.12524414,-0.004211426,0.022155762,3.2137403,-27.099237,-25.259542,0
947,0.12731934,-0.0056762695,0.0211792,-24.778625,-19.603054,-15.954199,0
948,0.117370605,-0.0014038086,0.02166748,-46.87786,-13.816793,-16.534351,0
949,0.1484375,-0.0006103516,0.03338623,-57.007633,7.4580154,0.38931298,0
950,0.1515503,-0.004272461,0.033691406,-94.43511,24.259542,8.320611,0
951,0.14630127,0.0076904297,0.030151367,-125.31298,18.801527,21.404581,0
952,0.1161499,0.020874023,0.009887695,-127.12977,3.8091602,15.893129,0
953,0.09124756,0.024291992,0.011352539,-93.60305,5.2748094,11.496183,0
954,0.09954834,0.017028809,0.02355957,-56.305344,20.74809,1.8015267,0
955,0.10455322,0.023071289,0.0234375,-11.793893,22.10687,0.45801526,0
956,0.11236572,0.019348145,0.020690918,12.122137,12.053435,-11.793893,0
957,0.11651611,0.00970459,0.018798828,19.625954,11.389313,-11.244275,0
958,0.120666504,0.005065918,0.018005371,16.977098,22.633587,-15.389313,0
959,0.117614746,0.0038452148,0.016479492,-1.4351145,17.74809,-10.106871,0
960,0.10699463,0.0095825195,0.009094238,-16.25191,10.442748,-0.9312977,0
961,0.09625244,0.0079956055,0.0004272461,-23.76336,12.320611,8.702291,0
962,0.096069336,0.015686035,-0.0028686523,-27.671755,22.648855,18.030535,0
963,0.09729004,0.021850586,0.0013427734,-1.4885496,21,29.57252,0
964,0.10058594,0.015625,-0.002380371,16.221375,14.198473,33.610687,0
965,0.10498047,0.018737793,-0.0026245117,26.045801,12.488549,49.450382,0
966,0.115112305,0.013305664,0.007019043,35.694656,15.045801,53.40458,0
967,0.12878418,0.009399414,0.010375977,37.12214,15.633588,58.83206,0
968,0.13708496,0.005859375,0.0107421875,29.458015,11.114504,57.49618,0
969,0.14050293,0.0034179688,0.014282227,15.908397,7.0152674,49.59542,0
970,0.16345215,0.002380371,0.025817871,-4.6030536,13.648855,37.335876,0
971,0.17120361,-0.0017700195,0.025268555,-28.824427,14.755725,26.564886,0
972,0.15570068,0.0048217773,0.016479492,-39.519085,-7.0076337,5.0305343,0
973,0.13446045,0.008239746,0.01940918,-41.190838,-28.458015,-15.847328,0
974,0.10839844,0.0115356445,0.023986816,-37.50382,-30.732824,-41.29771,0
975,0.1182251,0.011657715,0.032043457,-21.709923,-19.290077,-47.29771,0
976,0.11920166,0.014770508,0.026733398,-3.0458016,-16.93893,-54.610687,0
977,0.1282959,0.012512207,0.02746582,4.4580154,-25.541985,-54.74046,0
978,0.12219238,0.0126953125,0.027770996,5.7862597,-32.770992,-54.48855,0
979,0.111083984,0.009887695,0.028320312,8.312977,-31.267176,-54.70229,0
980,0.10522461,0.0099487305,0.023254395,17.992367,-22.198473,-54.32061,0
981,0.10736084,0.008422852,0.0211792,27.76336,-18.541985,-54.923664,0
982,0.10394287,0.006713867,0.020629883,24.839695,-20.42748,-54.16794,0
983,0.10247803,0.00793457,0.019165039,23.12977,-21,-54.870228,0
984,0.10247803,0.0072021484,0.018615723,34.64122,-18.114504,-54.328243,0
985,0.10498047,0.0045776367,0.019104004,41.251907,-16.80916,-54.14504,0
986,0.10626221,-0.0018310547,0.017211914,42.221375,-22.89313,-48.244274,0
987,0.10443115,-0.0072021484,0.017211914,27.374046,-23.885496,-41.82443,0
988,0.10681152,-0.010009766,0.018493652,0.022900764,-15.183207,-29.786259,0
989,0.11352539,-0.0068359375,0.022033691,-25.725191,-7.2137403,-13.541985,0
990,0.119262695,-0.0053710938,0.02722168,-51.84733,-3.3282442,-1.1145039,0
991,0.13806152,-0.0010375977,0.03869629,-73.778625,12.847328,13.992367,0
992,0.16381836,-0.0010375977,0.03894043,-78.56489,27.015266,40.427483,0
993,0.15368652,0.008239746,0.020874023,-75.259544,25.366413,49.08397,0
994,0.137146,0.0060424805,0.011779785,-72.0458,10.755725,52.79389,0
995,0.10772705,0.011230469,-0.0018310547,-59.12214,2.5267177,44.160305,0
996,0.09082031,0.012023926,0.0007324219,-30.022902,6.778626,37.52672,0
997,0.10308838,0.007385254,0.015136719,-8.671756,13.519084,23.38168,0
998,0.11584473,0.005126953,0.020446777,2.7175572,8.961832,15.885496,0
999,0.12640381,-0.0028076172,0.02142334,-4.1374044,-1.2519084,-1.0534351,0
1000,0.12487793,-0.0048828125,0.015686035,-30.503817,-4.221374,-9.732824,0
1001,0.11968994,0.0018920898,0.013244629,-48.038166,-1.8931298,-12.351145,0
1002,0.11407471,0.0032958984,0.010925293,-55.221375,0.5496183,-13.198473,0
1003,0.11517334,0.012145996,-0.015930176,-61.809162,6.6488547,0,0
1004,0.10192871,0.013671875,0.0056152344,-46.007633,9.183207,2.6793892,0
1005,0.097595215,0.014892578,0.0043945312,-27.89313,10.564885,14.717557,0
1006,0.09802246,0.016540527,0.007873535,-9.938931,12.167939,26.67939,0
1007,0.10266113,0.014770508,0.007873535,1.259542,16.89313,34.984734,0
1008,0.10571289,0.012756348,0.0040893555,8.748092,16.473282,42.46565,0
1009,0.111572266,0.014526367,0.0044555664,16.076336,16.564886,44.72519,0
1010,0.1239624,0.011047363,0.0067749023,21.450382,21.557251,45.564884,0
1011,0.13616943,0.010253906,0.008972168,23.442749,19.358778,41.06107,0
1012,0.14294434,0.01159668,0.012084961,18.687023,15.465649,35.045803,0
1013,0.1552124,0.011047363,0.01739502,18.267176,14.488549,25.25191,0
1014,0.15338135,0.008117676,0.014282227,21.824427,11.061069,8.847328,0
1015,0.1416626,0.006713867,0.012390137,18.229008,-1.6946565,-11.61832,0
1016,0.13580322,0.005859375,0.010925293,11.59542,-9.870229,-30.526718,0
1017,0.11999512,0.0075683594,0.010498047,13.091603,-18.25191,-46.198475,0
1018,0.1005249,0.008544922,0.012573242,10.572519,-26.954199,-54.389313,0
1019,0.11553955,0.008239746,0.020935059,17.351145,-24.198473,-54.450382,0
1020,0.120788574,0.010864258,0.020874023,29.57252,-20.984734,-54.015266,0
1021,0.13311768,0.011413574,0.02331543,34.282444,-20.450382,-54.06107,0
1022,0.13354492,0.011047363,0.029663086,40.51145,-31.23664,-50.435116,0
1023,0.13006592,0.00982666,0.029296875,50.969467,-31.977098,-45.40458,0
1024,0.12542725,0.0051879883,0.027954102,58.10687,-24.885496,-42.931297,0
1025,0.11956787,0.0048217773,0.029174805,58.70229,-23.885496,-41.67939,0
1026,0.10723877,0.0032348633,0.02557373,51.778625,-29.664122,-55.0229,0
1027,0.1003418,0.0002441406,0.022277832,41.0229,-28.93893,-54.374046,0
1028,0.09832764,0.0021362305,0.025756836,36.114502,-22.015266,-54.366413,0
1029,0.10058594,0.0016479492,0.023742676,31.671755,-18.458015,-54.366413,0
1030,0.10345459,0.0032348633,0.022155762,23.61832,-19.198473,-54.38168,0
1031,0.09906006,0.0024414062,0.020935059,17.854961,-18.435114,-52.610687,0
1032,0.101501465,0.0036010742,0.023925781,7.183206,-11.5801525,-28.25191,0
1033,0.10888672,0.004333496,0.027648926,-2.5267177,-1.3435115,-12.793893,0
1034,0.113220215,0.004211426,0.027038574,-16.57252,7.1374044,7.0229006,0
1035,0.107299805,0.006713867,0.021118164,-39.14504,10.5801525,12.251908,0
1036,0.12438965,0.008056641,0.025634766,-62.992367,28.038168,18.358778,0
1037,0.13745117,0.0119018555,0.024108887,-80.56489,40.732826,28.76336,0
1038,0.14190674,0.02557373,0.022949219,-84.31298,38.045803,34.908398,0
1039,0.14013672,0.030395508,0.014709473,-70.21374,26.396946,38.580154,0
1040,0.1303711,0.03363037,0.0057373047,-30.564886,24.480917,36.08397,0
1041,0.111450195,0.032165527,0.0003051758,1.8167939,19.442749,22.725191,0
1042,0.09881592,0.027038574,-0.0004882813,17.76336,5.3893127,9.931297,0
1043,0.09979248,0.022277832,0.0034179688,27.87023,2.7099237,-4.625954,0
1044,0.118896484,0.016967773,0.016235352,20.717558,8.137404,-10.641221,0
1045,0.12628174,0.015563965,0.020751953,-1.6946565,4.7328243,-19.656488,0
1046,0.1328125,0.018066406,0.015075684,-17.633587,-6.0305343,-29.480917,0
1047,0.13604736,0.020141602,0.010925293,-19.877863,-4.1755724,-37.251907,0
1048,0.13623047,0.022949219,0.009643555,-17.908398,2.7633588,-41.572517,0
1049,0.12176514,0.025634766,0.006713867,-12.167939,-1.2061069,-46.519085,0
1050,0.10247803,0.029907227,-0.000793457,4.0839696,-8.564885,-54.48855,0
1051,0.0927124,0.026184082,-0.004760742,34.67939,-9.564885,-44.412212,0
1052,0.09118652,0.012634277,-0.0072631836,51.328243,-4.2290077,-35.282444,0
1053,0.09326172,0.015686035,0.0017700195,45.580154,-3.9770992,-16.259542,0
1054,0.092041016,0.013549805,0.0053710938,31.793894,-6.4351144,-10.022901,0
1055,0.09564209,0.019226074,0.0052490234,5.2061067,6.2061067,3.7251909,0
1056,0.10333252,0.022338867,0.0107421875,-0.16030534,15.946565,7.8015265,0
1057,0.111450195,0.024536133,0.01184082,2.312977,14.21374,16.91603,0
1058,0.11767578,0.028930664,0.0107421875,19.419847,12.603053,27.274809,0
1059,0.119018555,0.026062012,0.008178711,41.366413,14.832061,32.87786,0
1060,0.12237549,0.022766113,0.013244629,57.72519,14.0992365,37.190838,0
1061,0.13922119,0.016052246,0.018615723,62.305344,16.244274,40.17557,0
1062,0.13562012,0.013671875,0.016845703,58.17557,14.175572,35.694656,0
1063,0.13635254,0.011657715,0.01953125,47.351147,14.152672,28.89313,0
1064,0.14202881,0.008972168,0.0211792,33.221375,13.885496,17.877863,0
1065,0.12683105,0.008605957,0.016967773,18.38168,8.351145,6.19084,0
1066,0.109191895,0.011230469,0.0126953125,12.641221,-1.2519084,-11.2213745,0
1067,0.10192871,0.013305664,0.016723633,13.145039,-1.038168,-24.519083,0
1068,0.12286377,0.013916016,0.0045166016,15.694656,8.80916,-18.259542,0
1069,0.12322998,0.01373291,0.026367188,16.099237,5.923664,-14.549619,0
1070,0.1270752,0.014038086,0.030639648,7.366412,-5.2137403,-5.442748,0
1071,0.12628174,0.016174316,0.032287598,5.4885497,-8.977099,2.6183207,0
1072,0.12878418,0.016479492,0.03302002,15.122137,0.5954198,9.198473,0
1073,0.1260376,0.014099121,0.034606934,16.08397,0.3740458,7.4580154,0
1074,0.115234375,0.0119018555,0.032104492,14.977099,-6.6870227,0.9160305,0
1075,0.10235596,0.010620117,0.026855469,16.725191,-6.1984735,-12.335877,0
1076,0.099121094,0.0087890625,0.026611328,15.847328,0.022900764,-16.74809,0
1077,0.10430908,0.009216309,0.022399902,9.763359,0.46564886,-19.801527,0
1078,0.10180664,0.009765625,0.024169922,6.6030536,-5.328244,-19.473282,0
1079,0.10235596,0.009277344,0.021484375,-0.740458,-10.847328,-17.74809,0
1080,0.10803223,0.007751465,0.022644043,-9.984733,-8.946565,-11.938931,0
1081,0.11993408,0.007751465,0.028381348,-23.656488,-11.832061,-4.9541984,0
1082,0.12567139,0.008300781,0.030761719,-40.908398,-15.435115,4.0229006,0
1083,0.12365723,0.0073242188,0.02520752,-52.50382,-18.435114,5.1679387,0
1084,0.13427734,0.007751465,0.03363037,-53.87786,-10.030535,5.7251906,0
1085,0.14349365,0.007446289,0.029418945,-58.0229,-1.519084,11.938931,0
1086,0.14331055,0.013671875,0.02355957,-59.992367,-0.32824427,10.396947,0
1087,0.13665771,0.008300781,0.020812988,-58.610687,-1.5114504,7.8702292,0
1088,0.12774658,0.0134887695,0.0126953125,-44.27481,3.7633588,5.89313,0
1089,0.11743164,0.0099487305,0.0072631836,-25.282442,3.3740458,-3.3206108,0
1090,0.10675049,0.008911133,0.005859375,-9.770992,-3.259542,-7.7480917,0
1091,0.10797119,0.0051879883,0.0064697266,1.3129771,-8.755725,-12.435115,0
1092,0.106933594,0.0026855469,0.0126953125,0.9312977,-10.862596,-13.671756,0
1093,0.10662842,-0.0001831055,0.016845703,-17.709923,-15.167939,-21.526718,0
1094,0.10638428,-0.0018920898,0.016845703,-36.435116,-21.221375,-24,0
1095,0.113708496,-0.0004272461,0.018066406,-46.908398,-13.916031,-20.969465,0
1096,0.12158203,0.0025634766,0.016967773,-54.15267,-1.0152671,-19.87023,0
1097,0.1272583,0.0034179688,0.016113281,-57.14504,4.0992365,-13.832061,0
1098,0.12683105,0.009277344,0.011108398,-53.14504,3.9007633,-4.0229006,0
1099,0.11590576,0.013061523,0.0038452148,-26.519083,9.251908,2.9923663,0
1100,0.107055664,0.0146484375,-6.1035156E-05,9.5801525,13.801527,9.725191,0
1101,0.105285645,0.007446289,-0.0014038086,38.53435,12.091603,15.007633,0
1102,0.10632324,0.0029296875,0.0015869141,48.809162,11.664123,18.328245,0
1103,0.111328125,-0.0003051758,0.0071411133,40.648853,10.0992365,15.961832,0
1104,0.11584473,-0.002319336,0.0079956055,21.374046,9.854961,16.93893,0
1105,0.11798096,-0.0038452148,0.006713867,3.3816793,12.0992365,16.801527,0
1106,0.12133789,0.0012207031,0.0063476562,-6.1755724,11.007633,13.396947,0
1107,0.12713623,0.003967285,0.0068359375,-3.7557251,10.236641,11.679389,0
1108,0.13470459,0.004638672,0.0044555664,1.2900764,12.679389,14.351145,0
1109,0.12158203,0.0045776367,0.0079956055,6.7557254,2.7709923,5.7633586,0
1110,0.12023926,0.002746582,0.010131836,7.9083967,-3.816794,1.1221374,0
1111,0.10974121,0.0006713867,0.009521484,5.923664,-5.7557254,-5.778626,0
1112,0.10949707,-0.0002441406,0.009277344,-2.076336,-8.0992365,-11.7786255,0
1113,0.11236572,0.001953125,0.012451172,-11.183207,-5.2519083,-14.175572,0
1114,0.115722656,0.004638672,0.014282227,-19.992367,-4.1297708,-14.19084,0
1115,0.121154785,0.0075683594,0.014831543,-24.587786,2.908397,-9.80916,0
1116,0.12658691,0.008239746,0.016113281,-21.740458,3.8244274,-5.5648856,0
1117,0.123291016,0.012145996,0.012084961,-10.5801525,1.870229,-0.06870229,0
1118,0.117492676,0.013549805,0.01171875,4.633588,0.022900764,0.27480915,0
1119,0.111816406,0.010375977,0.012451172,16.335878,-1.519084,-3.1221373,0
1120,0.11175537,0.007751465,0.014465332,22.91603,-0.8778626,-5.9083967,0
1121,0.113708496,0.0040283203,0.01373291,22.824427,-1.832061,-9.541985,0
1122,0.11804199,0.0034179688,0.016540527,10.320611,-4.9541984,-13.946565,0
1123,0.117614746,0.0061035156,0.015930176,-1.5572519,-2.572519,-11.251908,0
1124,0.11981201,0.0087890625,0.015625,-1.8167939,-1.4732825,-12.557252,0
1125,0.11785889,0.009887695,0.015625,3.1755726,0.9312977,-10.59542,0
1126,0.11669922,0.01159668,0.016113281,13.603053,2.0992367,-10.152672,0
1127,0.115234375,0.008605957,0.016845703,21.08397,-0.32061067,-7.40458,0
1128,0.11639404,0.006225586,0.016174316,21.946566,1.0763359,-6.7633586,0
1129,0.11639404,0.00579834,0.017089844,16.48855,2.4122138,-10.068703,0
1130,0.11651611,0.006652832,0.017944336,11.312977,0.23664123,-9.5801525,0
1131,0.11773682,0.0079956055,0.01776123,9.175572,-0.22137405,-9.801527,0
1132,0.117614746,0.0073242188,0.017944336,9.053435,0.65648854,-11.664123,0
1133,0.12402344,0.010925293,-0.0044555664,8.053435,-1.1603054,-7.2900763,0
1134,0.116882324,0.008178711,0.01776123,10.702291,-0.90839696,-11.175572,0
1135,0.117614746,0.0078125,0.018615723,7.3587785,0.79389316,-12.274809,0
1136,0.11791992,0.008361816,0.019348145,8.290076,0.15267175,-11.641221,0
1137,0.1161499,0.0072631836,0.018737793,7.7328243,-0.70229006,-12.610687,0
1138,0.11798096,0.0078125,0.017456055,7.9160304,3.4961832,-11.343512,0
1139,0.11859131,0.007446289,0.0178833,7.7862597,2.221374,-9.885496,0
1140,0.11810303,0.008117676,0.016601562,6.29771,2.9389312,-11.717557,0
1141,0.11730957,0.006286621,0.01739502,5.7251906,3.4122138,-9.961832,0
1142,0.11920166,0.010131836,0.012756348,3.923664,4.8396945,-9.351145,0
1143,0.11584473,0.00793457,0.015136719,5.4961834,4.2290077,-9.694656,0
1144,0.11633301,0.008483887,0.014343262,6.068702,6.1221375,-6.4961834,0
1145,0.11871338,0.008728027,0.014587402,8.076336,6.4885497,-4.0229006,0
1146,0.11663818,0.007751465,0.011047363,6.854962,4.4885497,-3.7480917,0
1147,0.11999512,0.008483887,0.013244629,6.4656487,3.5267177,-1.1221374,0
1148,0.119506836,0.0071411133,0.013366699,4.1297708,2.610687,-1.4961832,0
1149,0.11859131,0.007019043,0.013305664,1.4503816,-0.4427481,-4.2748094,0
1150,0.11956787,0.008361816,0.012451172,-0.14503817,-1.2900764,-4.4961834,0
1151,0.12011719,0.008239746,0.010070801,0.4274809,0.07633588,-7.6793895,0
1152,0.11956787,0.0079956055,0.014526367,1.8015267,-2.0610688,-8.885496,0
1153,0.116760254,0.008300781,0.01361084,-1.4198474,-2.793893,-7.4351144,0
1154,0.117492676,0.008300781,0.017028809,-0.9847328,-2.7557251,-8.40458,11
1155,0.11785889,0.009033203,0.015686035,-4.259542,-3.1450381,-6.0916033,11
1156,0.11743164,0.009094238,0.01739502,-3.793893,-2.1374047,-5.0839696,11
1157,0.11639404,0.009399414,0.018310547,-1.3206106,-1.6183206,-5.7251906,11
1158,0.11694336,0.011108398,0.013916016,-0.66412216,-1.2519084,-3.4198472,11
1159,0.11639404,0.009338379,0.018737793,0.84732825,-0.8778626,-1.0229008,11
1160,0.117370605,0.012023926,0.016601562,0.54198474,0.740458,-1.8778626,11
1161,0.11633301,0.011169434,0.018371582,1.2290076,-0.39694658,-3.0229008,11
1162,0.11621094,0.010375977,0.018493652,0.259542,0.39694658,-2.5877862,11
1163,0.11651611,0.00982666,0.018005371,1.1068702,0.15267175,-4.778626,11
1164,0.11743164,0.0107421875,0.018920898,0.77862597,1.9007634,-7.4503818,11
1165,0.11773682,0.0095825195,0.019348145,0.84732825,2.0610688,-6.89313,11
1166,0.117614746,0.010009766,0.018615723,0.39694658,1.9236641,-7.4885497,11
1167,0.116882324,0.009460449,0.0178833,0.5801527,3.3435113,-8.679389,11
1168,0.116882324,0.009460449,0.017456055,1.8549619,2.6793892,-7.7938933,11
1169,0.116760254,0.010498047,0.016601562,1.129771,3.167939,-6.5725193,11
1170,0.116882324,0.008422852,0.015319824,2.534351,3.8473282,-7.9770994,11
1171,0.11645508,0.008850098,0.016113281,0.52671754,4.076336,-4.89313,11
1172,0.116882324,0.009338379,0.015075684,0.70229006,2.4351146,-6.7328243,11
1173,0.118774414,0.009521484,0.013977051,1.8091604,4.4580154,-5.8625956,11
1174,0.11810303,0.008361816,0.017211914,2.70229,1.5343511,-4.931298,11
1175,0.11895752,0.009399414,0.016052246,-0.33587787,0.16030534,-5.3206105,11
1176,0.11828613,0.008483887,0.015991211,-1.778626,2.6183207,-5.4961834,11
1177,0.11816406,0.009094238,0.016357422,-2.0610688,2.1526718,-6.625954,11
1178,0.117370605,0.009094238,0.014709473,-0.3740458,0.3816794,-5.40458,11
1179,0.11798096,0.008361816,0.016479492,-0.41221374,2.0305343,-5.6106873,11
1180,0.11804199,0.0087890625,0.016479492,0.6870229,0.5801527,-4.519084,11
1181,0.117126465,0.008911133,0.017150879,0.053435113,0.22137405,-4.2748094,11
1182,0.11755371,0.008483887,0.016174316,0.259542,0.5114504,-3.0839694,11
1183,0.11651611,0.0087890625,0.018249512,-0.57251906,1.6793894,-4.1755724,11
1184,0.11804199,0.008850098,0.016235352,0.3053435,1.2671756,-0.7099237,11
1185,0.11810303,0.00982666,0.016052246,0.8015267,1.3358779,-1.4427481,11
1186,0.11755371,0.008850098,0.016906738,0.15267175,1.167939,-0.7480916,11
1187,0.11682129,0.010498047,0.014953613,0.38931298,0.5648855,-3.40458,11
1188,0.11883545,0.00970459,0.014709473,-0.045801528,1.221374,-3.40458,11
1189,0.11828613,0.010681152,0.016357422,0.3129771,1.1984733,-0.9160305,11
1190,0.11773682,0.011230469,0.016723633,1.2061069,2.167939,-0.7480916,11
1191,0.118652344,0.011291504,0.015930176,0.15267175,-0.52671754,-2.9389312,11
1192,0.11767578,0.010925293,0.014587402,1.5114504,-0.8244275,-3.2290077,11
1193,0.11816406,0.011108398,0.015686035,3.3969467,-0.7557252,-5.557252,11
1194,0.11999512,0.013122559,0.014099121,4.9389315,-0.3816794,-8.045801,11
1195,0.12030029,0.014221191,0.013000488,3.9160306,-1.1908396,-12.412213,11
1196,0.11981201,0.016906738,0.01184082,2.7862597,-3.8473282,-18.389313,11
1197,0.12207031,0.018676758,0.0126953125,3.4198472,-4.1984735,-22.183207,11
1198,0.12792969,0.024536133,-0.010437012,0.9312977,-8.305344,-25.625954,11
1199,0.120666504,0.024475098,0.011352539,2.6793892,-10.877863,-38.687023,11
1200,0.119628906,0.029418945,0.00970459,2.534351,-11.206107,-54.610687,11
1201,0.12219238,0.029052734,0.010192871,-1.8015267,-12.076336,-54.580154,11
1202,0.12005615,0.034179688,0.008239746,8.366412,-15.687023,-54.541985,11
1203,0.117248535,0.03173828,0.010681152,3.465649,-16.603054,-54.46565,11
1204,0.11816406,0.03466797,0.0115356445,-2.0992367,-15.076336,-54.32061,11
1205,0.117492676,0.037475586,0.010375977,-9.832061,-15.183207,-62.603054,11
1206,0.11230469,0.042907715,0.012817383,-16.87023,-13.916031,-66.68702,11
1207,0.11669922,0.045959473,0.009399414,-20.389313,-12.526717,-71.80153,11
1208,0.11230469,0.049072266,0.012268066,-17.404581,-3.7099237,-73.75572,11
1209,0.10803223,0.049926758,0.014038086,1,0.7099237,-70.48855,11
1210,0.10845947,0.058410645,0.014343262,7.885496,-1.5572519,-69.47328,11
1211,0.109375,0.05847168,0.009033203,33.312977,-2.9389312,-54.35878,11
1212,0.10809326,0.05670166,0.002746582,61.52672,-4.480916,-54.53435,11
1213,0.10089111,0.048034668,0.0043945312,67.80916,-3.2824428,-54.419846,11
1214,0.101135254,0.046936035,0.004699707,61.687023,-2.961832,-45.580154,11
1215,0.095703125,0.034118652,0.008911133,0.8091603,1.5267175,-54.450382,11
1216,0.099487305,0.054870605,-0.008728027,-20.206106,10.541985,-27.137405,11
1217,0.09466553,0.05456543,-0.0134887695,2.908397,-1.4961832,-35.450382,11
1218,0.08892822,0.04949951,0.0099487305,15.198473,2.9923663,-9.274809,11
1219,0.08843994,0.04425049,0.020568848,17.534351,5.0076337,1.8778626,11
1220,0.08935547,0.053771973,0.015258789,23.992367,10.633588,13.274809,11
1221,0.0993042,0.048095703,0.01928711,54.64122,17.473282,23.580153,11
1222,0.088256836,0.045410156,-0.0007324219,45.732826,-1.2519084,18.519083,11
1223,0.09918213,0.051757812,-0.018493652,14.2213745,-2.5114503,18.328245,11
1224,0.097717285,0.05871582,-0.0007324219,-21.824427,-6.4732823,12.083969,11
1225,0.09075928,0.075927734,0.013244629,-17.091602,0.21374045,5.4351144,11
1226,0.09490967,0.07672119,0.0003662109,45.129772,0.16793893,19.290077,11
1227,0.10614014,0.066833496,0.012329102,68.52672,14.7786255,29.022902,11
1228,0.10668945,0.051940918,0.012268066,45.12214,10.961832,19.267176,11
1229,0.110839844,0.06329346,0.005859375,25.534351,16.419847,-0.3129771,11
1230,0.10876465,0.06384277,0.0028076172,40.61832,15.480916,-12.076336,11
1231,0.10809326,0.05895996,-0.0020141602,26.480917,8.992367,-25.305344,11
1232,0.10449219,0.057800293,-0.006713867,0.13740458,6.3435116,-36.801525,11
1233,0.10247803,0.054138184,0.0012817383,-12.106871,8.290076,-31.664122,11
1234,0.1060791,0.07067871,-0.0041503906,-15.61832,4.5648856,-39.328243,11
1235,0.10345459,0.06524658,0.0021972656,18.267176,-0.67175573,-30.42748,11
1236,0.104003906,0.06286621,-0.0056152344,34.50382,-5.9007635,-41.251907,11
1237,0.103271484,0.05859375,-0.009643555,54.87786,-10.251908,-32.015266,11
1238,0.103027344,0.052368164,-0.011474609,50.015266,-14.511451,-38.23664,11
1239,0.0993042,0.04888916,-0.016662598,51.32061,-14.312977,-38.351147,11
1240,0.097473145,0.047790527,-0.024841309,18.847328,-9.694656,-54.61832,11
1241,0.097473145,0.05078125,-0.02545166,6.442748,-6.8702292,-54.72519,11
1242,0.099853516,0.054138184,-0.0073242188,3.29771,-4.8015265,-54.625954,11
1243,0.09399414,0.057495117,-0.0041503906,4.114504,0.35114503,-54.610687,11
1244,0.085754395,0.0579834,-0.017822266,15.083969,-2.7709923,-54.305344,11
1245,0.0892334,0.06121826,-0.008850098,5.5038166,8.7404585,-54.450382,11
1246,0.07989502,0.0703125,-0.012390137,12.389313,-2.5419848,-39.46565,11
1247,0.08331299,0.08441162,-0.028198242,90.31298,-14.122137,-29.198473,11
1248,0.07086182,0.05609131,-0.036499023,127.16031,-24.740458,-25.42748,11
1249,0.07098389,0.027770996,-0.036865234,78.9542,-18.664122,-20.450382,11
1250,0.07086182,0.035949707,-0.026123047,-43.79389,-4.7099237,-45.251907,11
1251,0.07672119,0.07116699,-0.028076172,-86.137405,-0.7099237,-49.091602,11
1252,0.071777344,0.07513428,-0.03161621,-101.54962,3.908397,-54.53435,11
1253,0.08001709,0.11193848,-0.037902832,-67.20611,-1.4427481,-27.564886,11
1254,0.07489014,0.10168457,-0.0357666,44.160305,-18.12977,-21.099237,11
1255,0.07232666,0.06652832,-0.025817871,72.19084,-21.61832,-18.465649,11
1256,0.06524658,0.05432129,-0.0234375,14.519084,-13.717557,-1.8244275,11
1257,0.06689453,0.06536865,-0.020751953,11.068703,-8.725191,2.221374,11
1258,0.06665039,0.061584473,-0.016540527,49.366413,-1.6793894,14.251908,11
1259,0.06933594,0.054504395,-0.018066406,51.27481,7.038168,36.12214,11
1260,0.0736084,0.052612305,-0.024414062,20.007633,16.328245,43.664124,11
1261,0.08154297,0.060302734,-0.0234375,2.8244274,22.61832,53.34351,11
1262,0.08203125,0.06573486,-0.020629883,16.282442,19.206106,54.52672,11
1263,0.091552734,0.0635376,-0.045166016,31.351145,19.931297,59.40458,11
1264,0.08691406,0.049194336,-0.028686523,23.290077,26.404581,55.65649,11
1265,0.09423828,0.053833008,-0.02520752,12.9007635,18.038168,57.08397,11
1266,0.09954834,0.046081543,-0.028137207,0.89312977,15.946565,56.900764,11
1267,0.1060791,0.043762207,-0.02557373,-21.206106,13.671756,55.748093,11
1268,0.109069824,0.046813965,-0.020446777,-34.50382,9.106871,50.435116,11
1269,0.10534668,0.044555664,-0.01739502,-42.16794,6.9160304,39.49618,11
1270,0.099731445,0.052978516,-0.013549805,-44.328243,4.8625956,34.366413,11
1271,0.09954834,0.046142578,-0.0134887695,-32.480915,0.53435117,32.64122,11
1272,0.10638428,0.04144287,-0.0021362305,-65.541985,3.687023,32.34351,11
1273,0.11248779,0.050842285,-0.0018920898,-95.44275,4.7175574,40.183205,11
1274,0.11553955,0.06011963,0.0048217773,-90.816795,3.335878,38.076336,11
1275,0.11541748,0.06036377,0.008850098,-83.35114,0.061068702,41.08397,11
1276,0.113220215,0.059326172,0.0065307617,-69.221375,-3.923664,39.633587,11
1277,0.109191895,0.053894043,0.0036621094,-54.587788,-5.6030536,31.519083,11
1278,0.1003418,0.047546387,0.0014648438,-42.549618,-6.480916,29.08397,11
1279,0.10217285,0.043762207,-0.0025634766,-40.78626,0.9847328,27.312977,11
1280,0.105285645,0.04058838,-0.002746582,-41.954197,6.1984735,24.801527,11
1281,0.11022949,0.03967285,-0.0048217773,-45.480915,7.0305343,27.80916,11
1282,0.11010742,0.038146973,-0.0001220703,-53.79389,3.038168,26.404581,11
1283,0.11151123,0.035949707,0.0075683594,-57.74046,-1.3053435,29.87023,11
1284,0.113220215,0.034240723,0.009521484,-53.862595,-3.923664,32.64122,11
1285,0.12005615,0.032287598,0.0060424805,-56.16794,-3.259542,37.251907,11
1286,0.114868164,0.028930664,0.012329102,-65.12214,-2.9389312,37,11
1287,0.111572266,0.028015137,0.01574707,-71.15267,-5.0152674,34.53435,11
1288,0.10723877,0.026489258,0.012390137,-72.12214,1.1984733,38.47328,11
1289,0.10583496,0.024841309,0.014831543,-69.59542,11.297709,41.076336,11
1290,0.1126709,0.022338867,0.014892578,-71.28244,16.114504,49.549618,11
1291,0.117370605,0.023010254,0.015136719,-75.48855,21.274809,53.61832,11
1292,0.12231445,0.024291992,0.015563965,-77.15267,23.931297,53.870228,11
1293,0.12426758,0.024658203,0.014770508,-79.72519,17.42748,50.08397,11
1294,0.12261963,0.019348145,0.008728027,-81.61069,7.2442746,40.480915,11
1295,0.124938965,0.013916016,0.011230469,-111.59542,5.6946564,24.396946,11
1296,0.12854004,0.020263672,0.016174316,-123.99236,-0.8015267,20,11
1297,0.12799072,0.018859863,0.0154418945,-112.56489,-13.633588,3.2137403,11
1298,0.12548828,0.010375977,0.010253906,-107.35878,-23.160305,-4.3816795,11
1299,0.12182617,0.00390625,0.005126953,-112.496185,-22.801527,-21,11
1300,0.12158203,0.010009766,0.009094238,-124.91603,-21.068703,-26.404581,11
1301,0.119628906,0.013244629,0.009216309,-139.7939,-18.694656,-39.694656,11
1302,0.11651611,0.011413574,0.013244629,-156.17557,-19.57252,-45.091602,11
1303,0.11773682,0.014099121,0.008117676,-193.54199,-15.038168,-54.38168,11
1304,0.117370605,0.03363037,0.019958496,-216.75572,-11.755725,-54.519085,11
1305,0.119018555,0.06878662,0.011657715,-130.54962,-20.503817,-37.08397,11
1306,0.099609375,0.019042969,0.022277832,-61.778625,-15.916031,-54.480915,11
1307,0.11230469,0.043884277,0.027954102,-123.908394,-3.923664,-17.687023,11
1308,0.10687256,0.05279541,0.030395508,-60.23664,-18.625954,-24.229008,11
1309,0.10333252,0.04168701,0.026123047,-15.938931,-18.030535,-31.030535,11
1310,0.10272217,0.032409668,0.029968262,-18.954199,-11.755725,-5.7633586,11
1311,0.10144043,0.039001465,0.030822754,-9.7404585,-7.9923663,-6.9541984,11
1312,0.104003906,0.042541504,0.01977539,31.854961,-2,5.5343513,11
1313,0.10949707,0.010925293,0.0076904297,36.46565,-13.496183,6.961832,11
1314,0.11029053,0.0368042,0.0026855469,51.251907,2.946565,25.38168,11
1315,0.12005615,0.030090332,0.009094238,70.66412,-8.396947,17.633587,11
1316,0.113220215,0.0107421875,0.005126953,66.89313,-14.923664,26,11
1317,0.110839844,-0.001953125,-0.0037841797,34.282444,-6.0076337,22.015266,11
1318,0.119384766,0.0041503906,-0.016418457,-14.511451,-0.9236641,17.099237,11
1319,0.12164307,0.0053710938,-0.0076293945,-37.305344,-8.534351,14.458015,11
1320,0.11584473,0.010559082,-0.0003662109,-58.84733,-12.931297,8.290076,11
1321,0.11126709,0.013122559,-0.0026245117,-78.25191,-8.206107,15.335877,11
1322,0.11645508,0.031799316,0.003479004,-113.862595,-1.1832061,0.007633588,11
1323,0.1138916,0.036193848,0.009338379,-71.740456,-14.38168,11.312977,11
1324,0.10797119,0.018920898,-0.0024414062,-59.10687,-8.480916,-0.21374045,11
1325,0.101501465,0.014465332,0.0075683594,-82.541985,5.9770994,10.717557,11
1326,0.12579346,0.066101074,0.003112793,-74.12977,3.7709923,-2.946565,11
1327,0.09753418,0.04284668,-0.0016479492,45.053436,-25.610687,-4.5725193,11
1328,0.109069824,0.026000977,0.027404785,18.664122,-1.70229,10,11
1329,0.101745605,0.038269043,0.0095825195,-3.167939,10.030535,4.1221375,11
1330,0.11975098,0.044921875,-0.013183594,8.763359,4.0610685,-6.6488547,11
1331,0.12005615,0.0413208,0.0041503906,20.038168,0.83206105,-10.480916,11
1332,0.11114502,0.028686523,0.013366699,28.91603,-3.0839694,-22.022902,11
1333,0.11621094,0.036315918,-0.0006713867,40.480915,5.3969464,-12.061069,11
1334,0.12219238,0.03137207,0.009338379,52.809162,10.160305,-19.496183,11
1335,0.123535156,0.041931152,0.013122559,47.778625,5.0229006,-19,11
1336,0.13165283,0.058410645,-0.0009155273,91.862595,-1.908397,-29.87023,11
1337,0.13122559,0.057250977,0.002746582,163.64122,-6.6564884,-27.778625,11
1338,0.12634277,0.029724121,0.010803223,186.7939,-13.427481,-24.442749,11
1339,0.12231445,0.031066895,0.009033203,162,-14.557252,-32.587788,11
1340,0.124572754,0.047729492,0.0061035156,167.31297,-7.7938933,-33.267174,11
1341,0.1227417,0.044311523,0.006591797,204.27481,-18.099237,-26.419847,11
1342,0.10809326,0.023620605,-0.010559082,211.43512,-42.16794,-29.885496,11
1343,0.105041504,0.01965332,-0.023071289,168.50381,-47.17557,-54.633587,11
1344,0.10974121,0.032043457,-0.015808105,130.41985,-41.183205,-45.587788,11
1345,0.11291504,0.029968262,-0.022277832,116.900764,-47.23664,-54.458015,11
1346,0.11920166,0.039001465,-0.03741455,113.862595,-58.664124,-38.419846,11
1347,0.11706543,0.041381836,-0.040771484,109.83969,-73.1145,-38.435116,11
1348,0.10986328,0.023010254,-0.04345703,85.778625,-78.19084,-46.20611,11
1349,0.10235596,0.032714844,-0.050231934,75.52672,-88.145035,-42.70229,11
1350,0.09240723,0.019714355,-0.05206299,80.69466,-80.900764,-54.480915,11
1351,0.091308594,0.030456543,-0.06323242,64.75572,-83.67175,-54.549618,11
1352,0.08239746,0.021728516,-0.0602417,67.68702,-85.74809,-43.099236,11
1353,0.081848145,0.025878906,-0.06335449,52.839695,-85.65649,-54.221375,11
1354,0.08441162,0.023132324,-0.061279297,66.84733,-79.87023,-24.29771,11
1355,0.08795166,0.018249512,-0.06774902,68.55725,-79.59542,-37.78626,11
1356,0.07952881,0.011291504,-0.0602417,56.801525,-74.16031,-36.251907,11
1357,0.07647705,0.018127441,-0.062561035,53.16794,-78.64122,-32.610687,11
1358,0.07543945,0.018310547,-0.05706787,55.755726,-77.33588,-35.16794,11
1359,0.068603516,0.012023926,-0.05657959,48.946564,-79.26717,-32.47328,11
1360,0.07098389,0.012084961,-0.054260254,45.839695,-78.908394,-28.503817,11
1361,0.08850098,0.0052490234,-0.049194336,46.51145,-57.282444,-20.91603,11
1362,0.084350586,0.012084961,-0.04522705,10.709924,-34.46565,-13.664123,11
1363,0.08459473,-0.003967285,-0.079589844,18.641222,25.045801,-25.984734,11
1364,0.07006836,-0.017211914,-0.044677734,7.8244276,-0.48854962,-25.503817,11
1365,0.090270996,-0.011047363,-0.026794434,1.1450381,32.46565,-27.641222,11
1366,0.0758667,0.008666992,-0.05987549,11.488549,17.08397,-30.152672,11
1367,0.07751465,-0.00390625,-0.05731201,20.549618,17.969465,-39.885498,11
1368,0.078308105,-0.0021972656,-0.064575195,10.671756,23.335878,-42.160305,11
1369,0.06829834,0.005004883,-0.062194824,28.435114,45.0229,-36.633587,11
1370,0.08972168,-0.000793457,-0.07287598,8.297709,30.87023,-32.51145,11
1371,0.08526611,0.0009155273,-0.0770874,0.90076333,24.641222,-22.93893,11
1372,0.07318115,0.0095825195,-0.08886719,-5.8320613,18.541985,-15.122137,11
1373,0.070129395,0.015808105,-0.09655762,-2.6335878,22.282442,-21.76336,11
1374,0.06390381,0.016662598,-0.10015869,10.427481,15.061069,-5.40458,11
1375,0.060058594,0.014526367,-0.09094238,25.755726,16.687023,0.2977099,11
1376,0.061584473,0.008544922,-0.06921387,39.44275,-0.022900764,-5.8396945,11
1377,0.052246094,0.011291504,-0.08087158,33.587788,0.77862597,-28.625954,11
1378,0.05682373,0.0059814453,-0.07531738,26.656488,2.4122138,-26.587786,11
1379,0.053222656,-0.0048828125,-0.07293701,17.656488,6.4580154,-39.007633,11
1380,0.06201172,-0.0016479492,-0.07354736,25.221375,6.5648856,-28.099237,11
1381,0.07281494,0.0017700195,-0.04046631,29.80916,11.839695,-35.65649,11
1382,0.08630371,-0.014953613,-0.07763672,29.12977,9.206107,-30.38168,11
1383,0.08441162,0.0017089844,-0.09448242,25.603054,0.46564886,-34.9771,11
1384,0.07891846,0.0028076172,-0.091796875,20.847328,-2.778626,-32.0229,11
1385,0.05340576,-0.01373291,-0.08026123,-0.19847329,-1.0305344,-54.76336,11
1386,0.054382324,0.031311035,-0.088378906,-31.732824,10.458015,-54.564884,11
1387,0.07800293,0.026123047,-0.080078125,-21.19084,3.2519083,-54.366413,11
1388,0.07495117,-0.0064697266,-0.074157715,-28.19084,1.7099236,-54.38168,11
1389,0.059509277,0.0017700195,-0.08477783,2.1221373,-1.2290076,-34.007633,11
1390,0.06970215,0.010131836,-0.08312988,21.030535,-9.030535,-19.854961,11
1391,0.054992676,0.010009766,-0.074645996,14.931297,-19.23664,-27.923664,11
1392,0.055114746,0.012878418,-0.081970215,20.687023,-20.57252,-30.23664,11
1393,0.064819336,0.007385254,-0.08679199,21.198473,-14.610687,-17.732824,11
1394,0.065979004,0.016113281,-0.08843994,16.755726,-14.236641,-19.030535,11
1395,0.070007324,0.01928711,-0.086242676,14.824428,-9.603053,-18.648855,11
1396,0.06109619,0.0065307617,-0.085754395,6.9770994,-6.931298,-23.122137,11
1397,0.05682373,0.0063476562,-0.08428955,4.0916033,-2.9770992,-12.473283,11
1398,0.049194336,0.012451172,-0.089904785,7.3511453,0.07633588,-14.412213,11
1399,0.07196045,0.016296387,-0.0769043,-3.1374047,1.2748091,-10.183207,11
1400,0.06390381,0.0001220703,-0.0791626,-17.419847,-4.0076337,-24.709923,11
1401,0.053100586,0.0178833,-0.09991455,-11.824428,-4.7480917,-17.022902,11
1402,0.0713501,0.010253906,-0.080444336,-8.679389,-6.0839696,-10.251908,11
1403,0.05834961,0.0099487305,-0.087768555,-10.5801525,-6.4274807,-14.564885,11
1404,0.050109863,0.015380859,-0.090148926,-2.053435,-4.5114503,-9.19084,11
1405,0.055480957,0.008300781,-0.082336426,4.587786,-4.6412215,-0.32061067,11
1406,0.06036377,0.012329102,-0.08026123,2.0992367,-4.0534353,-2.29771,11
1407,0.040893555,0.008056641,-0.0869751,5.3969464,3.4351146,-14.702291,11
1408,0.047973633,0.007873535,-0.088012695,19.312977,-0.7099237,5.6793895,11
1409,0.06756592,0.0076293945,-0.083984375,29.664122,-4.0458016,16.732824,11
1410,0.0758667,0.016174316,-0.084106445,11.732824,-2.7175572,2.1984732,11
1411,0.05810547,0.00579834,-0.08251953,-1.5954199,-1.1221374,-7.5801525,11
1412,0.050231934,0.006164551,-0.08526611,3.2900763,-2.3206108,2.8473282,11
1413,0.050231934,0.0020751953,-0.08343506,7.5114503,-3.4961832,7.847328,11
1414,0.059265137,0.005432129,-0.08081055,5.3435116,-2.4732823,3.778626,11
1415,0.05822754,0.00592041,-0.08099365,-4.1221375,-1.2824427,-4.8702292,11
1416,0.04949951,0.0018310547,-0.08148193,-6.4198475,-0.41984734,-10.603053,11
1417,0.050720215,0.0017089844,-0.08270264,-2.2442749,0.41984734,-8.961832,11
1418,0.059692383,0.003479004,-0.08618164,4.7480917,-2.5801528,-3.038168,11
1419,0.06335449,0.0065307617,-0.083740234,6.5648856,-9.343512,0.64122134,11
1420,0.06121826,0.00592041,-0.07989502,2.3816793,-11.633588,1.259542,11
1421,0.07043457,0.008422852,-0.08642578,-3.4351146,-5.19084,4.519084,11
1422,0.048339844,-0.0014648438,-0.08331299,-6.2748094,-1.1145039,-10.290076,11
1423,0.049194336,0.0004272461,-0.08105469,-1.961832,-1.1832061,2.3206108,11
1424,0.05822754,0.0032958984,-0.08514404,6.4580154,-0.4274809,9.374045,11
1425,0.06213379,0.0045776367,-0.08673096,7.7099237,1.6564885,9.656488,11
1426,0.066101074,0.0051879883,-0.0847168,4.2671757,5.3435116,7.8244276,11
1427,0.06665039,-0.0032348633,-0.083618164,2.053435,10.061069,6.6870227,11
1428,0.06726074,-0.0014648438,-0.08691406,6.0458016,11.5801525,13.015267,11
1429,0.07513428,0.0015258789,-0.085754395,12.80916,11.320611,18.496183,11
1430,0.07611084,0.0018310547,-0.077697754,7.8778625,13.59542,18.206106,11
1431,0.06744385,0.0040893555,-0.07952881,-1.038168,15.351145,19.412214,11
1432,0.05517578,0.0041503906,-0.07910156,-5.3435116,12.572519,27.625954,11
1433,0.049621582,0.008728027,-0.08050537,-11.21374,10.2213745,28.175573,11
1434,0.060180664,0.0067749023,-0.08178711,-16.030535,7.7938933,29.847328,11
1435,0.068115234,0.0006713867,-0.08166504,-18.946566,5.885496,34.40458,11
1436,0.06427002,-0.0017089844,-0.080200195,-23.412214,10.068703,32.648853,11
1437,0.066223145,-0.0013427734,-0.080566406,-28.900763,17.343512,30.832062,11
1438,0.064819336,-0.0020751953,-0.07659912,-33.20611,17.282442,27.06107,11
1439,0.0657959,-0.0025024414,-0.07861328,-25.244274,13.312977,34.816795,11
1440,0.06585693,-0.008300781,-0.07727051,-19.977098,11.061069,39.969467,11
1441,0.06359863,-0.0045776367,-0.076049805,-15.877863,10.030535,46.305344,11
1442,0.06707764,0.0049438477,-0.07318115,-18.48855,11.709924,47.49618,11
1443,0.06585693,0.0014038086,-0.08026123,-15.2213745,6.40458,57.839695,11
1444,0.066101074,-0.0044555664,-0.076416016,-14.801527,5.740458,63.694656,11
1445,0.06738281,-0.0045776367,-0.07336426,-19.526718,5.664122,69.59542,11
1446,0.06719971,-0.003540039,-0.07659912,-23.068703,5.625954,72.59542,11
1447,0.06463623,-0.007751465,-0.075805664,-25.137405,0.40458015,82.51908,11
1448,0.064575195,-0.012023926,-0.07305908,-35.282444,4.3053436,87.35114,11
1449,0.0803833,0.0031738281,-0.1027832,-48.137405,4.2519083,97.41222,11
1450,0.07763672,-0.0015258789,-0.08001709,-55.79389,7.9389315,101.65649,11
1451,0.08441162,0.0028686523,-0.08319092,-83.48855,21.76336,95.778625,11
1452,0.09173584,0.010314941,-0.08276367,-111.08397,36.9771,85.41222,11
1453,0.08276367,0.007385254,-0.07922363,-144.78625,41.114502,60.564884,11
1454,0.06854248,0.013549805,-0.07873535,-169.58778,29.396946,44.068703,11
1455,0.053344727,0.016113281,-0.07006836,-192.0229,25.465649,25.022902,0
1456,0.05114746,0.011413574,-0.060302734,-231.40459,23.977098,10.458015,0
1457,0.059570312,0.03491211,-0.061523438,-231.771,11.114504,13.603053,0
1458,0.079956055,0.061462402,-0.0637207,-173.61832,-14.923664,45.961834,0
1459,0.07897949,0.06500244,-0.05822754,-156.37404,-11.641221,38.053436,0
1460,0.07574463,0.054504395,-0.038635254,-181.03053,3.4503818,30.076336,0
1461,0.07745361,0.0625,-0.020874023,-149.87787,23.122137,29.167938,0
1462,0.0814209,0.06378174,-0.015380859,-104.824425,35.809162,27.343512,0
1463,0.0769043,0.05493164,-0.0006103516,-80.03817,53.412212,16.374046,0
1464,0.07684326,0.04486084,-0.017822266,-55.946564,65.30534,19.145039,0
1465,0.062561035,0.07421875,0.016723633,25.450382,63.603054,20.259542,0
1466,0.07293701,0.036132812,0.020812988,47.389313,84.66412,4.9007635,0
1467,0.09564209,0.06335449,0.0016479492,79.31298,65.36641,28.19084,0
1468,0.09698486,0.05267334,0.0020141602,94.31298,56.717556,12.496183,0
1469,0.11566162,0.046691895,0.0014038086,46.335876,62,12.435115,0
1470,0.11529541,0.04559326,-0.0087890625,51.099236,42.160305,26.74809,0
1471,0.12097168,0.030944824,-0.012451172,56.65649,48.053436,16.259542,0
1472,0.128479,0.028564453,-0.009033203,39.9771,48.076336,29.145039,0
1473,0.14764404,0.037475586,-0.0078125,36.59542,59.671757,39.160305,0
1474,0.14782715,0.035583496,-0.02545166,37.40458,69.31298,43.35878,0
1475,0.13305664,0.032714844,-0.030639648,32.55725,77.1145,51.83206,0
1476,0.11627197,0.030578613,-0.039123535,25.51145,82.099236,48.435116,0
1477,0.09765625,0.027954102,-0.04534912,25.145039,82.67939,35.328243,0
1478,0.10028076,0.018371582,-0.042236328,69.89313,82.20611,12.610687,0
1479,0.11450195,0.008361816,-0.032714844,128.58778,67.458015,-10.702291,0
1480,0.12200928,0.010925293,-0.015930176,175.81679,57.64122,-24.458015,0
1481,0.12615967,0.0037231445,-0.0068969727,178.25954,43.44275,-52.458015,0
1482,0.12591553,-0.0037231445,-0.012573242,169.55725,37.076336,-35.885498,0
1483,0.12243652,-0.015625,-0.015563965,146.93893,35.49618,-26.854961,0
1484,0.11413574,-0.019836426,-0.009216309,98.01527,37.335876,-11.427481,0
1485,0.09875488,-0.00793457,-0.0032958984,46.61832,39.198475,-7.4961834,0
1486,0.091430664,0.0024414062,0.0020751953,9.557252,36.862595,-3.3053436,0
1487,0.09063721,0.0078125,0.0005493164,-4.4656487,31.450382,3.1603053,0
1488,0.093566895,0.014831543,-0.002746582,-7.4351144,26.229008,4.3053436,0
1489,0.100097656,0.018371582,0.0016479492,2.610687,23.358778,12.770992,0
1490,0.10632324,0.021850586,0.0045776367,10.572519,23.51145,21.862595,0
1491,0.11444092,0.023376465,0.007080078,20.030535,26.450382,33.732826,0
1492,0.12335205,0.026855469,0.010070801,29.25191,30.450382,42.908398,0
1493,0.12945557,0.026916504,0.010009766,45.839695,27.946566,47.694656,0
1494,0.13867188,0.026794434,0.015197754,63.15267,22.564886,45.396946,0
1495,0.16973877,0.02722168,0.022460938,73.9313,20.274809,43.229008,0
1496,0.18408203,0.020874023,0.03326416,60.34351,17.435114,33.587788,0
1497,0.17425537,0.016906738,0.026977539,48.664124,-7.4274807,-3.9541984,0
1498,0.1270752,0.016113281,0.02178955,46.389313,-41.923664,-43.49618,0
1499,0.100097656,0.013793945,0.015930176,51.946564,-37.687023,-62.190838,0
1500,0.11193848,0.016479492,0.020568848,83.381676,-16.61832,-73.57252,0
1501,0.119628906,0.020507812,0.02960205,108.55725,-16.12977,-74.51908,0
1502,0.1340332,0.019958496,0.036132812,116.96183,-27.801527,-54.74046,0
1503,0.13500977,0.013671875,0.034057617,107.61069,-35.32061,-57.053436,0
1504,0.1251831,0.010559082,0.03387451,102.0458,-30.977098,-54.46565,0
1505,0.11645508,0.005859375,0.03387451,100.62595,-32.908398,-54.572517,0
1506,0.10522461,0.004638672,0.027160645,92.229004,-31.740458,-54.52672,0
1507,0.097717285,0.0068359375,0.023010254,78.12977,-28.770992,-54.40458,0
1508,0.09869385,0.008605957,0.0211792,72.70992,-27.877863,-54.53435,0
1509,0.096191406,0.0071411133,0.021850586,66.10687,-29.007633,-54.53435,0
1510,0.09918213,0.0028076172,0.020019531,61.328243,-28.045801,-54.908398,0
1511,0.1003418,-0.0037231445,0.020263672,50.65649,-24.38168,-47.519085,0
1512,0.10632324,-0.006286621,0.02355957,26.458015,-19.770992,-32.664124,0
1513,0.115112305,-0.006286621,0.025756836,-10.19084,-12.549619,-22.23664,0
1514,0.12176514,-0.001953125,0.028137207,-36.931297,-5.59542,-6.8244276,0
1515,0.12060547,0.002380371,0.027160645,-50.48855,-2.335878,5.885496,0
1516,0.14764404,0.0063476562,0.032958984,-54.89313,20.007633,26.335878,0
1517,0.15545654,0.0068359375,0.030578613,-59.633587,39.007633,46.312977,0
1518,0.14971924,0.009887695,0.020935059,-63.48855,40.48855,58.244274,0
1519,0.11437988,0.009887695,0.00592041,-62.48855,31.091602,55.12214,0
1520,0.097961426,0.010009766,-0.0006103516,-33.12214,37.946564,53.15267,0
1521,0.1083374,0.0099487305,0.0063476562,-4.0229006,53.89313,50.282444,0
1522,0.115722656,0.012390137,0.014892578,8.969465,48.587788,42.61832,0
1523,0.12371826,0.010375977,0.018066406,-3.2824428,27.167938,29.175573,0
1524,0.12017822,0.0063476562,0.01550293,-13.923664,23.19084,21.57252,0
1525,0.12213135,0.007507324,0.017150879,-36.396946,31.267176,22.374046,0
1526,0.11932373,0.009033203,0.0178833,-61.969467,28.732824,22.557251,0
1527,0.11230469,0.013427734,0.013977051,-80.28244,24.480917,27.183207,0
1528,0.10253906,0.018066406,0.012756348,-86.70229,25.977098,31.862595,0
1529,0.09942627,0.022277832,0.009155273,-80.69466,32.931297,37.72519,0
1530,0.10272217,0.026550293,0.006164551,-58.099236,30.984734,44.50382,0
1531,0.10321045,0.031311035,0.0004272461,-23.274809,27.259542,52.580154,0
1532,0.10888672,0.032348633,-0.0008544922,12.030535,24.541985,59.671757,0
1533,0.11798096,0.02746582,0.001953125,31.343512,24.389313,61.839695,0
1534,0.1296997,0.028320312,0.0031738281,44.732826,22.389313,63.48855,0
1535,0.14227295,0.027160645,0.0053710938,47.664124,16.267176,55.23664,0
1536,0.1506958,0.02331543,0.011474609,34.48855,6.7938933,43.40458,0
1537,0.17419434,0.02142334,0.017456055,17.221375,5.145038,21.29771,0
1538,0.17919922,0.018188477,0.020507812,-2.9694657,-2.389313,-3.9007633,0
1539,0.16693115,0.022399902,0.016052246,2.832061,-25.725191,-48.870228,0
1540,0.13372803,0.017150879,0.015319824,20.671755,-51.34351,-54.74046,0
1541,0.10821533,0.022583008,0.016357422,42.458015,-51.572517,-90.30534,0
1542,0.12182617,0.020019531,0.022338867,65.66412,-41.48855,-94.30534,0
1543,0.12420654,0.023132324,0.026184082,95.12977,-43.687023,-94.33588,0
1544,0.13537598,0.020507812,0.038635254,109.74809,-55.305344,-76.84733,0
1545,0.13220215,0.017028809,0.040771484,108.0687,-60.564884,-68.83969,0
1546,0.12677002,0.013916016,0.044921875,106.68702,-53.931297,-54.82443,0
1547,0.121276855,0.009033203,0.044189453,92.28244,-57.12214,-54.23664,0
1548,0.113708496,0.007751465,0.040893555,73.79389,-57.21374,-54.687023,0
1549,0.10467529,0.008361816,0.036376953,51.70229,-49.946564,-53.83206,0
1550,0.107421875,0.009887695,0.03845215,38.89313,-40.801525,-53.778625,0
1551,0.105773926,0.008605957,0.039978027,29.671755,-36.580154,-54.46565,0
1552,0.10461426,0.0060424805,0.04034424,17.709923,-33.671757,-61.282444,0
1553,0.1027832,0.0029296875,0.03845215,16.48855,-26.541985,-54.244274,0
1554,0.10253906,0.0003051758,0.034301758,21.06107,-15.557252,-54.40458,0
1555,0.10644531,-0.0036010742,0.03289795,26.435114,-8.946565,-51.717556,0
1556,0.1194458,-0.0012207031,0.036071777,18.80916,-7.6106873,-18.465649,0
1557,0.1149292,-0.0004272461,0.03704834,9.374045,-11.465649,-3.389313,0
1558,0.12219238,-0.00592041,0.031799316,2.2519083,-0.6870229,15.290076,0
1559,0.13824463,-0.0044555664,0.034057617,-4.259542,23.656488,45.23664,0
1560,0.14465332,0.002319336,0.03125,13.557252,40.770992,71.1145,0
1561,0.14544678,0.0016479492,0.024963379,11.862596,49.64122,86.778625,0
1562,0.10986328,-0.0008544922,-0.0025634766,-3.9541984,55.694656,78.41222,0
1563,0.109191895,0.001159668,-0.00592041,3.091603,65.30534,84.00764,0
1564,0.11010742,-0.0052490234,0.0022583008,19.862595,70.618324,67.53435,0
1565,0.11853027,-0.0043945312,0.008239746,19.167938,75.07633,62.519085,0
1566,0.12677002,-0.004760742,0.0095825195,-1.0229008,79.099236,46.59542,0
1567,0.13739014,-0.0025024414,0.015563965,-11.938931,79.03817,39.64122,0
1568,0.1408081,-0.0003662109,0.01574707,-21.641222,66.91603,33.091602,0
1569,0.13323975,0.0021972656,0.012817383,-41.435116,54.732826,30.946566,0
1570,0.120788574,0.008605957,0.014160156,-59.389313,50.717556,33.435116,0
1571,0.10803223,0.010498047,0.004211426,-64.73283,48.44275,33.450382,0
1572,0.101745605,0.01361084,0.0010986328,-60.450382,44.419846,34.85496,0
1573,0.10266113,0.018249512,0.0002441406,-40.35878,41.587788,42.17557,0
1574,0.105407715,0.020874023,0.0006103516,-20.282442,38.17557,46.870228,0
1575,0.11376953,0.023010254,-0.0020751953,-4.9007635,33.20611,49.954197,0
1576,0.12371826,0.023620605,-0.0001220703,9.068703,28.93893,55.23664,0
1577,0.13171387,0.020507812,-0.0018920898,23.717558,19.068703,54.64122,0
1578,0.14349365,0.02142334,0.0009155273,31.404581,14.946565,51.885498,0
1579,0.1541748,0.020629883,-0.016540527,32.79389,1.7480916,41.427483,0
1580,0.16186523,0.017028809,0.0119018555,23.229008,-9.587787,14.251908,0
1581,0.16430664,0.014160156,0.012329102,22.435114,-22.25191,-9.152672,0
1582,0.16418457,0.012084961,0.0134887695,23.89313,-43.35878,-47.778625,0
1583,0.1430664,0.013122559,0.016662598,28.625954,-64.83206,-54.65649,0
1584,0.12390137,0.013122559,0.02319336,27.290077,-78.67939,-95.259544,0
1585,0.1329956,0.012084961,0.028015137,36.015266,-73.35878,-104.99236,0
1586,0.13586426,0.01550293,0.028259277,51.32061,-69.33588,-110.56489,0
1587,0.15057373,0.015258789,0.03741455,60.129772,-78.900764,-102.32825,0
1588,0.14666748,0.01361084,0.038513184,62.32061,-82.221375,-97.21374,0
1589,0.13903809,0.01171875,0.0446167,59.992367,-77.15267,-91.34351,0
1590,0.13085938,0.008483887,0.04559326,53.038166,-69.19847,-91.31298,0
1591,0.122680664,0.00579834,0.037353516,46.74046,-66.24428,-95.41222,0
1592,0.11340332,0.0048828125,0.03491211,42.564884,-59.64122,-101.34351,0
1593,0.10650635,0.007385254,0.03326416,35.89313,-49.419846,-102.26717,0
1594,0.1048584,0.007385254,0.03277588,36.671757,-43.137405,-102.70992,0
1595,0.10668945,0.0038452148,0.03265381,35.312977,-36.419846,-99.92367,0
1596,0.1027832,-0.0012817383,0.03125,35.76336,-34.40458,-92.25191,0
1597,0.10144043,-0.0056762695,0.02709961,29.076336,-27.992367,-78,0
1598,0.10467529,-0.011047363,0.025390625,18.89313,-15.671756,-54.519085,0
1599,0.10858154,-0.008544922,0.026672363,-7.335878,-5.114504,-32.76336,0
1600,0.10974121,-0.0068969727,0.026123047,-33.458015,-1.8625954,-10.7404585,0
1601,0.13342285,-0.0031738281,0.035705566,-40.885498,18.42748,20.183207,0
1602,0.1430664,-0.004638672,0.03277588,-47.427483,36.839695,53.076336,0
1603,0.14404297,0.0068969727,0.022399902,-49.335876,43.480915,77.183205,0
1604,0.117248535,0.0072021484,0.005126953,-44.221375,34.65649,91.099236,0
1605,0.09802246,0.010314941,-0.00579834,-23.244274,43.14504,96.29771,0
1606,0.10687256,0.008422852,0.0115356445,5.5496182,63.290077,102.47328,0
1607,0.11999512,0.0065307617,0.0138549805,22.274809,64.83969,100.05344,0
1608,0.13165283,0.002319336,0.02154541,11.839695,52.419846,90.83206,0
1609,0.13647461,-0.0031738281,0.02142334,-16.76336,44.38168,80.00764,0
1610,0.12982178,-0.0006713867,0.018249512,-57.251907,48,70.30534,0
1611,0.12298584,0.004760742,0.017700195,-84.62595,46.030533,62.809162,0
1612,0.11810303,0.009399414,0.015380859,-99.9313,46.946564,59.64122,0
1613,0.11706543,0.017150879,0.011230469,-99.73283,52.954197,64.175575,0
1614,0.118774414,0.023376465,0.009399414,-87.42748,48.954197,70.05344,0
1615,0.11968994,0.027404785,0.010681152,-66.458015,41.015266,78.48855,0
1616,0.11767578,0.029541016,0.006958008,-44.717556,33.10687,84.099236,0
1617,0.120788574,0.030578613,0.0015258789,-23.824427,37.83206,86.40458,0
1618,0.12731934,0.029052734,0,-9.305344,33.83206,81.0687,0
1619,0.13598633,0.030456543,0.001159668,-0.27480915,26.152672,73.854965,0
1620,0.14208984,0.030029297,0.0032958984,12.015267,19.862595,54.34351,0
1621,0.14678955,0.02911377,0.0053710938,19.206106,12.694656,32.732826,0
1622,0.17419434,0.02746582,0.010925293,24.480917,8.572519,8.412213,0
1623,0.16918945,0.018981934,0.020141602,18.93893,-6.9465647,-23.687023,0
1624,0.15740967,0.021850586,0.015319824,18.923664,-29.091602,-54.458015,0
1625,0.13989258,0.016296387,0.009033203,35.450382,-42.664124,-72.9542,0
1626,0.11279297,0.018920898,0.013000488,36.87786,-46.961834,-103.78626,0
1627,0.1260376,0.018554688,0.017944336,56.267174,-45.48855,-113.938934,0
1628,0.12945557,0.018737793,0.02166748,89.37405,-48.0229,-113.79389,0
1629,0.14440918,0.018432617,0.030761719,111.59542,-54.038166,-98.70229,0
1630,0.14904785,0.015991211,0.03717041,121.137405,-68.67939,-87.35114,0
1631,0.14605713,0.011657715,0.04095459,126,-71.47328,-82.75572,0
1632,0.13867188,0.002380371,0.0446167,124.75572,-72.63359,-81.862595,0
1633,0.13165283,0.0014648438,0.043029785,105.28244,-73.778625,-83.47328,0
1634,0.12188721,0.0020141602,0.040222168,88.0229,-74.78626,-90.0229,0
1635,0.11602783,0.0004882813,0.03741455,59.74046,-76.854965,-94.381676,0
1636,0.10925293,0.0067749023,0.035949707,42.46565,-72.70992,-96.30534,0
1637,0.10241699,0.0065307617,0.0357666,33.396946,-72.770996,-96,0
1638,0.097595215,0.0020141602,0.032592773,38.70229,-63.816795,-87.03817,0
1639,0.09777832,-0.0021362305,0.03137207,50.40458,-53.900764,-68.84733,0
1640,0.10211182,-0.0021362305,0.02911377,53.809162,-43.900764,-54.267174,0
1641,0.109313965,-0.0095825195,0.024902344,21.229008,-25.076336,-40.78626,0
