measurement,Acc_X,Acc_Y,Acc_Z,Gyr_X,Gyr_Y,Gyr_Z,Label
0,0.08190918,0.030822754,0.0015258789,20.625954,-36.59542,-111.72519,11
1,0.08880615,0.023620605,0.0154418945,30.282442,-23.74809,-87.05344,11
2,0.09918213,0.027770996,0.016784668,36.91603,-14.832061,-60.809162,11
3,0.11206055,0.025512695,0.018310547,24.717558,-2.0839694,-47.91603,11
4,0.13104248,0.034118652,0.02746582,-14.175572,16.549618,-39.15267,11
5,0.14624023,0.034301758,0.041931152,-58.335876,-9.480916,-46.992367,11
6,0.13061523,0.047058105,0.03869629,-71.38931,-32.389313,-55.328243,11
7,0.1459961,0.0748291,0.0048217773,-86.34351,-20.022902,-57.34351,11
8,0.18017578,0.083862305,0.0357666,-117.37405,14.954199,-54.610687,11
9,0.13824463,0.097351074,0.025146484,-118.9771,-38.900764,-89.94656,11
10,0.10876465,0.12261963,0.048339844,-93.20611,-36.335876,-126.78626,11
11,0.096191406,0.13049316,0.0052490234,-51.809162,-13.877863,-115.0229,11
12,0.089538574,0.12432861,0.007385254,-28.312977,-37.282444,-108.41222,11
13,0.0637207,0.12097168,-0.003112793,18.267176,-38.21374,-121.16794,11
14,0.04925537,0.10723877,-0.008178711,38.015266,-19.076336,-116.9771,11
15,0.05053711,0.101867676,0.0044555664,31.396946,-14.587787,-107.51145,11
16,0.034973145,0.08728027,0.0017700195,47.67939,-23.496183,-130.8626,11
17,0.015075684,0.07312012,0.004211426,38.20611,-17.908398,-153.46565,11
18,0.010986328,0.06347656,0.0079956055,20.610687,-15.702291,-154.38931,11
19,0.0020751953,0.05871582,-0.012939453,2.0839694,-38.129772,-150.90076,11
20,0.0048217773,0.08105469,-0.020812988,-17.42748,8.152672,-135.85497,11
21,0.003112793,0.087402344,0.0006103516,10.923664,23.290077,-86.29008,11
22,0.0045166016,0.08129883,-0.012329102,96.381676,25.08397,-33.335876,11
23,0.016540527,0.0602417,-0.019836426,106,41.76336,10.076336,11
24,0.03125,0.10223389,-0.013183594,8.587787,64.87023,2.9923663,11
25,0.03161621,0.12408447,-0.01928711,-40.419846,23.160305,-17.877863,11
26,0.0078125,0.13519287,-0.011291504,-46.427483,-7.7938933,-21.732824,11
27,0.021484375,0.15924072,-0.0018920898,-58.412212,-26.625954,16.778625,11
28,0.036254883,0.1708374,0.012817383,-34.969467,3.1526718,21.450382,11
29,0.016235352,0.13153076,0.013183594,8.977099,27.91603,22.580153,11
30,0.032470703,0.10821533,-0.014892578,-15.320611,38.351147,-9.519084,11
31,0.022338867,0.13928223,0.025024414,-53.587788,56.717556,3.8396947,11
32,0.018676758,0.12896729,-0.004760742,18.358778,7.0305343,30.480917,11
33,0.014831543,0.09106445,0.025939941,8.557252,-44.32061,-12.435115,11
34,-0.005432129,0.07867432,-0.029418945,-55.50382,-1.0076336,-15.664123,11
35,0.0003051758,0.0848999,0.015197754,-85.21374,25.335878,-11.832061,11
36,0.0017700195,0.11694336,-0.020996094,-52.51145,23.114504,-1.6870229,11
37,0.011169434,0.11199951,-0.013977051,26.557251,21,-7.4885497,11
38,0.005432129,0.11193848,0.000793457,33.839695,15.473283,-7.0229006,11
39,0.015563965,0.10601807,0.0020751953,46.282444,0.66412216,-1.7709924,11
40,0.020629883,0.10321045,0.012329102,9.442748,8.5801525,-7.2061067,11
41,0.021606445,0.12860107,0.012512207,-33.82443,6.076336,-0.3129771,11
42,0.02166748,0.12792969,0.019226074,-56.84733,14.4198475,-12.435115,11
43,0.02557373,0.15289307,0.029907227,-63.396946,-3.5496182,-14.091603,11
44,0.0154418945,0.12609863,0.02154541,-75.58778,2.4961832,-15.664123,11
45,0.017089844,0.14935303,0.032714844,-96.03817,1.6030535,-6.9160304,11
46,0.015808105,0.18518066,0.037902832,-36.748093,3.465649,10.824428,11
47,0.02166748,0.15222168,0.029418945,17.305344,12.198473,3.5496182,11
48,0.0234375,0.10986328,0.01965332,7.335878,34.89313,-21.687023,11
49,0.027282715,0.13330078,0.014404297,-16.656488,33.251907,-15.923664,11
50,0.045043945,0.10900879,0.023071289,-30.854961,60.21374,-15.343512,11
51,0.026306152,0.10211182,0.03942871,-49.053436,4.854962,-22.91603,11
52,0.03479004,0.11767578,0.0064697266,-16.816793,0.9847328,-29.908398,11
53,0,0.091430664,0.030700684,-5.7862597,23.862595,-0.053435113,11
54,-0.004699707,0.078430176,0.036621094,-51.35878,0.14503817,-40.114502,11
55,-0.004760742,0.11425781,0.043701172,22.969465,7.1297708,10.465649,11
56,-0.01550293,0.07598877,0.002380371,78.40458,21.656488,-0.8854962,11
57,0.008239746,0.12182617,0.023742676,91.778625,31.152672,23.114504,11
58,0.028381348,0.11999512,0.027404785,69.0687,42.969467,30.526718,11
59,0.034301758,0.1149292,0.020690918,-24.778625,30.32061,-48.93893,11
60,-0.006713867,0.13653564,-0.02935791,-32.183205,-10.5801525,-31.694656,11
61,0.025939941,0.14880371,-0.026550293,-48.67939,-11.152672,-6.0992365,11
62,0.005493164,0.14642334,0.009521484,-62.129772,-32.374046,-17.557251,11
63,0.005432129,0.1616211,0.02520752,-97.27481,-24.23664,-31.229008,11
64,0.0107421875,0.190979,0.05267334,-94.32825,-18.038168,21.67939,11
65,0.030700684,0.14520264,0.07287598,-15.21374,16.396946,23.557251,11
66,0.029846191,0.099365234,0.0826416,24.57252,41.21374,-1.8625954,11
67,0.030212402,0.16436768,0.045043945,15.5801525,1.6793894,18.832062,11
68,0.022033691,0.13189697,0.028686523,74.419846,-17.25191,16.374046,11
69,0.0099487305,0.087524414,0.08001709,72.183205,10.083969,14.007633,11
70,0.00982666,0.06616211,0.054138184,11.870229,-46.580154,12.305344,11
71,0.008544922,0.12640381,0.02960205,5.816794,-45.664124,1.8854961,11
72,0.008544922,0.08544922,0.020446777,74.70992,5.1297708,-6.9770994,11
73,0.003479004,0.07946777,0.016784668,47.694656,14.40458,-11.0992365,11
74,-0.0045776367,0.085510254,0.051513672,-8.931297,23.717558,-5.854962,11
75,-0.01586914,0.10070801,0.10809326,3.908397,-6.9541984,8.374045,11
76,0.0032958984,0.11364746,0.025756836,31.10687,40.27481,-7.4274807,11
77,0.013977051,0.10467529,-0.0029296875,29.549618,32.74046,7.671756,11
78,0.015625,0.12298584,0.010620117,21.404581,11.908397,27.793894,11
79,0.022460938,0.15081787,0.036621094,13.641221,-18.80916,38.129772,11
80,0.020324707,0.17089844,0.044921875,62,-43.801525,32.76336,11
81,0.031433105,0.13977051,0.025817871,51.29771,-32.984734,21.022902,11
82,0.045898438,0.13562012,0.015380859,35.412212,-40.282444,45.79389,11
83,0.05456543,0.14361572,-0.040222168,100.24428,-59.519085,80.37405,11
84,0.049804688,0.084350586,-0.04852295,139.40459,-8.236641,66.099236,11
85,0.0814209,0.08013916,-0.045532227,-18.656488,-20.969465,31.70229,11
86,0.0892334,0.064819336,-0.027038574,-117.19847,2.3664122,63.954197,11
87,0.09741211,0.06665039,0.0119018555,-104.60305,-37.190838,60.648853,11
88,0.08227539,0.055664062,0.014099121,-45.053436,-101.34351,58.671757,11
89,0.068237305,0.041381836,0.022277832,16.267176,-133.38168,97.580154,11
90,0.06109619,0.045166016,0.03717041,64.84733,-159.80153,165.06107,11
91,0.056518555,0.028259277,0.034240723,91.16031,-105.08397,168.9313,11
92,0.06536865,0.042114258,0.019165039,78.70992,-22.23664,203.10687,11
93,0.08239746,0.057434082,0.020324707,31.358778,79.183205,247.57253,11
94,0.09863281,0.05670166,0.028686523,-30.48855,108.862595,250.12978,11
95,0.12408447,0.08856201,0.020080566,-55.748093,105.98473,214.85497,11
96,0.14923096,0.12023926,0.02331543,-6.335878,87.32061,206.19084,11
97,0.15893555,0.121032715,-0.010131836,61.34351,95.52672,230.12213,11
98,0.15472412,0.08312988,0.018859863,89.458015,114.56489,213.85497,11
99,0.15472412,0.050476074,0.025878906,45.625954,80.16031,158.57253,11
100,0.20013428,0.06640625,0.015075684,-0.091603056,117.64122,124.64122,11
101,0.17913818,0.0814209,-0.009521484,-17.977098,36.78626,98.69466,11
102,0.15704346,0.06854248,-0.0041503906,-3.8931298,8.78626,15.015267,11
103,0.17163086,0.07727051,0.007751465,34.648853,1.9541985,-27.473282,11
104,0.15539551,0.05078125,0.005554199,104.229004,-27.48855,-58.366413,11
105,0.1418457,0.028747559,0.02178955,122.07633,-44.15267,-100.35878,11
106,0.11779785,0.025024414,0.0048828125,83.44275,-76.66412,-120.45038,11
107,0.09844971,0.026367188,-0.0037231445,50.664124,-90.63359,-127.54962,11
108,0.08532715,0.024291992,-0.0076293945,30.465649,-68.778625,-142.17557,11
109,0.08428955,0.028076172,0.008544922,22.076336,-58.229008,-141.42747,11
110,0.09399414,0.029907227,0.012573242,28.343512,-43.580154,-123.824425,11
111,0.09729004,0.031921387,0.016296387,36.816795,-45.984734,-97.67939,11
112,0.10449219,0.02758789,0.025756836,33.53435,-43.160305,-78.73283,11
113,0.12017822,0.020629883,0.030151367,14.4198475,-36.91603,-56.59542,11
114,0.13256836,0.0036621094,0.055419922,-25.259542,-26.595419,-49.923664,11
115,0.13311768,-0.0041503906,0.072265625,-86.08397,-35.305344,-53.32061,11
116,0.1272583,0.005554199,0.07519531,-144.93893,-55.10687,-52.89313,11
117,0.10839844,0.013061523,0.05633545,-175.76335,-62.687023,-62.0229,11
118,0.15368652,0.0335083,0.056274414,-173.38931,13.106871,-39.82443,11
119,0.13116455,0.044433594,0.049682617,-139.03816,-3.3053436,10.526717,11
120,0.11779785,0.050231934,0.014465332,-71.32061,26.198473,47.076336,11
121,0.14300537,0.05529785,0.027038574,-11.519084,69.28244,109.57252,11
122,0.13934326,0.037597656,0.022888184,38.78626,49.52672,146.98473,11
123,0.13909912,0.043518066,-0.0032348633,73.30534,48.129772,109.96947,11
124,0.125,0.032165527,0.0001831055,23.770992,18.351145,91.69466,11
125,0.098083496,0.01763916,0.01171875,-55.091602,-15.045801,50.79389,11
126,0.08746338,0.018005371,0.020874023,-134.91603,-39.862595,6.7099237,11
127,0.08270264,0.0423584,-0.003479004,-125.0458,-87.824425,-2.4961832,11
128,0.09106445,0.07305908,-0.005432129,-45.717556,-32.85496,43.419846,11
129,0.09875488,0.03338623,0.03869629,-10.442748,25.015266,95.541985,11
130,0.08868408,0.010681152,0.039611816,-57.969467,12.4198475,65.07633,11
131,0.107788086,0.041381836,0.042053223,-140.55725,31.068703,32.862595,11
132,0.124694824,0.051879883,0.0178833,-175.32062,19.91603,1.3282443,11
133,0.14569092,0.091552734,0.016235352,-140.55725,28.923664,-1.7938931,11
134,0.14331055,0.108947754,0.031921387,-107.71756,25.480917,-9.984733,11
135,0.12359619,0.10571289,-0.0079956055,-30.961832,-4.6793895,-26.816793,11
136,0.18487549,0.11029053,0.015563965,3.7862597,67.229004,-18.290077,11
137,0.16796875,0.101989746,0.03387451,34.17557,3.0305343,-17.93893,11
138,0.13232422,0.07373047,0.049926758,50.25954,-26.404581,-56.816795,11
139,0.14147949,0.08013916,0.041259766,80.76336,-55.74046,-81.47328,11
140,0.1394043,0.09240723,0.07098389,164.39694,-32.076336,-57.229008,11
141,0.14550781,0.07409668,0.105773926,203.64885,-5.9160304,-45.839695,11
142,0.10687256,0.040222168,0.089538574,171.35878,-20.358778,-98.98473,11
143,0.08795166,0.05114746,0.059814453,128.09924,-22.816793,-134.31297,11
144,0.08831787,0.044006348,0.052246094,62.51145,5.89313,-178.9771,11
145,0.067871094,0.04925537,0.068481445,23.007633,7.0534353,-224.87022,11
146,0.058288574,0.053466797,0.05102539,18.51145,-4.847328,-228.92366,11
147,0.055236816,0.06719971,0.025634766,14.160305,29.068703,-196.0458,11
148,0.073791504,0.08215332,0.0095825195,13.083969,55.580154,-139.64885,11
149,0.06604004,0.057678223,0.022583008,11.709924,93.862595,-101.96947,11
150,0.0692749,0.05114746,0.049438477,-28.977098,52.114502,-108.62595,11
151,0.084228516,0.10760498,0.015075684,18.312977,26.48855,-48.015266,11
152,0.19976807,0.000793457,-0.036193848,0.7633588,50.59542,13.916031,11
153,0.11199951,0.10192871,-0.018310547,-77.59542,-28.824427,-20.969465,11
154,0.047851562,0.11932373,0.120788574,-45.305344,60.190838,-60.59542,11
155,0.0970459,0.20007324,0.022277832,-49.08397,-214.40459,13.343512,11
156,0.08319092,0.1305542,0.05053711,14.572519,-53.190838,77.76336,11
157,0.08892822,0.09661865,0.009094238,14.78626,-9.992367,-60.091602,11
158,0.06945801,0.12994385,0.046447754,-31.091602,44.83206,-12.702291,11
159,0.061340332,0.071899414,0.018127441,39.091602,112.42748,-4.374046,11
160,0.04058838,0.039978027,0.054748535,24.946566,63.610687,-22.076336,11
161,0.06524658,0.13928223,-0.0021972656,58.32061,-35.519085,-34.412212,11
162,0.039733887,0.07232666,0.006225586,112.496185,13.824428,-13.442748,11
163,0.036071777,0.05822754,-0.0033569336,71.19847,-15.450381,-24.137405,11
164,0.0390625,0.0826416,-0.0032348633,51.068703,2.610687,-25.57252,11
165,0.046813965,0.10559082,0.004211426,71.96183,-24.290077,-10.648855,11
166,0.04425049,0.10614014,-0.010803223,110.39695,-43.34351,2.5648854,11
167,0.052124023,0.104003906,0.019348145,126.38931,-34.40458,10.267176,11
168,0.051635742,0.09838867,-0.0099487305,104.16031,-10.015267,17.91603,11
169,0.053771973,0.09539795,-0.0068359375,48.79389,-1.6335878,18.687023,11
170,0.05718994,0.11035156,-0.011291504,15.290076,4.3587785,17.282442,11
171,0.06964111,0.13024902,-0.0107421875,-0.66412216,28.145039,21.57252,11
172,0.09100342,0.17028809,-0.0146484375,-12.511451,52.40458,48.374046,11
173,0.10046387,0.13903809,-0.0057373047,55.961834,55.076336,66.58778,11
174,0.09020996,0.09680176,0.01361084,90.80153,58.15267,26.89313,11
175,0.08325195,0.08947754,-6.1035156E-05,53.870228,36.312977,19.274809,11
176,0.07092285,0.08251953,-0.014953613,12.488549,22.89313,19.42748,11
177,0.06854248,0.08850098,-0.0076293945,3.3816793,20.450382,8.061069,11
178,0.05078125,0.08428955,-0.0065307617,21.824427,4.740458,18.076336,11
179,0.05505371,0.06744385,-0.011291504,50.900764,10.526717,-2.5038168,11
180,0.043884277,0.05041504,-0.023254395,49.450382,15.435115,-11.587787,11
181,0.041748047,0.05267334,-0.018737793,25.832062,20.534351,-9.503817,11
182,0.04510498,0.062805176,-0.020507812,7.442748,15.305344,-5.6412215,11
183,0.056274414,0.085510254,-0.019226074,16.900763,16.412214,2.8625953,11
184,0.06866455,0.08660889,-0.017822266,20.709923,24.778625,8.854961,11
185,0.07513428,0.08898926,-0.016357422,9.198473,8.374045,11.7404585,11
186,0.087524414,0.10650635,-0.02130127,-4.19084,5.6183205,17.832062,11
187,0.101623535,0.11218262,-0.02154541,-21.305344,10.801527,25.358778,11
188,0.10839844,0.111572266,-0.016967773,-36.14504,-7.0992365,17.08397,11
189,0.10748291,0.11791992,-0.02166748,-43.114502,-4.557252,11.847328,11
190,0.10827637,0.12878418,-0.030212402,-34.427483,3.1755726,22.992367,11
191,0.10284424,0.11444092,-0.03967285,6.3969464,13.610687,16.114504,11
192,0.101623535,0.09655762,-0.040100098,48.85496,37.10687,1.4274809,11
193,0.103393555,0.08465576,-0.027709961,65.0687,31.816793,2.9007633,11
194,0.10241699,0.07775879,-0.0071411133,69.29771,24.946566,-4.9541984,11
195,0.085510254,0.06829834,0.0003051758,59.969467,-4.6870227,-12.267176,11
196,0.08013916,0.059814453,-0.009460449,51.76336,-30.57252,-17.76336,11
197,0.06121826,0.039733887,-0.0052490234,42.633587,-42.755726,-34.53435,11
198,0.052368164,0.03302002,-0.005432129,8.374045,-55.16794,-45.08397,11
199,0.047912598,0.042785645,-0.0099487305,-21.335878,-64.01527,-40.587788,11
200,0.05218506,0.06304932,-0.021850586,-17.480917,-54.992367,-34.72519,11
201,0.05419922,0.07141113,-0.026611328,-11.167939,-36.06107,-24.839695,11
202,0.06365967,0.076171875,-0.03466797,1.870229,-23.412214,-13.236641,11
203,0.061523438,0.0725708,-0.038269043,7.519084,-13.641221,-24.862595,11
204,0.06451416,0.08770752,-0.05267334,-8.725191,-11.893129,-13.473283,11
205,0.064331055,0.097961426,-0.04333496,-21.25191,-5.3511453,-10.549619,11
206,0.066223145,0.105895996,-0.0657959,-27.564886,11.977099,-15.450381,11
207,0.06829834,0.109069824,-0.05053711,-27.946566,24.358778,-7.3587785,11
208,0.09118652,0.14715576,-0.051330566,-23.152672,39.625954,8.59542,11
209,0.10357666,0.1505127,-0.03515625,30.137405,39.030533,18.10687,11
210,0.089904785,0.1026001,-0.028686523,67.51145,7.8625956,-5.5725193,11
211,0.08026123,0.08666992,-0.025390625,40.44275,4.9083967,-14.320611,11
212,0.07775879,0.082092285,-0.02923584,17.076336,-0.8091603,-6.412214,11
213,0.064453125,0.0770874,-0.014892578,6.3893127,-5.2671757,-20.38168,11
214,0.066833496,0.07922363,-0.029418945,5.412214,1.6641221,-13.954199,11
215,0.057373047,0.06323242,-0.013793945,6.328244,1.6335878,-6.114504,11
216,0.050048828,0.06329346,-0.0256958,-4.152672,8.938931,-23.732824,11
217,0.053649902,0.06036377,-0.02960205,14.290076,33.351147,-25.389313,11
218,0.051086426,0.049438477,-0.03540039,14.465649,40.221375,-42.290077,11
219,0.047607422,0.066467285,-0.026611328,9.725191,38.10687,-50.328243,11
220,0.051757812,0.09033203,-0.02911377,10.725191,32.816795,-33.20611,11
221,0.05859375,0.099487305,-0.026916504,23.23664,36.053436,-26.335878,11
222,0.068115234,0.107055664,-0.0073242188,22.458015,39.64122,-10.076336,11
223,0.07647705,0.09991455,-0.0095825195,4.0458016,25.625954,3.4885497,11
224,0.078125,0.09082031,-0.027954102,-18.595419,21.450382,2.961832,11
225,0.07775879,0.09161377,-0.030944824,-59.50382,27.114504,3.9389312,11
226,0.08569336,0.12347412,-0.019165039,-101.23664,36.70229,26.396946,11
227,0.08984375,0.14129639,-0.017211914,-58.91603,37.664124,40.34351,11
228,0.09088135,0.11291504,-0.02130127,20.259542,59.53435,29.541985,11
229,0.09423828,0.08935547,-0.012878418,43.244274,60.29771,21.137405,11
230,0.099365234,0.07312012,-0.0071411133,38.27481,47.79389,4.557252,11
231,0.095825195,0.06762695,0.008056641,14.793893,26.534351,-10.954199,11
232,0.087402344,0.072753906,0.015197754,-10.091603,-10.358779,-10.5801525,11
233,0.06982422,0.07147217,0.010437012,-22.267176,-42.32061,-20.549618,11
234,0.06317139,0.06524658,-0.0048217773,-25.175573,-59.412212,-34.61832,11
235,0.054504395,0.053833008,-0.005432129,-15.38168,-59.38168,-42.74046,11
236,0.05230713,0.059936523,-0.019042969,-27.977098,-44.70229,-50.129772,11
237,0.052490234,0.066833496,-0.011230469,-47.541985,-36.480915,-46.755726,11
238,0.051208496,0.08514404,-0.020263672,-52.931297,-31.931297,-48.580154,11
239,0.06323242,0.10272217,-0.020507812,-40.08397,-35.015266,-40.51145,11
240,0.060302734,0.1081543,-0.023376465,-31.38168,-24.801527,-32.55725,11
241,0.057922363,0.12182617,-0.024230957,-21.267176,-20.23664,-31.022902,11
242,0.06085205,0.12921143,-0.021484375,-3.167939,-15.435115,-31.145039,11
243,0.055541992,0.13183594,-0.019958496,11.427481,-9.38168,-24.923664,11
244,0.059020996,0.13458252,-0.014587402,-12.328244,1.0763359,-20.541985,11
245,0.06524658,0.14245605,-0.015930176,-14.305344,31.458015,-13.664123,11
246,0.0670166,0.12908936,-0.006225586,0.1908397,29.351145,-28.328245,11
247,0.0657959,0.13104248,0.0006103516,8.61832,29.977098,-31.328245,11
248,0.05883789,0.11651611,0.0038452148,34.65649,11.465649,-20.122137,11
249,0.049804688,0.099609375,0.004699707,41.519085,11.312977,-32.91603,11
250,0.044555664,0.08544922,-0.0060424805,14.7404585,18.709923,-33.20611,11
251,0.04510498,0.08129883,-0.008728027,-16.87023,20.122137,-34.923664,11
252,0.040222168,0.07080078,-0.012451172,-20.732824,1.3435115,-54.137405,11
253,0.035827637,0.067993164,-0.0057373047,-32.48855,-6.1755724,-64.9542,11
254,0.036071777,0.082214355,-0.011657715,-68.57252,-6.3969464,-85.9771,11
255,0.04901123,0.11279297,-0.0045776367,-72.00764,-0.47328246,-81.43511,11
256,0.051635742,0.1227417,0.001159668,-35.396946,-1.1984733,-79.458015,0
257,0.05810547,0.1274414,0.0002441406,-7.7633586,-14.480916,-74.89313,0
258,0.051452637,0.13519287,0.006652832,-29.89313,-30.450382,-73.79389,0
259,0.051696777,0.15325928,0.0001831055,-28.442749,-54.47328,-59.732826,0
260,0.04638672,0.15222168,0.014953613,15.358779,-57.12214,-49.229008,0
261,0.016662598,0.13604736,0.054748535,-19.877863,-66.419846,-53.84733,0
262,0.013061523,0.1449585,0.059570312,-103.96947,-70.15267,-55.045803,0
263,0.009643555,0.14758301,0.04260254,-98.67175,-84.35114,-19.290077,0
264,0.004272461,0.10900879,0.026123047,-75.56489,-38.961834,-38.770992,0
265,0.00390625,0.10620117,0.04498291,-94.42748,16.053434,-48.564884,0
266,0.006591797,0.10614014,0.041137695,-117.69466,21.969465,-21.221375,0
267,0.009399414,0.115478516,0.029174805,-71.183205,25.70229,-2.40458,0
268,0.00579834,0.103271484,0.0095825195,-11.022901,24.595419,5.2671757,0
269,0.0020141602,0.095581055,0.021728516,23.160305,38.74046,-5.3969464,0
270,0.033691406,0.097351074,-0.010803223,10.305344,-20.175573,-6.10687,0
271,0.0056152344,0.117614746,-0.041259766,37.328243,-6.0152674,6.2671757,0
272,0.0037231445,0.08734131,-0.017944336,0.6793893,-13.854961,-15.40458,0
273,0.0067749023,0.12365723,0.03643799,-10.564885,-76.87023,-20.137405,0
274,0.009460449,0.15441895,0.03100586,74.137405,-50.114502,-16.290077,0
275,-0.025939941,0.12976074,0.045166016,108.145035,-11.923664,-35.244274,0
276,-0.013549805,0.14672852,0.025634766,44.519085,9.541985,-29.259542,0
277,0.005493164,0.17340088,-0.014831543,89.29008,-5.2366414,-7.0992365,0
278,0.003112793,0.13879395,-0.0068359375,116.41222,22.534351,-18.862595,0
279,0.019104004,0.18969727,-0.049194336,52.580154,-61.541985,-2.9389312,0
280,-0.0076293945,0.13867188,0.0072021484,87.91603,-14.793893,2.9923663,0
281,0.010925293,0.14630127,-0.016113281,54.625954,-30.946566,-13.969465,0
282,0.003967285,0.10632324,-0.0099487305,72.51145,-34.450382,-25.007633,0
283,-0.008972168,0.06530762,-0.011657715,68.56489,-46.610687,21.549618,0
284,0.0029296875,0.057922363,-0.005004883,78.55725,-44.778625,78.19847,0
285,0.023376465,0.06121826,0.0032348633,87.10687,-34.038166,128.83969,0
286,0.028320312,0.045654297,0.010498047,101.541985,-11.21374,143.56488,0
287,0.03704834,0.028808594,0.010986328,89.580154,6.1679387,163.93893,0
288,0.04876709,0.018310547,0.043029785,60.52672,12.022901,178.07634,0
289,0.057617188,0.018981934,0.011169434,27.465649,29.770992,187.58778,0
290,0.087768555,0.031921387,-0.001159668,4.0610685,73.71756,210.23665,0
291,0.11834717,0.03894043,0.012451172,-8.396947,158.83969,237.70229,0
292,0.14916992,0.028442383,0.044921875,-34.419846,201.30534,248.7939,0
293,0.1809082,0.02178955,0.08392334,-109.67175,184.69466,239.58015,0
294,0.20428467,0.028320312,0.12854004,-189.84734,154.09924,204.41222,0
295,0.21160889,0.030090332,0.12963867,-250.1374,66.24428,153.69466,0
296,0.21466064,0.03753662,0.12298584,-250.1374,18.877863,90.67175,0
297,0.24609375,0.057922363,0.1381836,-250.1374,47.709923,116.419846,0
298,0.23431396,0.0758667,0.104003906,-239.2519,-4.8320613,135.229,0
299,0.20800781,0.0993042,0.07104492,-133,25,195.74046,0
300,0.1739502,0.08300781,0.07336426,-62.328243,11.2595415,223.38931,0
301,0.13665771,0.062438965,0.051818848,-22.076336,-31.801527,191.66412,0
302,0.10638428,0.042053223,0.041992188,-20.832062,-52.374046,110.25191,0
303,0.104003906,0.030578613,0.028625488,-53.366413,-13.923664,12.664123,0
304,0.087402344,0.028320312,0.016784668,-81.47328,17.595419,-54.67939,0
305,0.0791626,0.040405273,0.027648926,-97.62595,38.221375,-76.099236,0
306,0.08459473,0.041381836,0.02508545,-92.98473,73.29771,-69.35114,0
307,0.09686279,0.04248047,0.02368164,-84.16031,49.12214,-58.10687,0
308,0.10437012,0.06695557,0.00970459,-52.862595,27.862595,-25.503817,0
309,0.093933105,0.06915283,0.0033569336,-19.854961,6.4656487,31.969465,0
310,0.09680176,0.055725098,0.023254395,-5,0.6793893,65.21374,0
311,0.113464355,0.051208496,0.014343262,7.442748,-1.9236641,81.16794,0
312,0.13513184,0.06201172,0.035888672,34.809162,13.801527,85.580154,0
313,0.14978027,0.06414795,0.013549805,66.80916,27.664122,90.80916,0
314,0.15527344,0.058776855,0.029296875,94.83206,20.030535,67.78626,0
315,0.18206787,0.06384277,0.045532227,132.64122,-5.114504,54.10687,0
316,0.17730713,0.052978516,0.048828125,160.57253,-44.694656,21.259542,0
317,0.1586914,0.018127441,0.08117676,140.38168,-83.8855,-50.08397,0
318,0.17559814,0.0026855469,0.08355713,85.9771,-95.71756,-116.07633,0
319,0.18060303,0.0006103516,0.07873535,28.480917,-74.75572,-182.30534,0
320,0.18170166,0.019714355,0.07550049,-10.160305,-46.91603,-235.62596,0
321,0.1663208,0.03466797,0.091918945,-20.908398,-36.099236,-250.1374,0
322,0.14782715,0.038146973,0.08203125,-6.587786,-52.89313,-250.1374,0
323,0.13348389,0.033996582,0.081604004,8.427481,-56.099236,-250.1374,0
324,0.12298584,0.027770996,0.07116699,32.74046,-24,-250.1374,0
325,0.12438965,0.020202637,0.057128906,74.96947,6.6870227,-250.1374,0
326,0.11834717,0.029418945,0.07080078,127.64122,39.129772,-193.29771,0
327,0.11621094,0.010925293,0.057006836,172.63359,36.038166,-126.32061,0
328,0.1104126,-0.008361816,0.057128906,186.0458,16.267176,-77.35114,0
329,0.108947754,-0.021606445,0.06903076,154.10687,-0.9312977,-21.969465,0
330,0.10119629,-0.029968262,0.07836914,82.16794,-29,13.687023,0
331,0.097595215,-0.019226074,0.055419922,2.053435,-18.70229,33.34351,0
332,0.115478516,0.0045776367,0.035461426,-47.34351,17.122137,69.69466,0
333,0.15466309,0.019165039,0.07623291,-79.54962,81.740456,132.2519,0
334,0.14660645,0.021118164,0.0859375,-88.503815,40.10687,146.62596,0
335,0.15319824,0.05621338,0.06744385,-83.57252,23.93893,173.27481,0
336,0.15600586,0.046936035,0.045776367,-60.015266,37.198475,216.40459,0
337,0.15911865,0.03729248,0.04547119,-24.496183,47.954197,214.54199,0
338,0.14697266,0.028564453,0.04437256,3.4503818,46.931297,177.0916,0
339,0.12133789,0.01940918,0.042785645,3.3587787,16.312977,142.73282,0
340,0.090270996,0.0032958984,0.04333496,-27.442749,-9.946565,93.60305,0
341,0.08087158,0.008728027,0.027648926,-73.01527,7.4503818,48.67939,0
342,0.095947266,0.026550293,0.018127441,-103.29008,46.14504,42.15267,0
343,0.104003906,0.040649414,0.0010375977,-103.00764,87.03053,65.70992,0
344,0.11730957,0.054992676,0.007751465,-83.92367,79.60305,97.01527,0
345,0.13519287,0.05895996,0.022094727,-56.129772,65.9313,102.70229,0
346,0.14630127,0.05670166,0.0335083,-42.053436,48.14504,140.72519,0
347,0.1618042,0.043640137,0.05206299,-40.65649,46.137405,134.44275,0
348,0.17718506,0.047973633,0.034301758,-45.40458,13.648855,118.08397,0
349,0.16271973,0.054260254,0.028381348,-40.64122,9.160305,83.63359,0
350,0.17572021,0.05810547,0.027893066,-36.290077,37.931297,43.870228,0
351,0.19561768,0.06286621,0.021057129,-6.3816795,-8.114504,16.587786,0
352,0.14440918,0.05065918,0.041931152,18.900763,-38.87786,-41.183205,0
353,0.12164307,0.034606934,0.042785645,28.267176,-46.419846,-100.08397,0
354,0.15637207,0.03302002,0.06317139,44.419846,-22.450382,-125.229004,0
355,0.16882324,0.02947998,0.057373047,68.92367,-26.221375,-144.3435,0
356,0.15704346,0.032836914,0.047790527,76.39695,-13.9007635,-171.32062,0
357,0.14019775,0.04046631,0.0657959,73.0229,-29.25191,-182.71756,0
358,0.12188721,0.026000977,0.05657959,69.99236,-40.671757,-196.63359,0
359,0.11462402,0.02178955,0.054260254,72.496185,-57.83206,-213.78625,0
360,0.11022949,0.024047852,0.048583984,63.541985,-53.91603,-221.3435,0
361,0.10803223,0.022949219,0.03363037,69.94656,-37.84733,-215.74046,0
362,0.11987305,0.023742676,0.0725708,95.80153,14.61832,-195.54962,0
363,0.11230469,0.0076293945,0.083984375,115.79389,10.2595415,-154.16794,0
364,0.11657715,0.004638672,0.068115234,107.80153,9.709924,-123.64886,0
365,0.1361084,0.02154541,0.056884766,86.29771,-17.435114,-52.427483,0
366,0.14355469,0.008361816,0.09350586,56.572517,-18.51145,4.5267177,0
367,0.121398926,-0.014953613,0.06628418,22.030535,-40.16794,19.305344,0
368,0.11340332,-0.014770508,0.060791016,-28.984734,-44.305344,26.984734,0
369,0.14489746,0.0018920898,0.07647705,-79.92367,14.709924,69.47328,0
370,0.1328125,0.02960205,0.06744385,-88.63359,3.7099237,95.58778,0
371,0.13476562,0.050109863,0.04144287,-66.08397,35.045803,140.67175,0
372,0.15472412,0.056640625,0.033081055,-31.305344,43.89313,205.35878,0
373,0.16491699,0.04675293,0.020874023,22.74809,42.198475,227.46565,0
374,0.15289307,0.030090332,0.057556152,64.32825,47.312977,196.40459,0
375,0.11450195,0.0022583008,0.081604004,35.961834,-20.648855,146.23665,0
376,0.0836792,-0.018920898,0.05834961,-41.458015,-55.190838,63.74046,0
377,0.09082031,-0.011108398,0.026916504,-113.099236,-71.89313,13.717557,0
378,0.07019043,0.014892578,0.0099487305,-154.9542,-17.358778,-22.48855,0
379,0.07714844,0.030761719,0.011657715,-184.64122,81.503815,-5.671756,0
380,0.10058594,0.04498291,0.042907715,-179.99237,101.34351,5.2671757,0
381,0.099975586,0.062316895,0.030822754,-137.24428,30.946566,29.366413,0
382,0.098083496,0.07574463,0.018615723,-68.35878,13.648855,73.01527,0
383,0.124938965,0.07672119,0.02166748,-4.10687,34.190838,157.82443,0
384,0.16308594,0.07373047,0.025878906,63.46565,49.74046,206.0916,0
385,0.17694092,0.05987549,0.03326416,91.98473,86.900764,203.83206,0
386,0.19616699,0.032470703,0.05859375,66.061066,53.35878,165.48856,0
387,0.22607422,0.032226562,0.064941406,28.946566,14.694656,116.854965,0
388,0.17541504,0.016174316,0.066223145,-32.954197,-57.229008,7.7633586,0
389,0.123413086,0.0017089844,0.024047852,-101.9313,-118.75572,-131.06107,0
390,0.15197754,0.019104004,0.04248047,-78.458015,3.4961832,-201.61832,0
391,0.16247559,0.026062012,0.07409668,-38.053436,-12.763359,-228.771,0
392,0.14916992,0.041809082,0.061157227,3.908397,3.6259542,-250.1374,0
393,0.13311768,0.05645752,0.059692383,44.183205,16.595419,-250.1374,0
394,0.121398926,0.031677246,0.05114746,75.34351,4.633588,-233.12213,0
395,0.08996582,-0.001953125,0.043884277,92.618324,-21.312977,-212.38931,0
396,0.07562256,0.005859375,0.022277832,95.96947,-60.748093,-176.78625,0
397,0.09564209,0.015380859,0.035339355,88.56489,-21.603054,-122.80153,0
398,0.09509277,0.005493164,0.03137207,88.31298,5.2366414,-77.47328,0
399,0.10839844,0.004638672,0.039733887,78.53435,28.671755,-32.72519,0
400,0.1159668,-0.010498047,0.062194824,61.984734,22.984734,2.038168,0
401,0.12628174,-0.020507812,0.06463623,34.16794,6.7862597,-0.015267176,0
402,0.13909912,-0.0018920898,0.07977295,-10.274809,-3.8931298,33.045803,0
403,0.13769531,-0.010009766,0.08892822,-52.412212,-18.694656,36.732826,0
404,0.13476562,0.0045166016,0.07104492,-93.37405,-18.694656,36.694656,0
405,0.15686035,0.030029297,0.06866455,-122.92367,18.312977,69.08397,0
406,0.18029785,0.03186035,0.08709717,-139.77863,29.801527,117.770996,0
407,0.14837646,0.047790527,0.07122803,-122.503815,9.5801525,128.7481,0
408,0.1619873,0.062561035,0.05987549,-93.580154,9.648855,162.70229,0
409,0.16638184,0.06213379,0.034729004,-27.969465,-10.847328,204.0458,0
410,0.13916016,0.057250977,0.025756836,58.732826,-20.351145,184.74046,0
411,0.097351074,0.022460938,0.039367676,96.72519,-10.854961,132.42747,0
412,0.082336426,-0.011657715,0.036499023,63.48855,-37.47328,48.580154,0
413,0.06793213,-0.025268555,0.036315918,-14.076336,-48.21374,-29.274809,0
414,0.06896973,-0.0010375977,0.0115356445,-102.48855,1.4580153,-60.27481,0
415,0.07952881,0.01965332,0.0546875,-159.67938,79.816795,-45.328243,0
416,0.101867676,0.041870117,0.05633545,-163.14503,81.12214,-33.305344,0
417,0.10498047,0.055908203,0.04626465,-129.60306,21.76336,-26.053434,0
418,0.11035156,0.07019043,0.064086914,-78.05344,-2.1145039,15.022901,0
419,0.12322998,0.057006836,0.040283203,-40.305344,8.534351,71.89313,0
420,0.14715576,0.049804688,0.051330566,-14.839695,16.343512,91.83969,0
421,0.16033936,0.05102539,0.068237305,8.824428,29.412214,82.83206,0
422,0.15203857,0.053955078,0.048339844,19.885496,18.541985,67.541985,0
423,0.17419434,0.046203613,0.058288574,19.183207,30.839695,45.862595,0
424,0.17718506,0.052490234,0.032226562,47.580154,-30.503817,17.770992,0
425,0.14715576,0.03918457,0.05810547,72.27481,-24.854961,-22.931297,0
426,0.1538086,0.019958496,0.095458984,66.66412,-34.78626,-64.41222,0
427,0.1550293,0.018188477,0.055786133,66.137405,-51.93893,-98.42748,0
428,0.15325928,0.018371582,0.06854248,62.099236,-21.206106,-132.45801,0
429,0.14123535,0.01953125,0.068725586,45.007633,-14.458015,-153.50381,0
430,0.12768555,0.02154541,0.080078125,21.610687,-22.175573,-171.47328,0
431,0.10986328,0.021850586,0.061523438,15.59542,-46.709923,-190.46565,0
432,0.089782715,0.018249512,0.06213379,16.541985,-43.328243,-189.8855,0
433,0.07366943,0.022705078,0.06335449,30.519083,-47.244274,-162.9771,0
434,0.07354736,0.020385742,0.03967285,52.587788,-16.068703,-148.0229,0
435,0.082092285,0.028381348,0.04071045,99.145035,31.91603,-93.96183,0
436,0.091308594,0.027709961,0.04626465,138.29771,60.08397,-25.908398,0
437,0.116882324,0.031433105,0.07019043,149.25954,46.17557,43.55725,0
438,0.14483643,0.023803711,0.07519531,126.51908,51.51145,89.259544,0
439,0.14178467,-0.0015869141,0.122680664,75.94656,4.9847326,98.29771,0
440,0.12420654,-0.012939453,0.10681152,-11.389313,-44.374046,62.49618,0
441,0.117370605,-0.008972168,0.06188965,-105.770996,-45.10687,29.480917,0
442,0.15008545,0.010009766,0.11126709,-169.80916,29.473282,23.877863,0
443,0.12487793,0.035339355,0.076293945,-182.2061,6.9389315,16.564886,0
444,0.13232422,0.05859375,0.041015625,-147.32062,14.427481,32.93893,0
445,0.15979004,0.0713501,0.03564453,-70.44275,9.030535,105.62595,0
446,0.14733887,0.057800293,0.04284668,37.961834,24.534351,126.37405,0
447,0.13183594,0.04034424,0.044006348,116.00764,17.946566,110.824425,0
448,0.09277344,0.010986328,0.0501709,134.76335,-17.42748,84.87786,0
449,0.068481445,-0.017456055,0.029968262,97.47328,-48.053436,26.641222,0
450,0.07305908,-0.01776123,0.013000488,13.473283,-55.08397,-16.29771,0
451,0.06964111,0.011047363,-0.013366699,-64.57252,14.854961,-4.412214,0
452,0.0947876,0.03692627,-0.009155273,-76.46565,61.687023,50.992367,0
453,0.11425781,0.04168701,0.022827148,-48.290077,39.160305,83,0
454,0.11236572,0.04638672,0.028076172,-19.206106,24.213741,70.65649,0
455,0.12225342,0.047180176,0.008850098,-10.717557,8.633588,101.87786,0
456,0.14544678,0.0390625,0.03692627,-11.717557,21.519083,93.71756,0
457,0.1517334,0.035827637,0.033447266,-22.61832,12.923664,71.28244,0
458,0.14190674,0.042297363,0.027404785,-25.557251,0.84732825,28.435114,0
459,0.16467285,0.04345703,0.01727295,-18.770992,36.778625,10.992367,0
460,0.19689941,0.042175293,0.060791016,-7.19084,24.587786,4.2061067,0
461,0.17047119,0.043029785,0.04827881,3.9160306,-16.580153,-39.969467,0
462,0.16619873,0.02709961,0.07043457,0.90076333,-17.641222,-71.83969,0
463,0.1854248,0.021911621,0.07305908,2.664122,-50.809162,-99.419846,0
464,0.14404297,0.01751709,0.061279297,11.412213,-43.221375,-139.71756,0
465,0.121398926,0.019592285,0.08068848,-2.442748,-33.839695,-170.07634,0
466,0.097839355,0.023742676,0.044067383,-14.854961,-26.832062,-191.96947,0
467,0.08862305,0.022888184,0.04724121,-4.3969464,-21.007633,-201.229,0
468,0.07476807,0.022827148,0.02557373,23.23664,-12.961832,-189.55725,0
469,0.07531738,0.024108887,0.017578125,58.83206,0.519084,-156.38931,0
470,0.077697754,0.015197754,0.03253174,87.64122,21.923664,-112.175575,0
471,0.08807373,0.010498047,0.062072754,100.16794,35.396946,-62.06107,0
472,0.0993042,0.006591797,0.06524658,102.0687,35.610687,-22.12977,0
473,0.11090088,0.0033569336,0.073791504,82.16794,22.259542,17.404581,0
474,0.13305664,0.012817383,0.05407715,46.480915,25.740458,65.48092,0
475,0.14886475,0.010070801,0.10021973,4.961832,13.625955,96.816795,0
476,0.1375122,0.010437012,0.08734131,-39.29771,-14.2595415,93.580154,0
477,0.14666748,0.011962891,0.093444824,-88.9313,5.885496,83.87786,0
478,0.16149902,0.0107421875,0.10638428,-144.46565,13.2213745,100.67939,0
479,0.13806152,0.038269043,0.07385254,-155,9.946565,92.39695,0
480,0.17004395,0.08251953,0.04901123,-109.89313,27.206106,133.35878,0
481,0.18585205,0.10333252,0.029846191,-5.3893127,4.2671757,215.47328,0
482,0.14672852,0.07104492,0.04815674,115.618324,17.122137,197.68703,0
483,0.110961914,0.023376465,0.053710938,172.17557,-63.27481,126.19847,0
484,0.08325195,-0.01739502,0.023010254,152.61069,-98.12977,13.709924,0
485,0.05810547,-0.04486084,0.012939453,55.862595,-90.83206,-90.48092,0
486,0.05718994,-0.030029297,-0.015930176,-105.05344,-63.08397,-111.43511,0
487,0.06518555,0.005432129,0.015808105,-217.1145,14.7404585,-83.35878,0
488,0.08111572,0.034057617,0.02935791,-229.9084,79.74809,-73.900764,0
489,0.10498047,0.068481445,0.05218506,-151.93893,35.603054,-57.450382,0
490,0.11505127,0.07336426,0.047851562,-61.007633,19.48855,-48.15267,0
491,0.12524414,0.07556152,0.03894043,12.091603,-2.1068702,31.992367,0
492,0.13586426,0.05340576,0.047851562,57.412212,8.19084,72.37405,0
493,0.13922119,0.032287598,0.04949951,72.19084,13.396947,65.35878,0
494,0.12231445,0.029663086,0.0715332,53.748093,2.8244274,25.045801,0
495,0.14996338,0.0368042,0.054626465,19.122137,36.53435,4.923664,0
496,0.18273926,0.054626465,0.05908203,19.595419,28.534351,17.74809,0
497,0.12371826,0.042785645,0.061645508,41.427483,-10.122137,-21.282442,0
498,0.11987305,0.032226562,0.06402588,43.091602,1.2137405,-51.52672,0
499,0.15881348,0.047851562,0.05596924,70.9313,-8.793893,-25.274809,0
500,0.14178467,0.03540039,0.051513672,108.43511,23.32061,-49.91603,0
501,0.1116333,0.03149414,0.05706787,87.59542,11.19084,-66.60305,0
502,0.099731445,0.032287598,0.04321289,50.900764,-13.244275,-63.55725,0
503,0.08795166,0.026794434,0.019042969,41.603054,-13.78626,-80.51908,0
504,0.07897949,0.03149414,0.010192871,38.52672,-26.67939,-85.938934,0
505,0.07977295,0.03466797,0.0005493164,41.564884,-13.496183,-67.74809,0
506,0.097961426,0.038757324,0.026916504,52.21374,23.862595,-52.717556,0
507,0.10974121,0.030456543,0.039611816,54.038166,19.534351,-29.496183,0
508,0.12445068,0.025146484,0.049072266,47.580154,20.89313,-32.48855,0
509,0.15563965,0.026489258,0.0748291,32.412212,9.328244,-12.671756,0
510,0.16430664,0.020751953,0.055358887,19.977098,-8.801527,-24.48855,0
511,0.13922119,0.026672363,0.04534912,5.7557254,-33.198475,-38.450382,0
512,0.16955566,0.026367188,0.07800293,-18.786259,47.900764,-30.641222,0
513,0.15441895,0.015319824,0.051574707,-35.35878,-33.687023,-32,0
514,0.11645508,0.046691895,0.039978027,-11.076336,-16.244274,-32.694656,0
515,0.14355469,0.038330078,0.031311035,3.0610688,32.099236,13.725191,0
516,0.13867188,0.030273438,0.06829834,11.473283,-16.816793,36.969467,0
517,0.11218262,0.031433105,0.04748535,20.931297,-26.114504,10.274809,0
518,0.103759766,0.02142334,0.042663574,8.114504,-43.83206,6.923664,0
519,0.0758667,0.013977051,0.032165527,-18.480917,-61.14504,-12.534351,0
520,0.06512451,0.022644043,0.03857422,-49.282444,-44.137405,-37.458015,0
521,0.06518555,0.032714844,0.04876709,-73.07633,-36.519085,-22.099237,0
522,0.06652832,0.05126953,0.018310547,-63.954197,-15.763359,7.847328,0
523,0.0758667,0.057739258,0.032714844,-31.641222,14.366412,43.251907,0
524,0.08709717,0.05908203,0.03125,-2.7099237,11.633588,65.229004,0
525,0.10827637,0.05859375,0.057434082,10.679389,25.25191,80.19084,0
526,0.13043213,0.061767578,0.06567383,7.587786,40.908398,88.25191,0
527,0.13677979,0.060424805,0.061706543,1.3740458,34.396946,69.9542,0
528,0.12713623,0.066711426,0.038879395,9.40458,20.389313,42.137405,0
529,0.16296387,0.07727051,0.026000977,37.412212,66.80916,34.427483,0
530,0.2006836,0.05218506,0.08215332,28.312977,99.60305,29.847328,0
531,0.1451416,0.060791016,0.051635742,23,-26.458015,-14.709924,0
532,0.14007568,0.074157715,0.0289917,47.190838,20.954199,-14.4198475,0
533,0.16845703,0.06109619,0.07525635,84.12977,27.610687,14.106871,0
534,0.12841797,0.046142578,0.055419922,101.0687,-35.06107,-6.374046,0
535,0.101989746,0.03149414,0.07019043,69.618324,-29.549618,-33.908398,0
536,0.08013916,0.022949219,0.047424316,23.442749,-54.374046,-56.17557,0
537,0.06896973,0.032104492,0.010986328,7.8396945,-34.52672,-88.51908,0
538,0.07507324,0.043151855,0.017700195,22.992367,-10.0992365,-93.39695,0
539,0.07495117,0.039123535,-0.0064086914,47.137405,13.137404,-82.900764,0
540,0.087890625,0.03918457,0.031188965,60.603054,22.160305,-58.282444,0
541,0.08703613,0.02709961,0.027038574,68.92367,1.6030535,-54.14504,0
542,0.09710693,0.02923584,0.04321289,66.175575,-2.7328243,-37.305344,0
543,0.10418701,0.018737793,0.045837402,44.9771,-5.0839696,-13.450381,0
544,0.11920166,0.014465332,0.06500244,1.3358779,8.206107,2.8473282,0
545,0.13391113,0.02154541,0.059936523,-48.79389,8.961832,17.312977,0
546,0.13684082,0.032836914,0.06616211,-82.46565,9.946565,32.70229,0
547,0.16204834,0.034729004,0.060546875,-104.0687,45.068703,54.770992,0
548,0.18817139,0.032836914,0.10632324,-133.92366,45.50382,95.62595,0
549,0.1694336,0.05078125,0.07006836,-126.9542,-23.366413,99.46565,0
550,0.159729,0.06384277,0.061035156,-101.64122,-7.847328,116.46565,0
551,0.16259766,0.05291748,0.0791626,-80.854965,-28.61832,122.12977,0
552,0.12310791,0.040649414,0.053955078,-58.687023,-61.076336,68.35878,0
553,0.08807373,0.021911621,0.034362793,-46.030533,-74.63359,3.870229,0
554,0.07434082,0.016052246,0.018005371,-39.35878,-50.76336,-55.61832,0
555,0.05407715,0.019958496,0.0072631836,-42.16794,-22.580153,-102.183205,0
556,0.058532715,0.031799316,0.012390137,-49.70229,9.480916,-105.9313,0
557,0.06518555,0.03326416,0.026794434,-59.190838,29.42748,-79.83206,0
558,0.072143555,0.035583496,0.030700684,-58.59542,34.687023,-52.748093,0
559,0.08337402,0.047607422,0.032165527,-54.51145,24.038168,-28.931297,0
560,0.09057617,0.05908203,0.027709961,-61.21374,13.717557,19.793894,0
561,0.10229492,0.06878662,0.0256958,-56.251907,21.48855,63,0
562,0.13165283,0.089538574,0.03125,-14.038168,23.908398,98.96183,0
563,0.13946533,0.09246826,0.0390625,46.21374,38.35878,130.69466,0
564,0.16827393,0.088378906,0.032104492,109.12214,35.480915,134.51909,0
565,0.21136475,0.0814209,0.068359375,139.9771,105.72519,134.14503,0
566,0.15063477,0.06933594,0.0625,158.38931,-46.450382,82.0229,0
567,0.14147949,0.046569824,0.05517578,148.03053,-3.167939,24.496183,0
568,0.17816162,0.03503418,0.07946777,138.41985,-28.038168,-22.839695,0
569,0.144104,0.02734375,0.064697266,123.12977,-48.984734,-59.51145,0
570,0.11743164,0.023742676,0.096069336,82.38931,-35.984734,-105.83969,0
571,0.1027832,0.0289917,0.039855957,33.114502,-47.93893,-122.32825,0
572,0.088378906,0.03479004,0.05657959,18.954199,-54.412212,-143.05344,0
573,0.081848145,0.039978027,0.041137695,22.137405,-51.419846,-147.98473,0
574,0.08807373,0.042785645,0.030212402,36.129772,-27.900763,-131.37404,0
575,0.10015869,0.031677246,0.037902832,52.20611,-13.717557,-111.34351,0
576,0.107788086,0.024108887,0.05908203,59.23664,-2.3664122,-92.9542,0
577,0.11254883,0.014404297,0.06390381,49.70229,-7.9847326,-75.83969,0
578,0.12371826,0.020202637,0.08319092,33.732826,-5.328244,-56.572517,0
579,0.1326294,0.016662598,0.064697266,15.732824,-14.351145,-26.587786,0
580,0.13098145,0.009338379,0.04284668,-3.0992367,-24.244274,-13.755725,0
581,0.1375122,0.0078125,0.05810547,-36.870228,-6.4580154,0.7480916,0
582,0.1541748,0.0045776367,0.124816895,-88.46565,21.503817,25.48855,0
583,0.12286377,0.018005371,0.033691406,-100.96183,-33.51145,-0.22137405,0
584,0.1451416,0.041015625,0.07672119,-89.75572,29.114504,39.21374,0
585,0.14813232,0.034057617,0.059753418,-69.26717,-6.4351144,79.30534,0
586,0.11608887,0.022888184,0.06555176,-53.190838,0.870229,61.992367,0
587,0.09326172,0.02319336,0.037597656,-60.687023,-44.038166,57.183205,0
588,0.08996582,0.029052734,0.015075684,-49.038166,-27.732824,72.27481,0
589,0.08117676,0.026794434,0.032348633,-37.335876,5.0839696,67.87786,0
590,0.08630371,0.035339355,0.019104004,-46.85496,22.045801,82.36641,0
591,0.10949707,0.044128418,0.046691895,-58.435116,34.87786,114.70229,0
592,0.11517334,0.049682617,0.043762207,-49.44275,23.946566,115.62595,0
593,0.1272583,0.074035645,0.054382324,-15.297709,20.29771,143.87022,0
594,0.13110352,0.08135986,0.040527344,30.06107,12.61832,172.40459,0
595,0.13916016,0.07922363,0.03173828,74.183205,22.801527,168.71756,0
596,0.14428711,0.07067871,0.06652832,94.503815,30.786259,149.50381,0
597,0.13720703,0.058166504,0.062194824,96.503815,9.625955,96.20611,0
598,0.15716553,0.035888672,0.054016113,76.29008,52.9771,30.580153,0
599,0.21008301,0.04675293,0.06298828,54.541985,66.03817,-11.21374,0
600,0.15209961,0.041809082,0.0692749,33.335876,-5.7480917,-61.671757,0
601,0.12390137,0.04309082,0.045837402,20.633587,-11.244275,-106.908394,0
602,0.16192627,0.04840088,0.06378174,46.007633,4.7175574,-86.07633,0
603,0.12963867,0.036376953,0.041870117,68.8855,-43.17557,-88.67175,0
604,0.12774658,0.0368042,0.032226562,60.290077,-17.93893,-105.35878,0
605,0.11645508,0.038330078,0.053466797,51.35878,-50.870228,-95.770996,0
606,0.09893799,0.032836914,0.026550293,66.46565,-47.61832,-104.84733,0
607,0.1015625,0.03363037,0.0289917,74.79389,-38.648853,-110.48855,0
608,0.109191895,0.023925781,0.037231445,78.824425,-36.946564,-96.03053,0
609,0.11376953,0.017700195,0.04260254,75.96183,-38.389313,-93.56489,0
610,0.111816406,0.01965332,0.04272461,71.47328,-37.091602,-82.35878,0
611,0.11987305,0.011413574,0.056518555,63.48855,-31.603054,-65.96183,0
612,0.13513184,0.005859375,0.06604004,48.27481,-24.25191,-57.84733,0
613,0.13500977,-0.0026855469,0.080444336,19.38168,-23.312977,-59.91603,0
614,0.12597656,-0.006225586,0.0657959,-17.625954,-29.496183,-52.839695,0
615,0.12561035,0.0045776367,0.054992676,-44.55725,-38.83206,-33.21374,0
616,0.1593628,0.024047852,0.06549072,-66.00764,27.32061,14.129771,0
617,0.14520264,0.018188477,0.07965088,-63.59542,-31.167938,50.717556,0
618,0.11413574,0.034118652,0.051086426,-32.625954,-22.312977,62.045803,0
619,0.1373291,0.034240723,0.070251465,-12.625955,11.114504,113.61069,0
620,0.12567139,0.018432617,0.070373535,27.778625,-9.923664,119.98473,0
621,0.109436035,0.012878418,0.06341553,46.06107,18.366413,85.25191,0
622,0.107543945,0.0146484375,0.05291748,26.183207,13.633588,95.099236,0
623,0.09844971,0.01940918,0.050354004,13.732824,-2.1755726,92.9313,0
624,0.09655762,0.04321289,0.055664062,12.7404585,3.0687022,103.061066,0
625,0.09246826,0.046936035,0.016662598,20.641222,0.10687023,126.67939,0
626,0.093688965,0.043029785,0.0029907227,23.671755,1.351145,131.16794,0
627,0.0993042,0.038269043,0.0008544922,9.389313,2.1068702,109.0229,0
628,0.10699463,0.035583496,0.029052734,-18.51145,4,77.98473,0
629,0.11859131,0.03692627,0.02722168,-35.908398,4.9923663,36.91603,0
630,0.13049316,0.0368042,0.06085205,-37.251907,20.816793,-4.29771,0
631,0.13116455,0.037231445,0.05999756,-35.885498,20.992367,-48,0
632,0.1315918,0.041381836,0.047851562,-32.541985,27.343512,-75.183205,0
633,0.15093994,0.04107666,0.04345703,-19.419847,48.603054,-86.42748,0
634,0.21154785,0.04663086,0.082336426,2.312977,83.37405,-75.48855,0
635,0.1899414,0.03930664,0.07080078,18.862595,21.595419,-82.55725,0
636,0.1418457,0.026672363,0.046875,17.450382,-10.954199,-108.70992,0
637,0.1484375,0.023986816,0.070739746,-0.73282444,-10.473283,-109.00764,0
638,0.13775635,0.0256958,0.062561035,6.6870227,-39.450382,-121.091606,0
639,0.11932373,0.0256958,0.041503906,19.06107,-20.25191,-130.36641,0
640,0.11450195,0.029174805,0.029724121,23.80916,-18.328245,-114.28244,0
641,0.10668945,0.030700684,0.027282715,43.954197,-9.320611,-98.67939,0
642,0.097351074,0.030883789,0.0009155273,69.28244,-15.824428,-88.0687,0
643,0.094055176,0.022705078,0.013427734,84.62595,-25.328245,-61.47328,0
644,0.095214844,0.018371582,0.010864258,91.503815,-32.946564,-48.068703,0
645,0.09655762,0.010375977,0.016906738,70.29771,-26.274809,-46.992367,0
646,0.10333252,0.010131836,0.02508545,43.076336,-19.51145,-33.755726,0
647,0.108947754,0.008056641,0.034484863,18.793894,-6.2900763,-16.473282,0
648,0.12084961,0.013671875,0.037963867,1.5419847,4.9694657,9.450381,0
649,0.12322998,0.022277832,0.038085938,-17.366413,0.97709924,34.687023,0
650,0.11853027,0.020446777,0.03479004,-39.282444,-3.7709923,55.190838,0
651,0.12756348,0.025024414,0.058776855,-53.51145,-6.442748,75.44275,0
652,0.16864014,0.03161621,0.089782715,-74.00764,55.9771,113.87023,0
653,0.1506958,0.032104492,0.04650879,-86.091606,1.1221374,122.62595,0
654,0.15045166,0.04724121,0.047729492,-75.778625,35.79389,127.41222,0
655,0.1694336,0.047973633,0.04827881,-69.00764,14.877863,156.83206,0
656,0.13604736,0.034606934,0.030273438,-45.610687,-17.87023,122.75572,0
657,0.11395264,0.04107666,0.036499023,-44.969467,-39.221375,77.83206,0
658,0.09442139,0.035461426,-0.004760742,-27.152672,-49.931297,38.10687,0
659,0.08203125,0.024780273,-0.0078125,-7.1755724,2.5038168,-17.70229,0
660,0.10003662,0.04071045,-0.028198242,-4.0458016,24.12977,-25.06107,0
661,0.103149414,0.038757324,-0.007019043,7.183206,32.48855,-7.70229,0
662,0.1071167,0.04071045,0.017028809,14.091603,34.366413,3.1450381,0
663,0.10064697,0.04107666,0.010131836,15.801527,5.816794,26.664122,0
664,0.10974121,0.04663086,-0.0013427734,19.603054,11.267176,49.198475,0
665,0.119140625,0.040222168,0.025268555,21.160305,13.519084,59.908398,0
666,0.13909912,0.043823242,0.06530762,19.687023,16.91603,52.717556,0
667,0.14038086,0.046142578,0.06542969,27.862595,36.74046,36.21374,0
668,0.13708496,0.043395996,0.045532227,34.267174,19.183207,13.793893,0
669,0.18237305,0.051330566,0.03717041,53.603054,50.610687,-1.0458015,0
670,0.13964844,0.039916992,0.0892334,81.862595,-3.3435113,-37.427483,0
671,0.09838867,0.030761719,0.040527344,87.503815,-4.335878,-80.32061,0
672,0.15820312,0.035827637,0.07366943,84.0458,40.610687,-71.62595,0
673,0.15740967,0.032470703,0.08337402,98.30534,0.28244275,-60.15267,0
674,0.11968994,0.03643799,0.06958008,96.00764,15.167939,-68.03817,0
675,0.099487305,0.032043457,0.07305908,69.9771,-20.351145,-56.099236,0
676,0.093322754,0.027648926,0.07281494,64.47328,-20.67939,-55.862595,0
677,0.092041016,0.028747559,0.0625,75.15267,-20.19084,-52.633587,0
678,0.09625244,0.026855469,6.1035156E-05,83.900764,-6.8625956,-43.50382,0
679,0.10223389,0.02545166,0.061462402,87.221375,8.870229,-26.770992,0
680,0.124694824,0.025146484,0.07702637,75.31298,12.7404585,-5.1984735,0
681,0.13195801,0.01751709,0.072387695,57.87786,-2.7099237,-6.9007635,0
682,0.13171387,0.004638672,0.07904053,22.137405,-7.664122,-19.656488,0
683,0.13824463,-0.002319336,0.10003662,-21.10687,-21.274809,-47.190838,0
684,0.15216064,0.011169434,0.072631836,-46.190838,-14.946565,-50.65649,0
685,0.16235352,0.022277832,0.047912598,-35.190838,-0.78625953,-31.832062,0
686,0.16699219,0.0006103516,0.11651611,-38.89313,39.84733,-14.931297,0
687,0.11779785,-0.008972168,0.05206299,-34.961834,-41.50382,-46.87786,0
688,0.12335205,0.009460449,0.03149414,-14.847328,2.183206,-14.015267,0
689,0.12506104,-0.0052490234,0.05596924,1.9007634,-0.40458015,29.549618,0
690,0.11022949,-0.0022583008,0.03491211,7.2442746,-6.4885497,27.10687,0
691,0.11413574,0.0065307617,0.04736328,-11.694656,13.053435,59.72519,0
692,0.10882568,0.0079956055,0.044433594,-31.045801,-1.4656489,77.10687,0
693,0.10205078,0.02355957,0.02178955,-38.091602,-13.21374,76.80916,0
694,0.095825195,0.0345459,0.019042969,-32.83206,-20.122137,94.618324,0
695,0.103027344,0.030822754,0.022644043,-21.099237,-7,97.145035,0
696,0.10455322,0.027160645,0.030822754,-14.992367,2.0992367,80.70229,0
697,0.1083374,0.028320312,0.026184082,-19.862595,6.5496182,61.74046,0
698,0.11669922,0.03564453,0.020385742,-26.89313,9.38168,45.282444,0
699,0.1217041,0.039794922,0.032836914,-26.694656,16.137405,33.89313,0
700,0.1383667,0.039489746,0.051696777,-26.992367,12.374045,24.954199,0
701,0.13891602,0.039245605,0.03930664,-19.580153,7.816794,5.0534353,0
702,0.14312744,0.040649414,0.043762207,-9.648855,25.045801,-9.129771,0
703,0.18902588,0.039367676,0.031799316,7.152672,72.091606,-16.42748,0
704,0.16845703,0.038513184,0.03564453,42.648853,0.78625953,-29.80916,0
705,0.10180664,0.017944336,-0.0059814453,62.885498,-20.778625,-63.06107,0
706,0.1350708,0.010498047,0.01977539,33.801525,45.480915,-65.71756,0
707,0.1618042,0.0138549805,0.06213379,22.221375,-32.038166,-53.549618,0
708,0.115600586,0.016906738,0.038330078,14.648855,-26.931297,-64.12977,0
709,0.10180664,0.023803711,0.032043457,-20.167938,-33.72519,-37.984734,0
710,0.08795166,0.021118164,0.019348145,-24.541985,-33.068703,-24.648855,0
711,0.09283447,0.024169922,0.008422852,3.1755726,-7.1374044,-30.206106,0
712,0.09082031,0.029541016,0.014953613,28.404581,-4.3511453,-9.908397,0
713,0.09710693,0.017089844,0.035949707,40.038166,-0.27480915,-1.7709924,0
714,0.1027832,0.014343262,0.044067383,34.305344,-4.9007635,-6.7938933,0
715,0.11590576,0.0020751953,0.035888672,15.961832,-6.7709923,-14.488549,0
716,0.12982178,-0.0030517578,0.055847168,-23.404581,-0.7099237,-29.557251,0
717,0.14074707,-0.007751465,0.052978516,-57.76336,-8.839695,-48.984734,0
718,0.13647461,-0.014770508,0.048095703,-84.26717,-3.4198472,-62.625954,0
719,0.15032959,0.0024414062,0.08001709,-78.65649,-6.6564884,-52.816795,0
720,0.16625977,0.013061523,0.041992188,-57.549618,43.335876,-3.5419848,0
721,0.1552124,-0.009338379,0.08123779,-45.076336,-2.167939,26.152672,0
722,0.12640381,0.016113281,0.037597656,-26.328245,-8.687023,23.969465,0
723,0.14526367,0.013244629,0.053649902,-11,25.328245,70.29008,0
724,0.12768555,-0.0038452148,0.0736084,7.6183205,-8.625955,59.67939,0
725,0.11791992,-0.00793457,0.012817383,-12.954199,16.862595,28.931297,0
726,0.11456299,-0.0014648438,0.06500244,-51.64122,-1.0152671,22.038168,0
727,0.10247803,0.016113281,0.024169922,-56.816795,-10.488549,23.10687,0
728,0.091796875,0.029418945,0.02947998,-49.183205,-7.3816795,44.603054,0
729,0.09106445,0.0256958,0.036010742,-53.885498,-10.282443,60.74046,0
730,0.10217285,0.027282715,0.036743164,-55.755726,0.5954198,44.70229,0
731,0.1138916,0.029663086,0.043151855,-49.9771,6.664122,31.366413,0
732,0.10845947,0.030578613,0.044433594,-45.40458,6.633588,13.312977,0
733,0.11791992,0.036743164,0.048339844,-38.06107,15.183207,2.664122,0
734,0.13354492,0.04260254,0.014709473,-23.206106,17.656488,4.8396945,0
735,0.13439941,0.03527832,0.04650879,-8.305344,13.603053,-9.114504,0
736,0.13366699,0.039489746,0.04449463,10.610687,15.839695,-25.274809,0
737,0.18981934,0.04449463,0.05645752,34.12214,76.29771,-14.870229,0
738,0.17132568,0.046447754,0.06542969,80.28244,3.3053436,-0.740458,0
739,0.10699463,0.02166748,0.055786133,89.28244,-4.7709923,-31.412214,0
740,0.15893555,0.025512695,0.08251953,42.251907,11.9007635,-33.190838,0
741,0.15045166,0.029296875,0.054992676,41.969467,-42.770992,-36.52672,0
742,0.13366699,0.03466797,0.050598145,38.038166,-14.832061,-45.9771,0
743,0.12219238,0.03289795,0.038208008,18.175573,-40.572517,-31.57252,0
744,0.10107422,0.035705566,0.031921387,45.9771,-28.595419,-49.045803,0
745,0.087646484,0.030212402,0.060302734,60.87786,-24.725191,-58.44275,0
746,0.09893799,0.026306152,0.043273926,61.450382,-24.694656,-52.091602,0
747,0.10284424,0.024230957,0.04296875,54,-22.007633,-54.84733,0
748,0.1105957,0.025390625,0.04071045,39.59542,-22.045801,-53.61832,0
749,0.11816406,0.024291992,0.054260254,26.91603,-22.213741,-55.778625,0
750,0.1272583,0.018676758,0.07116699,11.389313,-25.641222,-54.580154,0
751,0.13439941,0.02166748,0.06011963,-7.633588,-35.16794,-65.381676,0
752,0.12664795,0.020690918,0.06097412,-14.625955,-46.396946,-69.24428,0
753,0.13189697,0.019348145,0.067993164,-20.832062,-32.76336,-61.198475,0
754,0.13763428,0.01776123,0.040893555,-28.755726,-24.465649,-53.87786,0
755,0.15551758,0.018493652,0.07458496,-36.755726,-0.77099234,-41.44275,0
756,0.1326294,0.032287598,0.017578125,-22.610687,-13.526717,-34.480915,0
757,0.12298584,0.028747559,0.03100586,3.7557251,-11.687023,-7.4580154,0
758,0.121276855,0.016906738,0.02178955,12.167939,-4.366412,6.0076337,0
759,0.10217285,0.0012817383,0.015808105,-3.664122,-39.694656,-13.137404,0
760,0.1015625,0.0073242188,0.0025634766,-24.89313,-7.816794,-17.564886,0
761,0.10418701,0.01373291,0.010437012,-28.587786,6.89313,13.022901,0
762,0.10845947,0.016967773,0.03375244,-21.229008,21.076336,44.198475,0
763,0.09710693,0.025817871,0.016052246,-23.06107,13.687023,80.16794,0
764,0.09515381,0.0368042,0.017578125,-21.57252,13.59542,114.580154,0
765,0.10809326,0.04449463,0.021484375,-20.61832,17.496183,134.78625,0
766,0.109069824,0.041809082,0.03363037,-16.67939,21.923664,143.0229,0
767,0.11999512,0.054992676,0.03729248,-12.625955,25.641222,139.44275,0
768,0.13085938,0.06225586,0.02923584,5.1755724,28.206106,134.54962,0
769,0.13018799,0.06530762,0.05267334,23.557251,29.213741,115.41222,0
770,0.13098145,0.062072754,0.028686523,32.015266,18.145039,80.419846,0
771,0.12664795,0.05609131,0.027709961,33.84733,15.229008,35.198475,0
772,0.13586426,0.051330566,0.0003051758,35.21374,49.23664,-4.8625956,0
773,0.16900635,0.06652832,0.052490234,58.61832,41.15267,-13.175572,0
774,0.122558594,0.052490234,0.044189453,90.59542,33.396946,-33.671757,0
775,0.1439209,0.04650879,0.07550049,92.34351,26.206106,-30.053434,0
776,0.14086914,0.041137695,0.061035156,98.84733,1.8854961,-29.87023,0
777,0.13580322,0.036865234,0.07672119,82.72519,3.9312978,-38.72519,0
778,0.1282959,0.03942871,0.06762695,64.48855,-1.1984733,-35.16794,0
779,0.113464355,0.041381836,0.059509277,63.78626,-5.0534353,-39.946564,0
780,0.107299805,0.04058838,0.06274414,66.0458,5.961832,-42.480915,0
781,0.09509277,0.03503418,0.057617188,67.496185,-5.854962,-47.572517,0
782,0.09436035,0.034729004,0.067871094,71.51908,-5.6183205,-53.312977,0
783,0.099609375,0.036743164,0.06549072,68.816795,12.572519,-55.79389,0
784,0.10760498,0.032714844,0.06323242,64.10687,27.404581,-58.65649,0
785,0.11566162,0.031311035,0.052124023,62.79389,20.458015,-71.96947,0
786,0.12390137,0.0289917,0.06866455,60.0229,20.61832,-80.53435,0
787,0.11767578,0.019470215,0.057556152,50.335876,11.511451,-85.1145,0
788,0.11791992,0.024291992,0.054748535,46.27481,8.908397,-89.9542,0
789,0.11895752,0.024414062,0.052612305,48.32061,15.358779,-74.51145,0
790,0.12011719,0.015014648,0.031799316,49.12214,17.045801,-65.60305,0
791,0.1326294,0.018859863,0.057922363,41.46565,21.244274,-42.50382,0
792,0.1428833,0.02355957,0.049438477,30.786259,24.564886,-4.9160304,0
793,0.14526367,0.017028809,0.04522705,18.030535,13.801527,15.816793,0
794,0.15698242,0.020263672,0.039123535,-7.9694657,12.541985,33.64122,0
795,0.1642456,0.015563965,0.08288574,-40.12214,12.847328,43.816795,0
796,0.1449585,0.019897461,0.041992188,-55.27481,-19.770992,19.641222,0
797,0.13134766,0.028869629,0.01977539,-63.610687,-26.541985,25.419847,0
798,0.11437988,0.022644043,0.04949951,-64.48092,-33.76336,27.67939,0
799,0.11578369,0.025756836,0.030639648,-83.12977,-35.572517,18.045801,0
800,0.103881836,0.027038574,0.026733398,-104.900764,-42.984734,14.053435,0
801,0.11199951,0.036499023,0.03552246,-106.43511,-28.755726,12.549619,0
802,0.109436035,0.04486084,0.04650879,-82.28244,-32.10687,32.53435,0
803,0.10687256,0.04699707,0.0357666,-48.53435,-27.824427,59.32061,0
804,0.095214844,0.043884277,0.048583984,-32.114502,-40.709923,77.419846,0
805,0.0960083,0.04473877,0.036987305,-35.91603,-40.137405,83.12214,0
806,0.103637695,0.048461914,0.033935547,-43.35878,-33.12214,74.96183,0
807,0.11566162,0.04736328,0.034851074,-43.137405,-19.503817,64.36641,0
808,0.11505127,0.049804688,0.051757812,-37.625954,-17.08397,49.14504,0
809,0.115234375,0.05029297,0.049621582,-29.519083,-15.9007635,34.20611,0
810,0.12384033,0.052124023,0.039733887,-28.633587,-15.5801525,20.305344,0
811,0.12463379,0.05029297,0.02709961,-24.961832,-8.21374,11.312977,0
812,0.12591553,0.047912598,0.038269043,-23.70229,2.8778627,6.1221375,0
813,0.13049316,0.05267334,0.03656006,-20.80916,10.5801525,0.41984734,0
814,0.15234375,0.055480957,0.03173828,-20.358778,34.21374,-4.366412,0
815,0.16772461,0.054992676,0.04345703,-10.572519,31.961832,-4.557252,0
816,0.14971924,0.043273926,0.03930664,-5.3435116,2.8015268,-26.122137,0
817,0.11584473,0.055908203,0.015563965,9.916031,-13.671756,-49.93893,0
818,0.13293457,0.051513672,0.024353027,35.450382,12.7404585,-45.49618,0
819,0.13183594,0.040283203,0.041259766,53.748093,1.0839695,-54.312977,0
820,0.122680664,0.03515625,0.07867432,52.412212,9.022901,-60.76336,0
821,0.109436035,0.03869629,0.029663086,48.29771,-1.8091604,-80.21374,0
822,0.101867676,0.036743164,0.025817871,56.717556,-6.366412,-86.61069,0
823,0.093444824,0.032287598,0.028198242,73.137405,-12.045801,-85.9771,0
824,0.101257324,0.027160645,0.039245605,88.46565,1.3435115,-79.75572,0
825,0.09362793,0.023010254,0.030334473,99.496185,-4.076336,-68.42748,0
826,0.0982666,0.019042969,0.047058105,94.87786,2.8549619,-54.328243,0
827,0.11395264,0.016235352,0.05279541,77.70992,4.9083967,-34.450382,0
828,0.12701416,0.010864258,0.083984375,55.015266,0.90839696,-17.931297,0
829,0.14312744,0.00982666,0.04425049,22.053434,6.19084,-10.160305,0
830,0.15032959,0.006652832,0.06011963,-13.251908,-9.183207,-3.3282442,0
831,0.15032959,0.0107421875,0.06274414,-33.87786,-14.893129,-0.4274809,0
832,0.14434814,0.014770508,0.06964111,-48.137405,-17.198473,13.801527,0
833,0.16906738,0.02154541,0.12408447,-74.28244,19.244274,44.412212,0
834,0.13879395,0.022705078,0.05596924,-87.27481,-15.053435,47.53435,0
835,0.12371826,0.041259766,0.059020996,-94.64886,-2.0992367,73.32825,0
836,0.1408081,0.042175293,0.08557129,-78.03053,4.068702,98.94656,0
837,0.12780762,0.043395996,0.07965088,-49.0229,0.1908397,83.458015,0
838,0.11126709,0.028930664,0.03387451,-40.633587,-7.5725193,52.839695,0
839,0.086364746,0.020446777,0.018981934,-33.030533,-27.992367,8.78626,0
840,0.07531738,0.026367188,0.015136719,-13.511451,-27.725191,-20.694656,0
841,0.080078125,0.0335083,0.010803223,15.083969,1.0229008,-13.816793,0
842,0.08911133,0.029907227,0.005004883,35.580154,24.206106,24.687023,0
843,0.09893799,0.032043457,0.0423584,32.91603,24.526718,52.709923,0
844,0.10003662,0.025756836,0.04626465,12.961832,12.496183,63.748093,0
845,0.10699463,0.032104492,0.030090332,-3.6259542,9.977099,74.32061,0
846,0.12243652,0.03253174,0.06652832,-19.473282,15.022901,74.229004,0
847,0.13928223,0.030029297,0.03668213,-29.435114,20.76336,63.648853,0
848,0.14459229,0.0357666,0.04901123,-42.091602,25,46.450382,0
849,0.13079834,0.031921387,0.046569824,-52.427483,19.114504,17.587786,0
850,0.18725586,0.045898438,0.07287598,-51.419846,72.32061,5.5343513,0
851,0.19342041,0.05706787,0.06060791,-2.4122138,3.5496182,12.38168,0
852,0.13879395,0.035583496,0.07159424,30.717558,6.1374044,-9.297709,0
853,0.15441895,0.019042969,0.07080078,19.045801,-1.7099236,-32.961834,0
854,0.15917969,0.020751953,0.048034668,24.946566,-28.473282,-55.366413,0
855,0.13330078,0.012573242,0.034729004,26.435114,-9.709924,-81.80153,0
856,0.10028076,0.015380859,0.048461914,8.679389,-24.068703,-91.16794,0
857,0.08148193,0.021118164,0.026916504,18.503817,-19.977098,-93.59542,0
858,0.06994629,0.021728516,0.0015869141,62.961834,-9.5801525,-75.58778,0
859,0.07751465,0.012756348,-0.006286621,100.900764,16.61832,-54.08397,0
860,0.097473145,0.009338379,0.009521484,112.900764,28.183207,-32.72519,0
861,0.10858154,0.0076904297,0.022583008,100.183205,27.328245,-12.923664,0
862,0.120910645,0.0001220703,0.040100098,67.92367,15.083969,-2.3435113,0
863,0.13580322,-0.005859375,0.048095703,29.977098,7.3816795,2.1068702,0
864,0.15527344,-0.0021972656,0.068603516,-5.847328,-2.3740458,-3.2671757,0
865,0.16571045,-0.0028076172,0.07476807,-36.14504,-25.175573,-12.335877,0
866,0.14648438,-0.0009765625,0.057250977,-56.53435,-40.305344,-18.854961,0
867,0.13604736,0.0073242188,0.036071777,-62.221375,-21.633587,-12.21374,0
868,0.17602539,0.009094238,0.099243164,-82.30534,29.206106,27.580153,0
869,0.12835693,0.012390137,0.049438477,-72.62595,-32.007633,10.641221,0
870,0.12200928,0.03942871,0.066833496,-55.290077,-1.3816794,25.931297,0
871,0.14770508,0.023742676,0.047424316,-29.473282,6.8625956,57.29771,0
872,0.1359253,0.008605957,0.046691895,-1.1221374,23.93893,15.59542,0
873,0.11114502,-0.005126953,0.06573486,-10.40458,9.206107,-25.625954,0
874,0.087768555,-0.0028076172,0.037109375,-28.030535,-17.404581,-45.610687,0
875,0.070373535,0.0005493164,0.0435791,-32.67939,-31.282442,-50.74046,0
876,0.067993164,0.024108887,0.034362793,-34.85496,-45.396946,-14.206107,0
877,0.08117676,0.030761719,0.0004882813,-32.053436,0.5801527,14.435115,0
878,0.093933105,0.024230957,0.047729492,-19.549618,29.030535,52.67939,0
879,0.107299805,0.019042969,0.044067383,-30.068703,19.343512,55.72519,0
880,0.11755371,0.030395508,0.045837402,-48.045803,7.0916033,40.23664,0
881,0.12963867,0.03289795,0.0423584,-59.78626,1.7099236,38.282444,0
882,0.14886475,0.037902832,0.06567383,-57.396946,9.549619,32.801525,0
883,0.14990234,0.036071777,0.04650879,-53.06107,1.6412214,19.580153,0
884,0.16418457,0.03753662,0.04083252,-52.885498,23.06107,7.4961834,0
885,0.21624756,0.045532227,0.0993042,-44.664124,36.267174,14.320611,0
886,0.15887451,0.046203613,0.045898438,-6.5725193,-38.16794,-7.6793895,0
887,0.13317871,0.01940918,0.06414795,-6.4580154,-4.038168,-54.923664,0
888,0.17645264,0.021972656,0.08514404,-5.10687,-16.19084,-54.908398,0
889,0.1519165,0.016601562,0.067993164,12.908397,-20.603054,-83.45038,0
890,0.12573242,0.008972168,0.06896973,8.145039,-6.9847326,-101.55725,0
891,0.09753418,0.007080078,0.03277588,-3.5267177,-25.900763,-96.58778,0
892,0.07952881,0.016845703,0.026855469,14.2213745,-42.0229,-86.618324,0
893,0.06488037,0.022094727,0.02545166,39.328243,-33.610687,-51.870228,0
894,0.06274414,0.002380371,0.024780273,59.198475,-21.274809,-17.862595,0
895,0.08203125,0.0018920898,0.03656006,59.52672,8.519084,-14.80916,0
896,0.10412598,0.00579834,0.028198242,39.17557,39.91603,13.61832,0
897,0.12286377,-0.005126953,0.074035645,13.694656,21.801527,22.847328,0
898,0.123046875,-0.0049438477,0.08123779,-22.160305,-15,-8.40458,0
899,0.13110352,0.0028076172,0.080322266,-63.89313,-23.412214,-5.3053436,0
900,0.1459961,-0.0015869141,0.08850098,-93.26717,-27.29771,-16.519083,0
901,0.12945557,0.0008544922,0.076416016,-111.73283,-32.47328,-37.328243,0
902,0.12927246,0.020385742,0.07885742,-107.91603,-20.51145,-26.152672,0
903,0.17486572,0.028686523,0.100097656,-103.96947,46.572517,34.648853,0
904,0.1272583,0.022827148,0.075927734,-75.08397,-10.167939,32.48855,0
905,0.114990234,0.036010742,0.06933594,-74.83969,7.9465647,58.14504,0
906,0.12426758,0.043518066,0.048339844,-54.251907,-0.97709924,88.48855,0
907,0.13031006,0.038208008,0.038879395,-12.633588,42.076336,79.137405,0
908,0.12652588,0.03894043,0.04559326,12.152672,57.038166,71.30534,0
909,0.125,0.021850586,0.049926758,28.450382,65.03053,45.809162,0
910,0.11633301,0.014160156,0.030334473,27.854961,41.748093,19.503817,0
911,0.11035156,0.007019043,0.018554688,15.480916,31.908398,-2.167939,0
912,0.09259033,0.007507324,0.018798828,-1.1832061,15.793893,-3.816794,0
913,0.09350586,0.01373291,0.01763916,-13.114504,29.80916,7.625954,0
914,0.099731445,0.012268066,0.014770508,-18.992367,33.89313,24.503817,0
915,0.103393555,0.010437012,0.025817871,-30.198473,34.12214,29.114504,0
916,0.114746094,0.026062012,0.034301758,-35.190838,27.839695,33.78626,0
917,0.12670898,0.029724121,0.01727295,-20.473282,22.580153,44.839695,0
918,0.1385498,0.04272461,0.030822754,9.793893,25.282442,62.335876,0
919,0.14544678,0.030700684,0.02947998,37.770992,24.786259,65.221375,0
920,0.15203857,0.008178711,0.02178955,35.53435,27.91603,41.610687,0
921,0.18554688,0.019226074,0.06732178,29.801527,27.923664,38.396946,0
922,0.14886475,-0.010559082,0.09442139,11.38168,-18.167938,-8.114504,0
923,0.11480713,-0.027893066,0.10180664,-37.46565,-31.404581,-73.1145,0
924,0.12841797,-0.014709473,0.1116333,-71.381676,-51.229008,-96.53435,0
925,0.12976074,-0.015991211,0.057373047,-44.40458,-29.274809,-97.221375,0
926,0.13250732,-0.013671875,0.0949707,-27.969465,24.824427,-87.541985,0
927,0.12799072,-0.017944336,0.09423828,-30.396946,-16.06107,-68.65649,0
928,0.12579346,-0.017028809,0.06109619,-16.030535,-17.633587,-69.908394,0
929,0.11383057,-0.034606934,0.03869629,-7.2900763,-24.732824,-46.65649,0
930,0.10736084,-0.040527344,0.06512451,-1.9694656,-28.74809,-46.183205,0
931,0.10498047,-0.043945312,0.06542969,-7.931298,-15.824428,-33.587788,0
932,0.109558105,-0.04083252,0.07824707,-28.709923,-3.1908398,-16.519083,0
933,0.108947754,-0.043701172,0.107910156,-50.755726,-13.717557,-5.0076337,0
934,0.11425781,-0.029846191,0.06762695,-68.80153,-21.908398,9.145039,0
935,0.11883545,-0.025390625,0.09197998,-75.20611,-36.23664,37.34351,0
936,0.1270752,-0.018615723,0.101623535,-86.381676,-24.76336,45.954197,0
937,0.13543701,-0.014282227,0.10644531,-103.99236,-9.175572,54.65649,0
938,0.16241455,-0.0033569336,0.1161499,-107.87023,8.030535,61.47328,0
939,0.17614746,0.0064086914,0.12335205,-97.816795,16.57252,68.1145,0
940,0.1552124,0.006713867,0.13336182,-87.56489,-6.4503818,68.496185,0
941,0.12738037,0.010070801,0.06616211,-62.55725,-24.08397,63.732826,0
942,0.114746094,0.022033691,0.024475098,-21.412214,-15.694656,80.30534,0
943,0.11529541,0.013061523,0.037109375,25.862595,28.93893,83.53435,0
944,0.10876465,-0.01373291,0.033569336,47.229008,54.38168,53.85496,0
945,0.10473633,-0.028381348,0.04663086,25.274809,39.748093,14.877863,0
946,0.099609375,-0.043151855,0.052368164,-14.183207,18.786259,-15.198473,0
947,0.09100342,-0.040283203,0.047973633,-39.08397,4.7557254,-34.717556,0
948,0.098083496,-0.035339355,0.017150879,-50.412212,8.007633,-26.068703,0
949,0.107910156,-0.049743652,0.029418945,-57.900764,16.984734,-23.648855,0
950,0.11199951,-0.049987793,0.042419434,-72.23664,15.480916,-37.045803,0
951,0.11651611,-0.02935791,0.040100098,-72.20611,15.7786255,-28.038168,0
952,0.12109375,-0.024291992,0.053955078,-40.969467,15.007633,-5.4351144,0
953,0.1171875,-0.02331543,0.051635742,-25.450382,16.022902,10.908397,0
954,0.11755371,-0.03112793,0.036987305,-20.877863,11.549619,15.687023,0
955,0.109436035,-0.030944824,0.05230713,-25.519083,12.053435,5.0229006,0
956,0.111083984,-0.020568848,0.050964355,-38.900764,15.351145,4.4580154,0
957,0.11425781,-0.013183594,0.032043457,-38.862595,18.877863,7.625954,0
958,0.1083374,-0.016479492,0.052978516,-36.267174,25.412214,9.167939,0
959,0.10614014,-0.020446777,0.051818848,-45.564884,24.29771,1.4122137,0
960,0.115234375,-0.009094238,0.05621338,-52.65649,27.709923,2.5877862,0
961,0.1217041,-0.002319336,0.047607422,-44.549618,36.366413,9.320611,0
962,0.122558594,-0.006286621,0.055786133,-29.633587,48.099236,9.526717,0
963,0.13769531,-0.0022583008,0.046447754,-9.0992365,63.396946,24.67939,0
964,0.14727783,-0.007446289,0.056396484,13.488549,64.37405,26.992367,0
965,0.14129639,-0.017211914,0.07104492,27.10687,53.435116,14.358779,0
966,0.12365723,-0.034362793,0.07775879,27.664122,24.664122,-12.755725,0
967,0.11376953,-0.041015625,0.051513672,28.442749,-3.076336,-34.9771,0
968,0.10797119,-0.052124023,0.061584473,10.236641,-3.8473282,-38.984734,0
969,0.10827637,-0.050048828,0.09057617,-30.206106,11.870229,-51.946564,0
970,0.11804199,-0.05041504,0.0859375,-38.160305,20.366413,-54.732826,0
971,0.1237793,-0.057250977,0.13232422,-22.358778,23.175573,-54.21374,0
972,0.11279297,-0.06347656,0.10217285,-37.34351,-2.740458,-58.480915,0
973,0.10430908,-0.055541992,0.08288574,-46.045803,-4.335878,-53.9771,0
974,0.09674072,-0.03515625,0.09564209,-36.091602,14.633588,-32.984734,0
975,0.100097656,-0.028747559,0.09472656,-21.145039,38.51145,-4.587786,0
976,0.09893799,-0.03149414,0.10522461,-19.267176,32.59542,2.908397,0
977,0.10772705,-0.015075684,0.10021973,-21.977098,22.778625,8.358779,0
978,0.11102295,0.0007324219,0.08380127,-14.732824,18.854961,22.526718,0
979,0.11206055,0.0040893555,0.070373535,-7.6106873,24.419847,23.358778,0
980,0.11248779,-0.0014648438,0.10736084,-11.961832,20.08397,17.801527,0
981,0.118652344,-0.0001831055,0.07598877,-22.854961,14.022901,6.0610685,0
982,0.121520996,0.0052490234,0.08258057,-25.396946,16.099237,-2.6564887,0
983,0.1315918,0.007507324,0.0748291,-15.496183,17.267176,-4.6106873,0
984,0.14447021,0.009277344,0.110961914,2.7557251,15.954199,0.32824427,0
985,0.1375122,-0.0073242188,0.053588867,8.954199,0.86259544,-11.709924,0
986,0.13653564,-0.014831543,0.077697754,-4.5496182,-13.038168,-32.64122,0
987,0.15356445,-0.016784668,0.08166504,-36.87786,-5.519084,-45.67939,0
988,0.14483643,-0.015197754,0.10168457,-65.29771,-37.84733,-62.305344,0
989,0.13110352,0.0015258789,0.073791504,-38.244274,-37.351147,-79.824425,0
990,0.122680664,-0.0005493164,0.07086182,18.473282,-32.053436,-56.53435,0
991,0.12249756,-0.029418945,0.08215332,58.282444,-7.3129773,-54.389313,0
992,0.11206055,-0.052246094,0.07788086,50.74046,-7.7709923,-71.419846,0
993,0.10821533,-0.047973633,0.07550049,14.328244,-15.549619,-73.175575,0
994,0.10406494,-0.032104492,0.06414795,-7.19084,-35.72519,-71.01527,0
995,0.094177246,-0.027770996,0.08703613,1.6412214,-43.06107,-55.076336,0
996,0.08514404,-0.028198242,0.052978516,9.916031,-52.541985,-40.954197,0
997,0.08343506,-0.018859863,0.057495117,4.9847326,-46.908398,-14.160305,0
998,0.091796875,-0.012023926,0.05407715,-8.816793,-28.93893,-6.9923663,0
999,0.1027832,-0.008178711,0.06774902,-24.57252,-30.08397,-4.3435116,0
1000,0.10852051,0.0016479492,0.067993164,-32.34351,-38.23664,-0.21374045,0
1001,0.119506836,0.016113281,0.08166504,-29.87023,-34.83206,5.9847326,0
1002,0.1274414,0.023254395,0.09753418,-15.2213745,-29.282442,20.419847,0
1003,0.13812256,0.033203125,0.05316162,13.923664,-13.465649,31.70229,0
1004,0.13903809,0.033813477,0.08068848,39.40458,2.2900763,39.17557,0
1005,0.13769531,0.0357666,0.05065918,54.87786,-1.4580153,38.572517,0
1006,0.17047119,0.044128418,0.074279785,61.931297,25.160305,43.85496,0
1007,0.17321777,0.049438477,0.08239746,85.175575,-15.053435,40,0
1008,0.12365723,0.033691406,0.085632324,99.51145,-41.21374,0.90076333,0
1009,0.12890625,0.015930176,0.092163086,82.67175,-34.816795,-42.244274,0
1010,0.13604736,0.013427734,0.07141113,83.48855,-57.32061,-69.72519,0
1011,0.12792969,0.033569336,0.05670166,98.0229,-23.19084,-94.75572,0
1012,0.1227417,0.031311035,0.0904541,94.57252,-18.854961,-79.35114,0
1013,0.10961914,0.015808105,0.06817627,84.16031,-38.412212,-93.740456,0
1014,0.096191406,0.01928711,0.05267334,75.76336,-48.625954,-100.28244,0
1015,0.07574463,0.020690918,0.044555664,69.33588,-66.43511,-90.145035,0
1016,0.097595215,0.03173828,0.044799805,87.0229,-30.931297,-88.541985,0
1017,0.11206055,0.031311035,0.05517578,113.496185,2.664122,-52.389313,0
1018,0.11846924,0.019897461,0.06738281,115.55725,-3.9923663,-34.64122,0
1019,0.12860107,0.008361816,0.081604004,93.68702,-15.656488,-44.282444,0
1020,0.13555908,-0.0001220703,0.08746338,50.84733,-33.83206,-45.08397,0
1021,0.15985107,0.0065307617,0.0881958,16.12977,-23.290077,-47.770992,0
1022,0.1663208,0.006225586,0.08770752,-3.3664122,-12.480916,-40.755726,0
1023,0.1383667,-0.004211426,0.12872314,-24.221375,-16.23664,-47.923664,0
1024,0.124572754,-0.0028076172,0.091552734,-43.290077,-15.114504,-44.862595,0
1025,0.15570068,0.004333496,0.1126709,-57.091602,25.801527,1.70229,0
1026,0.13012695,0.022216797,0.07543945,-37.305344,20.74809,30.900763,0
1027,0.1038208,0.028808594,0.057128906,-11.503817,28.992367,64.51908,0
1028,0.109680176,0.030639648,0.05834961,17.038168,34.17557,111.580154,0
1029,0.118774414,0.028808594,0.0099487305,67.24428,45.038166,126.45038,0
1030,0.11999512,0.018493652,0.050964355,100.07633,74.099236,111.16031,0
1031,0.099975586,-0.018615723,0.08532715,67.60305,40.14504,75.0229,0
1032,0.09777832,-0.027282715,0.058654785,-22.793894,10.251908,27.259542,0
1033,0.10583496,0.0001831055,0.032836914,-72.21374,-1.2824427,22.038168,0
1034,0.11126709,0.026550293,0.008117676,-69.908394,19.854961,27.725191,0
1035,0.11743164,0.041503906,0.0006713867,-33.809162,40.717556,44.61832,0
1036,0.11846924,0.04168701,0.037109375,9.984733,27.954199,66.145035,0
1037,0.118896484,0.03265381,0.026306152,34.366413,18.48855,69.35878,0
1038,0.12701416,0.034423828,0.026000977,45.59542,15.5801525,66.57252,0
1039,0.13574219,0.03125,0.026489258,41.732826,14.160305,58.694656,0
1040,0.14642334,0.032104492,0.05493164,27.847328,21.847328,48.91603,0
1041,0.15014648,0.032348633,0.05230713,8.78626,9.557252,26.145039,0
1042,0.13635254,0.027160645,0.045715332,-10.305344,-6.3053436,-7.7862597,0
1043,0.19158936,0.046020508,0.06677246,-5.7099237,37.53435,-7.412214,0
1044,0.17340088,0.04547119,0.047424316,19.08397,-22.694656,-16.030535,0
1045,0.12121582,0.030822754,0.07104492,33.885498,-48.72519,-57.038166,0
1046,0.13269043,0.030151367,0.051086426,32.0229,-34.549618,-60.870228,0
1047,0.13824463,0.02532959,0.0501709,51.946564,-44.068703,-74.23664,0
1048,0.13977051,0.03100586,0.046447754,72.145035,-16.969465,-86.64122,0
1049,0.13348389,0.032958984,0.0690918,67.259544,-19.687023,-75.25191,0
1050,0.11853027,0.012817383,0.033996582,62.931297,-34.068703,-89.44275,0
1051,0.10015869,0.0064086914,0.0715332,47.931297,-53.030533,-117.1145,0
1052,0.093322754,0.0056762695,0.04626465,25.992367,-50.396946,-123.42748,0
1053,0.09362793,0.0041503906,0.050476074,20.091602,-28.068703,-121.03053,0
1054,0.10345459,0.019165039,0.040283203,37.664124,-0.4427481,-103.63359,0
1055,0.10736084,0.019592285,0.04522705,60.50382,10.251908,-55.70229,0
1056,0.107788086,0.0006713867,0.045043945,65.145035,7.3816795,-54.816795,0
1057,0.12164307,-0.0010986328,0.04699707,50.480915,-4.7175574,-22.801527,0
1058,0.15106201,0.0034179688,0.06384277,27.633587,5.335878,-0.870229,0
1059,0.14697266,-0.012023926,0.08544922,-2.8778627,6.076336,2.832061,0
1060,0.12011719,-0.023742676,0.08270264,-50.694656,-8.412213,-26.030535,0
1061,0.14141846,0.0063476562,0.056396484,-80.40458,3.5648854,-3.0610688,0
1062,0.17285156,0.0043945312,0.1048584,-81.221375,37.114502,45.572517,0
1063,0.13665771,0,0.07720947,-72.12214,12.763359,31.12977,0
1064,0.13000488,0.025024414,0.04547119,-68.145035,8.854961,57.564884,0
1065,0.14318848,0.021240234,0.04522705,-55.06107,25.839695,99.72519,0
1066,0.13214111,0.006591797,0.042907715,-32.93893,20.48855,65.68702,0
1067,0.12872314,0.0076904297,0.055603027,-44.625954,36.183205,53.14504,0
1068,0.11608887,0.0056762695,0.046447754,-57.664124,16.885496,45.038166,0
1069,0.099365234,0.00970459,0.044006348,-56.87786,10.763359,29.06107,0
1070,0.09289551,0.01550293,0.07446289,-71.80153,11.816793,32.51145,0
1071,0.09820557,0.018920898,0.037902832,-81.8855,23.015266,51.870228,0
1072,0.109069824,0.04626465,0.022033691,-60.12214,43.694656,79.8855,0
1073,0.11816406,0.05206299,0.070617676,-18.091602,46.160305,117.64122,0
1074,0.11669922,0.04321289,0.089538574,-9.572519,46.38168,117.34351,0
1075,0.12158203,0.04107666,0.082092285,-18.122137,23.160305,116.76336,0
1076,0.13549805,0.046691895,0.03668213,-15.763359,25.580153,95.16031,0
1077,0.15673828,0.053894043,0.03869629,-1.389313,47.44275,82.63359,0
1078,0.15795898,0.0546875,0.04711914,15.160305,40.732826,65.938934,0
1079,0.14361572,0.039855957,0.033325195,11.282443,17.099237,25.732824,0
1080,0.19683838,0.038208008,0.0859375,0.24427481,64.0229,-4.0152674,0
1081,0.1899414,0.0357666,0.07409668,-10.007633,-36.068703,-48.91603,0
1082,0.14129639,0.030944824,0.06500244,-21.91603,-57.06107,-104.05344,0
1083,0.13873291,0.03527832,0.074279785,-27.862595,-56.221375,-143,0
1084,0.17016602,0.034423828,0.08929443,-3.961832,-43.183205,-152.01527,0
1085,0.16156006,0.036254883,0.06225586,34.50382,-39.91603,-174.58015,0
1086,0.16674805,0.034729004,0.08380127,67.83206,-21.48855,-170.771,0
1087,0.14953613,0.02331543,0.07922363,83.824425,-49.70229,-160.3435,0
1088,0.13415527,0.010070801,0.091796875,83.74809,-67.92367,-165.29007,0
1089,0.11273193,0.009399414,0.09069824,63.076336,-86.80916,-166.94656,0
1090,0.09643555,0.011108398,0.057373047,41.15267,-70.74809,-163.25954,0
1091,0.10760498,0.013000488,0.036743164,43.67939,-42.51145,-146.67175,0
1092,0.100097656,0.009338379,0.053527832,58.389313,-24.801527,-115.816795,0
1093,0.09991455,0.010131836,0.060058594,67.24428,-24.458015,-71.42748,0
1094,0.09777832,0.0079956055,0.05657959,63.091602,-25.900763,-46.85496,0
1095,0.11022949,0.0072021484,0.07244873,45.34351,-28.442749,-11.145039,0
1096,0.12097168,0.010070801,0.08227539,23,-26.160305,12.015267,0
1097,0.11376953,0.006164551,0.08465576,-13.412213,-19.687023,19.519083,0
1098,0.10925293,0.012268066,0.07305908,-60.610687,-27.053434,19.076336,0
1099,0.14447021,0.029418945,0.10900879,-80.52672,25.687023,40.137405,0
1100,0.15301514,0.02557373,0.10668945,-90.221375,19.503817,69.78626,0
1101,0.13427734,0.041931152,0.06304932,-72.91603,4.328244,81.48855,0
1102,0.1328125,0.058410645,0.040527344,-46.412212,15.366412,122.862595,0
1103,0.15142822,0.05053711,0.043640137,-15.38168,26.641222,157.96947,0
1104,0.13739014,0.032409668,0.053771973,2.7480917,6.778626,126.60305,0
1105,0.12225342,0.017456055,0.05517578,-27.740458,-2.9923663,89.42748,0
1106,0.11883545,0.018127441,0.017089844,-62.450382,-17.458015,49.20611,0
1107,0.10748291,0.015258789,0.04486084,-79.70229,13.091603,-1.6641221,0
1108,0.10571289,0.023925781,0.048583984,-106.541985,24.068703,-20.541985,0
1109,0.10412598,0.028808594,0.04248047,-128.85497,21.709923,-20.656488,0
1110,0.10192871,0.039916992,0.043151855,-140.48856,7.2748094,-16.564886,0
1111,0.08972168,0.047668457,0.039123535,-120.59542,-11.587787,3.1908398,0
1112,0.09490967,0.04626465,0.02734375,-81.496185,-4.5343513,32.923664,0
1113,0.10296631,0.04486084,0.040527344,-46.053436,19.595419,54.20611,0
1114,0.113342285,0.04522705,0.032714844,-31.93893,36.49618,74.01527,0
1115,0.12561035,0.040649414,0.09051514,-38.14504,30.053434,77.1145,0
1116,0.12768555,0.042663574,0.035949707,-53.694656,26.305344,74.43511,0
1117,0.19354248,0.041870117,0.08868408,-71.770996,56.83206,69.183205,0
1118,0.144104,0.024780273,0.07891846,-79.12977,-18.229008,-55.870228,0
1119,0.1437378,0.025390625,0.068725586,-66.61069,25.358778,-122.91603,0
1120,0.13085938,0.0211792,0.064331055,-51.328243,37.93893,-130.68703,0
1121,0.13330078,0.032287598,0.051208496,-3.2366412,24.137405,-109.778625,0
1122,0.1305542,0.038635254,0.04663086,53.12214,20.08397,-55.23664,0
1123,0.117248535,0.024597168,0.09075928,83.458015,6.5725193,-31.312977,0
1124,0.11328125,0.011962891,0.06677246,88.84733,3.6412213,-25.06107,0
1125,0.111694336,-0.0026245117,0.06915283,78.35114,3.8091602,-38.83206,0
1126,0.11279297,-0.00982666,0.07891846,45.72519,-1.3282443,-56.450382,0
1127,0.11505127,-0.013183594,0.064819336,4.335878,-7.519084,-79.71756,0
1128,0.11505127,-0.003112793,0.09313965,-23.366413,-16.549618,-80.908394,0
1129,0.11187744,0.005126953,0.06347656,-30.022902,-19.099237,-72.07633,0
1130,0.12084961,0.021240234,0.053771973,-17.57252,-17.137405,-49.267174,0
1131,0.1184082,0.025146484,0.072509766,6.076336,-11.7786255,-16.419847,0
1132,0.11804199,0.021240234,0.082458496,20.534351,-10.587787,2.9694657,0
1133,0.11987305,0.027770996,0.099121094,23.206106,-15.541985,20.534351,0
1134,0.117126465,0.026611328,0.091430664,27.259542,-15.511451,25.358778,0
1135,0.11627197,0.027160645,0.06756592,23.267176,-8.832061,27.641222,0
1136,0.11004639,0.024719238,0.09649658,11.061069,-4.5343513,28.412214,0
1137,0.10687256,0.035705566,0.048339844,14.320611,-2.6717558,30.19084,0
1138,0.10821533,0.042175293,0.076293945,33.14504,11.351145,49.984734,0
1139,0.10699463,0.043273926,0.066101074,55.862595,21.045801,73.46565,0
1140,0.11053467,0.04321289,0.090148926,72.580154,26.480917,89.03817,0
1141,0.12182617,0.044921875,0.081970215,82.28244,28.152672,100.98473,0
1142,0.11956787,0.029052734,0.06896973,32.419846,-0.39694658,69.35114,0
1143,0.123046875,0.04083252,0.048339844,15.198473,12.870229,30.412214,0
1144,0.12530518,0.043945312,0.060791016,24.038168,18.099237,23.51145,0
1145,0.124816895,0.04095459,0.08013916,32.137405,14.38168,15.763359,0
1146,0.122558594,0.041259766,0.03656006,40.290077,6.3816795,8.61832,0
1147,0.11810303,0.0390625,0.056640625,49.564884,2.8778627,8.2595415,0
1148,0.11669922,0.04058838,0.05480957,57.366413,6.6412215,9.0992365,0
1149,0.1159668,0.038391113,0.059814453,65.16031,7.885496,10.450381,0
1150,0.11975098,0.038635254,0.057128906,71.61069,11.236641,13.541985,0
1151,0.11395264,0.036315918,0.053649902,68.28244,2.8549619,15.832061,0
1152,0.11114502,0.034057617,0.058654785,63.687023,0.3816794,13.366412,0
1153,0.119140625,0.034057617,0.061523438,60.045803,-4.480916,12.916031,0
1154,0.12335205,0.032470703,0.0579834,58.603054,-4.2824426,11.603053,0
1155,0.12200928,0.034057617,0.06329346,57.40458,-4.8244276,5.1221375,0
1156,0.12597656,0.038208008,0.091308594,60.664124,0.8167939,-0.64122134,0
1157,0.12890625,0.032165527,0.07922363,58.458015,2.2442749,0.29007635,0
1158,0.13409424,0.034240723,0.08117676,58.47328,9.870229,-4.9770994,0
1159,0.13000488,0.030517578,0.08148193,58.480915,10.564885,-7.6488547,0
1160,0.11846924,0.027893066,0.070617676,58.59542,4.0305343,-17.923664,0
1161,0.11810303,0.028259277,0.047058105,67.64886,10.7786255,-22.229008,0
1162,0.116882324,0.02508545,0.044677734,87.78626,10.80916,-23.526718,0
1163,0.11767578,0.024230957,0.064331055,105.908394,23.687023,-24.374046,0
1164,0.11395264,0.017578125,0.055114746,104.21374,19.152672,-23.862595,0
1165,0.12347412,0.010559082,0.053955078,85.938934,13.328244,-30.580153,0
1166,0.12200928,0.022705078,0.034240723,49.045803,-7.7862597,-36.129772,0
1167,0.12878418,0.024169922,0.0592041,74.0229,-1.7328244,-33.580154,0
1168,0.1326294,0.025268555,0.068481445,80.618324,1.9312977,-31.076336,0
1169,0.13531494,0.02508545,0.092163086,87.221375,1.6870229,-30.717558,0
1170,0.12866211,0.023010254,0.05316162,88.65649,-3.3740458,-30.335878,0
1171,0.1227417,0.020996094,0.010620117,79.94656,-10.206107,-31.419847,0
1172,0.115112305,0.02142334,0.10321045,66.78626,-11.030535,-33.10687,0
1173,0.11218262,0.022949219,0.0579834,53.778625,-6.3435116,-34.78626,0
1174,0.1081543,0.025390625,0.07080078,43.23664,0.5648855,-30.740458,0
1175,0.111328125,0.026855469,0.07183838,32.78626,5.2137403,-23.801527,0
1176,0.1116333,0.028503418,0.088378906,23.374046,9.977099,-17.19084,0
1177,0.11035156,0.03466797,0.07714844,22.435114,7.3511453,-11.679389,0
1178,0.10858154,0.035705566,0.064086914,29.908398,14.106871,-4.1603055,0
1179,0.10601807,0.035461426,0.062072754,27.687023,17.839695,-0.045801528,0
1180,0.11206055,0.037719727,0.035217285,24.366413,24.305344,2.2290077,0
1181,0.1182251,0.039733887,0.06652832,23.832062,29.007633,7.3816795,0
1182,0.11798096,0.039916992,0.075683594,19.549618,24.76336,5.0458016,0
1183,0.114746094,0.046142578,0.05328369,20.984734,19.442749,-0.7099237,0
1184,0.13092041,0.048339844,0.041137695,35.587788,37.198475,4.6412215,0
1185,0.13439941,0.04425049,0.053588867,39.603054,37.38168,8.061069,0
1186,0.1350708,0.050048828,0.07458496,20.755726,45.34351,10.557252,0
1187,0.13476562,0.06488037,0.08929443,23.923664,27.175573,18.458015,0
1188,0.11834717,0.058044434,0.03466797,44.79389,13.389313,19.076336,0
1189,0.1048584,0.048950195,0.027832031,47.85496,0.53435117,0.6793893,10
1190,0.12695312,0.037353516,0.045898438,-32.23664,-16.770992,-32.328243,10
1191,0.12683105,0.04119873,0.062316895,-45.305344,-28.396946,-31.015266,10
1192,0.123046875,0.04071045,0.03137207,-54.84733,-32.21374,-31.404581,10
1193,0.109558105,0.040039062,0.018310547,-56.87786,-27.267176,-29.80916,10
1194,0.105285645,0.037902832,0.051513672,-50.91603,-21.358778,-22.664122,10
1195,0.10601807,0.038635254,0.034057617,-39.648853,-19.76336,-7.8244276,10
1196,0.10345459,0.0335083,0.03540039,-40.12214,-19.389313,4.1984735,10
1197,0.109375,0.030517578,0.041870117,-57.519085,-19.633587,13.519084,10
1198,0.10827637,0.030639648,0.04260254,-73.0687,-24.068703,24.587786,10
1199,0.11206055,0.033447266,0.06048584,-83.19084,-25.076336,35.564884,10
1200,0.11517334,0.0368042,0.052246094,-94.19084,-30.770992,42.9771,10
1201,0.12133789,0.036193848,0.048034668,-105.26717,-34.931297,46.549618,10
1202,0.11981201,0.036499023,0.062194824,-113.824425,-41.450382,48.007633,10
1203,0.12017822,0.035888672,0.046325684,-126.89313,-49.52672,43.519085,10
1204,0.1305542,0.025146484,0.04626465,-146.00763,-41.396946,27.442749,10
1205,0.14727783,0.030456543,0.07550049,-169.21375,-41.984734,24.74809,10
1206,0.1572876,0.037109375,0.12384033,-178.87022,-48.129772,16.977098,10
1207,0.15631104,0.044006348,0.0635376,-167.8626,-38.694656,21.480917,10
1208,0.1619873,0.047302246,0.06390381,-149.49619,-46.549618,26.259542,10
1209,0.120788574,0.03918457,0.059509277,-130.03053,-63.030533,6.847328,10
1210,0.10168457,0.034851074,0.04425049,-118.0458,-72.48092,-11.129771,10
1211,0.12591553,0.03277588,0.093322754,-95.83206,-48.549618,-27.534351,10
1212,0.109558105,0.021240234,0.03643799,-76.70992,-11.916031,-48.923664,10
1213,0.09906006,0.024658203,0.047729492,-57.366413,-28.61832,-4.778626,10
1214,0.10699463,0.023864746,0.025878906,-56.984734,-8.954199,3.6259542,10
1215,0.11273193,0.023498535,0.062805176,-61.885498,-1.2442749,9.694656,10
1216,0.117126465,0.026062012,0.07733154,-66.381676,-5.412214,6.0992365,10
1217,0.11376953,0.027038574,0.07080078,-73.28244,-14.519084,3.6564887,10
1218,0.11328125,0.03149414,0.08795166,-74.38931,-16.48855,0.9312977,10
1219,0.12145996,0.034301758,0.027648926,-63.038166,-5.5343513,13.38168,10
1220,0.123291016,0.033081055,0.074035645,-51.52672,1.4656489,17.687023,10
1221,0.12719727,0.031921387,0.06518555,-50.72519,7.40458,16.274809,10
1222,0.152771,0.03137207,0.068237305,-52.27481,37.27481,19.992367,10
1223,0.18676758,0.026428223,0.103881836,-68.40458,11.488549,35.89313,10
1224,0.14807129,0.025146484,0.057861328,-78.175575,-28.587786,7.7938933,10
1225,0.13952637,0.0234375,0.09667969,-105.74809,-25,-6.9694657,10
1226,0.13433838,0.023864746,0.055419922,-112.61069,-49.816795,-26.587786,10
1227,0.12799072,0.028076172,0.07080078,-89.12977,-29.328245,-43.038166,10
1228,0.117492676,0.030822754,0.018127441,-71.62595,-20.641222,-37.74046,10
1229,0.11279297,0.023071289,0.092163086,-50.603054,-16.862595,-36.72519,10
1230,0.114868164,0.020202637,0.07897949,-35.34351,-11.412213,-34.38168,10
1231,0.12005615,0.015319824,0.072387695,-39.55725,-22.290077,-35.251907,10
1232,0.11468506,0.012451172,0.060424805,-47.78626,-25.900763,-38.32061,10
1233,0.12121582,0.016174316,0.05114746,-52.839695,-20.114504,-34.160305,10
1234,0.11956787,0.014709473,0.05847168,-57.603054,-16.267176,-29.32061,10
1235,0.119262695,0.014343262,0.05340576,-61.59542,-20.145039,-27.419847,10
1236,0.11212158,0.020812988,0.05670166,-41.549618,-5.7480917,23.229008,10
1237,0.109375,0.025817871,0.04724121,-33.389313,-0.061068702,37.40458,10
1238,0.12261963,0.026062012,0.052978516,-31.76336,3.5801528,45.053436,10
1239,0.123046875,0.027709961,0.070373535,-40.06107,3.5267177,43.312977,10
1240,0.1352539,0.02545166,0.056884766,-46.885498,2.832061,40.221375,10
1241,0.13519287,0.024658203,0.062438965,-51.839695,2.7099237,35.099236,10
1242,0.14709473,0.024353027,0.0569458,-61.61832,1.3664122,28.87023,10
1243,0.13146973,0.024047852,0.030395508,-70.79389,-25.839695,16.25191,10
1244,0.12365723,0.025512695,0.061584473,-70.145035,-14.290076,-0.45038167,10
1245,0.12750244,0.02166748,0.050720215,-71.16031,-17.160305,-10.251908,10
1246,0.1274414,0.020446777,0.044799805,-66.89313,-4.068702,-27.824427,10
1247,0.12756348,0.020324707,0.040527344,-65.0458,-1.7251909,-31.656488,10
1248,0.11437988,0.016845703,0.06591797,-58.160305,-0.3816794,-35.458015,10
1249,0.10638428,0.012268066,0.025390625,-51.603054,-3.091603,-33.961834,10
1250,0.105529785,0.019104004,0.017028809,-40.48855,-5.4885497,-21.725191,10
1251,0.11480713,0.021911621,0.024902344,-22.328245,4.29771,-3.8244274,10
1252,0.11682129,0.008422852,0.02545166,-8.091603,14.526717,9.122137,10
1253,0.1217041,0.008239746,0.07281494,-15.351145,13.007633,5.259542,10
1254,0.12683105,0.0107421875,0.072753906,-28.19084,6.0458016,2.0076337,10
1255,0.12536621,0.009216309,0.0423584,-36.923664,-1.4122137,-9.244275,10
1256,0.13232422,0.014404297,0.06756592,-38.64122,-4.557252,-14.938931,10
1257,0.13128662,0.012329102,0.014831543,-28,4.221374,-12.755725,10
1258,0.12988281,0.0056762695,0.059692383,-20.625954,6.0610685,-14.412213,10
1259,0.13232422,0.011474609,0.04852295,-12.564885,-5.9160304,15.2595415,10
1260,0.13110352,0.015197754,0.070495605,-9.458015,-4.7557254,15.312977,10
1261,0.12695312,0.010681152,0.076660156,-1.167939,-10.0992365,11.854961,10
1262,0.124938965,0.0072021484,0.046325684,-4.2290077,-9.832061,9.015267,10
1263,0.114990234,0.0025634766,0.078125,-16.824427,-16.122137,4.5496182,10
1264,0.112976074,0.004333496,0.068481445,-32.969467,-10.984733,-3.2900763,10
1265,0.11639404,0.008850098,0.055786133,-41.587788,-2.0610688,-4.2671757,10
1266,0.12194824,0.0107421875,0.08453369,-37.580154,10.587787,-3.7480917,10
1267,0.12902832,0.0138549805,0.013000488,-26.633587,17.015266,6.8625956,10
1268,0.12261963,0.016662598,0.0501709,-4.6106873,16.74809,18.374046,10
1269,0.123413086,0.014343262,0.068359375,14.648855,17.259542,27.847328,10
1270,0.12554932,0.008300781,0.079711914,21.839695,21.717558,28.931297,10
1271,0.12927246,0.002319336,0.0758667,16.526718,27.23664,20.595419,10
1272,0.1307373,0.000793457,0.061645508,9.938931,28.19084,12.603053,10
1273,0.13092041,0.0006713867,0.06542969,6.8396945,26.274809,8.068703,10
1274,0.124938965,0.0010375977,0.07824707,2.9312978,17.885496,4.2900763,10
1275,0.12512207,-0.0009765625,0.06677246,-0.22900763,14.297709,4.29771,10
1276,0.12322998,0.0012207031,0.03717041,0.9236641,14.366412,6.4351144,10
1277,0.12536621,0.0043945312,0.059509277,12.091603,18.740458,13.78626,10
1278,0.12023926,0.005065918,0.078125,25.267176,23.595419,19.48855,10
1279,0.123413086,0.001953125,0.08239746,31.625954,20.885496,20.122137,10
1280,0.12213135,0.001159668,0.0758667,32.045803,16.244274,17.564886,10
1281,0.11859131,0.004333496,0.070617676,37.778625,15.412213,20.480917,10
1282,0.11590576,-0.0012817383,0.08404541,64.778625,11.931297,27.839695,10
1283,0.115356445,-0.0053710938,0.0546875,71.23664,17.282442,31.969465,10
1284,0.10626221,-0.0037841797,0.07318115,83.71756,22.091602,38.564884,10
1285,0.10925293,-0.0020751953,0.0914917,102.94656,26.877863,53.778625,10
1286,0.11975098,-0.0020751953,0.09460449,117.381676,37.045803,65.79389,10
1287,0.11828613,-0.008361816,0.10913086,107.35114,39.74046,64.145035,10
1288,0.11633301,-0.016723633,0.107177734,78.96947,17,47.015266,10
1289,0.12042236,-0.012268066,0.11456299,50.694656,-0.6335878,29.885496,10
1290,0.118774414,-0.01361084,0.103759766,39.59542,-2.5877862,16.480917,10
1291,0.10888672,-0.014404297,0.10168457,33.34351,7.1221375,3.7862597,10
1292,0.11419678,-0.009399414,0.07611084,29.816793,7.9923663,3.9160306,10
1293,0.11279297,-0.008361816,0.08154297,33.38168,0.60305345,6.480916,10
1294,0.11212158,-0.009887695,0.07897949,34.23664,-3.3740458,12.709924,10
1295,0.10876465,-0.0067749023,0.079711914,34.625954,-7.59542,17.51145,10
1296,0.10638428,-0.0014648438,0.074157715,37.671757,-7.5801525,23.503817,10
1297,0.10992432,0.0051879883,0.08068848,43.603054,-7.70229,30.67939,10
1298,0.11553955,0.008544922,0.11883545,49.366413,-14.526717,30.93893,10
1299,0.1194458,0.008117676,0.101989746,47.816795,-17.351145,28.70229,10
1300,0.120788574,0.0037231445,0.119018555,38.091602,-19.068703,18.519083,10
1301,0.12445068,0.004699707,0.09625244,24.70229,-30.007633,4.6412215,10
1302,0.124938965,0.009033203,0.14959717,25.93893,-25.290077,-6.5038166,10
1303,0.12237549,0.011779785,0.13079834,38.221375,-24.48855,-10.725191,10
1304,0.11639404,0.009033203,0.11682129,59.816795,-17.229008,-14.755725,10
1305,0.10961914,-0.0064697266,0.09741211,39.419846,-33.59542,-12.244275,10
1306,0.117370605,0.0022583008,0.052124023,33.564884,-34.458015,-16.740458,10
1307,0.11254883,0.005493164,0.088256836,44.038166,-17.709923,-18.06107,10
1308,0.11413574,0.009094238,0.12359619,63.374046,-8.351145,-8.862596,10
1309,0.11590576,0.008056641,0.11993408,88.8855,-0.39694658,0.89312977,10
1310,0.11224365,0.0014648438,0.11816406,100.94656,0.259542,6.3053436,10
1311,0.11340332,-0.001159668,0.103759766,98.541985,4.145038,3.519084,10
1312,0.120666504,0.0018310547,0.093811035,99.35114,14.511451,7.442748,10
1313,0.13000488,0.0036010742,0.10723877,102.57252,14.106871,13.78626,10
1314,0.13256836,0.004333496,0.095825195,113.96183,10.862596,14.473283,10
1315,0.1262207,0.0048828125,0.09197998,123.40458,10.931297,27.755726,10
1316,0.12762451,0.0022583008,0.109191895,129.60306,9.862596,29.045801,10
1317,0.12731934,-0.0004882813,0.086120605,131.58015,18.480917,29.160305,10
1318,0.1237793,-0.0045166016,0.11383057,126.39695,18.946566,26.954199,10
1319,0.115722656,-0.008239746,0.103027344,115.25191,14.633588,23.862595,10
1320,0.118896484,-0.007019043,0.09631348,103.80916,8.931297,24.740458,10
1321,0.12072754,-0.0008544922,0.09338379,101.45038,12.938931,36.732826,10
1322,0.113586426,0.004699707,0.08483887,109.47328,16.091602,46.0229,10
1323,0.11102295,0.0025024414,0.09460449,109.9771,8.061069,56.053436,10
1324,0.116882324,-0.0052490234,0.059692383,100.67939,1.0763359,60.885498,10
1325,0.113464355,0.005004883,0.08453369,83.27481,-4.5114503,54.267174,10
1326,0.107788086,0.013916016,0.07446289,74.618324,-10.267176,53.51145,10
1327,0.11053467,0.012329102,0.11480713,69.96947,-14.007633,51.160305,10
1328,0.10510254,0.015930176,0.08898926,68.900764,-14.335877,47.251907,10
1329,0.109375,0.01373291,0.10418701,66.00764,-11.916031,39.946564,10
1330,0.10443115,0.012451172,0.05596924,49.519085,-3.8091602,20.412214,10
1331,0.1161499,0.017578125,0.08850098,44.312977,6.038168,19.38168,10
1332,0.13378906,0.024169922,0.0960083,44.770992,14.061069,22.48855,10
1333,0.13659668,0.020141602,0.109375,41.10687,1,10.129771,10
1334,0.10803223,0.009399414,0.07910156,29.305344,-12.274809,-22.580153,10
1335,0.08935547,0.010253906,0.0690918,25.954199,-29.328245,-37.305344,10
1336,0.0914917,0.016174316,0.06555176,50.78626,-5.6488547,-39.030533,10
1337,0.09838867,0.018737793,0.0546875,87.63359,49.984734,-13.885496,10
1338,0.11920166,0.020568848,0.0847168,128.12213,66.79389,19.725191,10
1339,0.12420654,-0.008666992,0.09423828,137.80153,41.47328,26.259542,10
1340,0.12719727,-0.012023926,0.12286377,119.51145,5.7251906,16.404581,10
1341,0.124816895,-0.015991211,0.095947266,90.61069,6.8244276,6.633588,10
1342,0.11279297,-0.01727295,0.121398926,80.80153,10.137404,2.3587787,10
1343,0.10394287,-0.015380859,0.099121094,77.89313,18.541985,7.6793895,10
1344,0.10595703,-0.0048217773,0.11126709,83.33588,12.587787,29.832062,10
1345,0.10748291,-0.0015258789,0.14544678,99.67939,17.877863,46.603054,10
1346,0.10839844,-0.008972168,0.13079834,103.72519,23.312977,58.183205,10
1347,0.11187744,-0.00390625,0.11218262,95.69466,15.908397,56.816795,10
1348,0.10961914,0.008422852,0.103271484,95.64122,6.480916,56.12214,10
1349,0.10559082,0.007751465,0.11437988,91.99236,-2.1755726,59.419846,10
1350,0.10632324,0.011413574,0.123535156,90.87023,-6.0152674,60.93893,10
1351,0.112976074,0.012268066,0.11151123,85.40458,-3.129771,56.030533,10
1352,0.12194824,0.016967773,0.12902832,72.80916,-10.541985,52.664124,10
1353,0.12200928,0.032165527,0.10784912,20.374046,-26.282442,-38.61832,10
1354,0.12011719,0.032958984,0.10784912,78.79389,-9.015267,-19.076336,10
1355,0.11444092,0.019042969,0.068847656,125.58778,6.442748,2.0229008,10
1356,0.115478516,0.014709473,0.07763672,140.78625,5.0305343,13.763359,10
1357,0.10772705,-0.0009765625,0.10882568,118.94656,-13.839695,12.061069,10
1358,0.11175537,-0.010925293,0.093444824,68.75572,-28.435114,-8.977099,10
1359,0.11035156,-0.0043945312,0.09698486,17.496183,-34.412212,-33,10
1360,0.1083374,0.007446289,0.103759766,6.7480917,-32.366413,-43.129772,10
1361,0.11029053,0.00793457,0.106933594,16.23664,-18.816793,-44.61832,10
1362,0.115112305,0.012817383,0.06994629,38.305344,-2.091603,-34.29771,10
1363,0.1184082,0.015319824,0.082458496,71.091606,18.70229,-13.954199,10
1364,0.12426758,0.014587402,0.070373535,98.84733,25.984734,13.931297,10
1365,0.12347412,0.014404297,0.082336426,113.83206,26.824427,32.419846,10
1366,0.11816406,0.015625,0.09106445,120.145035,19.854961,48.91603,10
1367,0.11517334,0.019348145,0.07598877,120.58778,18.022902,52.46565,10
1368,0.10772705,0.014831543,0.07397461,114.32061,18.732824,52.129772,10
1369,0.115112305,0.016113281,0.06561279,110.183205,21.526718,47.625954,10
1370,0.11218262,0.021057129,0.083740234,107.71756,26.19084,47.480915,10
1371,0.11743164,0.019042969,0.07348633,107.80153,19.93893,47.06107,10
1372,0.11529541,0.0234375,0.061767578,106.64886,20.290077,46.748093,10
1373,0.119384766,0.023071289,0.0703125,108.69466,15.465649,48.282444,10
1374,0.11956787,0.02923584,0.062683105,115.20611,11.2213745,47.16794,10
1375,0.11730957,0.024658203,0.060302734,116.900764,11.59542,44.839695,10
1376,0.11419678,0.015930176,0.0791626,76.0687,-5.152672,3.3435113,10
1377,0.11199951,0.015686035,0.06878662,73.03053,-0.13740458,-1.9160305,10
1378,0.12097168,0.017333984,0.041259766,71.908394,7.2366414,1.9389313,10
1379,0.11883545,0.014953613,0.07336426,72.770996,6.816794,2.1374047,10
1380,0.11779785,0.017456055,0.06530762,73.29008,3.572519,4.1755724,10
1381,0.12365723,0.018737793,0.074645996,71.27481,10.335877,7.2137403,10
1382,0.1260376,0.022827148,0.11071777,71.29008,7.8244276,9.007633,10
1383,0.12786865,0.020385742,0.0703125,71.580154,16.114504,6.7328243,10
1384,0.12579346,0.021484375,0.10461426,66.32061,3.335878,4.5114503,10
1385,0.11407471,0.019165039,0.093688965,64.70229,6.4885497,-3.816794,10
1386,0.10925293,0.016845703,0.11224365,59.809162,3.7862597,-13.244275,10
1387,0.1104126,0.01586914,0.055541992,58.44275,21.412214,-15.916031,10
1388,0.113220215,0.018127441,0.10949707,68.33588,31.603054,-11.969465,10
1389,0.113708496,0.014953613,0.09844971,77.35878,30.541985,-2.2824428,10
1390,0.10620117,0.014892578,0.11767578,83.770996,21.068703,5.5725193,10
1391,0.103637695,0.015563965,0.105773926,86.21374,24.305344,9.015267,10
1392,0.11328125,0.023498535,0.1362915,95.57252,32.603054,19.877863,10
1393,0.12005615,0.020141602,0.14471436,106.46565,38.85496,27.12977,10
1394,0.12438965,0.020141602,0.1239624,102.32825,28.442749,29.908398,10
1395,0.12194824,0.01977539,0.11590576,89.60305,16.557251,21.992367,10
1396,0.124694824,0.020629883,0.06958008,67.70229,6.2290077,13.671756,10
1397,0.12084961,0.023010254,0.10015869,55.40458,11.045801,-2.6335878,10
1398,0.11273193,0.028381348,0.10028076,56.9771,15.427481,-4.7480917,10
1399,0.10760498,0.02911377,0.08459473,69.96947,14.572519,-0.52671754,10
1400,0.11053467,0.030456543,0.12384033,86.137405,18.114504,7.2519083,10
1401,0.11260986,0.027770996,0.12866211,92.71756,27.229008,17.847328,10
1402,0.118896484,0.026489258,0.078552246,91.58778,28.206106,27.778625,10
1403,0.11871338,0.022888184,0.092285156,81.25191,9.557252,27.61832,10
1404,0.10522461,0.026794434,0.108947754,65.70229,-5.3206105,19.564886,10
1405,0.107788086,0.026550293,0.0513916,55.70229,-7.152672,12.465649,10
1406,0.1060791,0.030456543,0.09283447,52.687023,3.9312978,10.519084,10
1407,0.11505127,0.028625488,0.09698486,47.900764,4.778626,14.908397,10
1408,0.11975098,0.028503418,0.0927124,40.351147,-2.8015268,15.21374,10
1409,0.12347412,0.031188965,0.09509277,30.946566,-11.984733,13.358779,10
1410,0.11993408,0.034423828,0.06573486,26.648855,-16.38168,12.229008,10
1411,0.11932373,0.03857422,0.08502197,32.969467,-13.541985,10.938931,10
1412,0.12054443,0.037475586,0.08746338,43.76336,-1.9770992,16.42748,10
1413,0.13537598,0.031555176,0.101989746,45.221375,-5.480916,14.946565,10
1414,0.12701416,0.025512695,0.08984375,39.198475,-6.1984735,-0.5496183,10
1415,0.1317749,0.022155762,0.10723877,20.030535,-13.59542,-13.19084,10
1416,0.12054443,0.024719238,0.090026855,10.282443,-12.0992365,-25.358778,10
1417,0.10998535,0.03149414,0.04547119,17.152672,-13.80916,-31.08397,10
1418,0.105407715,0.031311035,0.06427002,29.801527,-7.29771,-21.671755,10
1419,0.101745605,0.030090332,0.08099365,47.72519,0.129771,-10.610687,10
1420,0.10345459,0.021362305,0.04827881,52.045803,9.61832,-2.557252,10
1421,0.111572266,0.020751953,0.06945801,41.030533,6.9770994,-0.90839696,10
1422,0.113464355,0.024841309,0.06677246,29.08397,-2.4503818,-3.7862597,10
1423,0.11785889,0.02911377,0.070251465,25.580153,-1.2748091,-7.5725193,10
1424,0.118652344,0.029418945,0.08074951,29.740458,5.3129773,-8.587787,10
1425,0.12451172,0.032226562,0.04473877,39.984734,11.770992,-7.625954,10
1426,0.123168945,0.02911377,0.046081543,55.9771,17.969465,-6.3893127,10
1427,0.12530518,0.03387451,0.041870117,75.496185,17.633587,-4.633588,10
1428,0.12585449,0.034362793,0.0569458,93.908394,16.526718,-0.58778626,10
1429,0.12109375,0.029418945,0.054138184,105.00764,16.80916,4.89313,10
1430,0.11791992,0.028442383,0.04815674,103.73283,15.450381,6.1679387,10
1431,0.12097168,0.022399902,0.04058838,95.12214,14.938931,6.068702,10
1432,0.119018555,0.020385742,0.0357666,83.27481,14.870229,4.1984735,10
1433,0.11529541,0.020263672,0.041992188,68.51908,15.450381,5.076336,10
1434,0.11907959,0.025146484,0.029174805,62.335876,17.160305,8.458015,10
1435,0.11993408,0.024963379,0.030944824,59.114502,13.702291,12.7404585,10
1436,0.1105957,0.02911377,0.060791016,62.030533,13.633588,13.946565,10
1437,0.11035156,0.030944824,0.04473877,65.770996,16,17.206106,10
1438,0.117614746,0.034301758,0.046569824,67.740456,22.717558,23.57252,10
1439,0.12207031,0.03173828,0.08380127,69.64122,26.374046,27.786259,10
1440,0.12634277,0.02960205,0.08666992,61.229008,24.114504,30.022902,10
1441,0.124572754,0.03173828,0.06555176,52.633587,14.702291,28.351145,10
1442,0.13000488,0.032714844,0.07220459,45.038166,13.480916,21.954199,10
1443,0.12915039,0.033325195,0.050720215,43.251907,8.748092,20.984734,10
1444,0.12310791,0.033325195,0.08685303,45.984734,15.083969,10.442748,10
1445,0.12237549,0.030761719,0.087890625,47.633587,19.25191,3.5648854,10
1446,0.12841797,0.030700684,0.08074951,50.480915,26.610687,1.3664122,10
1447,0.12213135,0.03289795,0.080566406,53.53435,23.152672,-3.5114503,10
1448,0.117126465,0.032470703,0.08227539,51.748093,24.152672,-1.4503816,10
1449,0.11743164,0.03149414,0.06958008,50.427483,24.19084,-0.5038168,10
1450,0.1138916,0.031677246,0.095214844,56.61832,23.664122,-1.4961832,10
1451,0.1081543,0.03363037,0.08874512,62.16794,29.351145,2.9770992,10
1452,0.1116333,0.032043457,0.030456543,66.900764,31.923664,4.0229006,10
1453,0.10626221,0.03112793,0.10498047,73.91603,33.20611,2.6793892,10
1454,0.101623535,0.027832031,0.07287598,76.175575,30.595419,2.0076337,10
1455,0.10076904,0.028442383,0.07678223,75.25191,32.229008,1.7557251,10
1456,0.109191895,0.03277588,0.06842041,79.16031,38.244274,8.9007635,10
1457,0.11657715,0.0335083,0.070495605,85.67175,39.809162,20.832062,10
1458,0.11584473,0.03491211,0.09552002,90.229004,29.007633,36.29771,10
1459,0.118774414,0.028137207,0.08831787,83.908394,19.931297,34.015266,10
1460,0.11230469,0.024597168,0.109069824,69.35114,14.59542,22.08397,10
1461,0.10449219,0.031188965,0.061767578,58.664124,16.152672,10.954199,10
1462,0.10784912,0.03302002,0.095581055,57.83206,20.57252,5.961832,10
1463,0.10870361,0.033203125,0.091308594,62.53435,18,9.045801,10
1464,0.113342285,0.034179688,0.09680176,66.42748,14.38168,12.519084,10
1465,0.10620117,0.030212402,0.08392334,62.396946,10.167939,14,10
1466,0.10852051,0.027832031,0.056640625,51.519085,6.3893127,8.625955,10
1467,0.10559082,0.035095215,0.06311035,40.992367,1.3816794,7.2137403,10
1468,0.113342285,0.02911377,0.08239746,34.687023,-2.5419848,4.519084,10
1469,0.11431885,0.032104492,0.07678223,28.91603,-4.671756,1.29771,10
1470,0.12109375,0.03564453,0.06201172,27.648855,-3.465649,4.2748094,10
1471,0.14050293,0.0345459,0.10028076,19.442749,0.3053435,14.106871,10
1472,0.12823486,0.030883789,0.06488037,5.9541984,-10.015267,3.0687022,10
1473,0.1184082,0.0335083,0.080444336,-10,-14.160305,-7.5114503,10
1474,0.11663818,0.037719727,0.051086426,-0.23664123,-18.374046,-13.687023,10
1475,0.11212158,0.041748047,0.05706787,29.91603,-9.732824,-19.778625,10
1476,0.11114502,0.036499023,0.03552246,60.648853,7.7480917,-19.160305,10
1477,0.105773926,0.030944824,0.06958008,74.16031,10.053435,-18.25191,10
1478,0.109191895,0.027893066,0.047668457,74.9313,6.29771,-21.885496,10
1479,0.10736084,0.019348145,0.051940918,60.91603,-3.9160306,-23.282442,10
1480,0.10662842,0.0146484375,0.042785645,34.954197,-9.396947,-28.29771,10
1481,0.1027832,0.026489258,0.032104492,19.656488,-9.328244,-32.12214,10
1482,0.11218262,0.032043457,0.05328369,25.717558,6.259542,-20.580153,10
1483,0.11590576,0.025756836,0.0335083,37.946564,8.984733,-8.992367,10
1484,0.11791992,0.02923584,0.03515625,47.44275,19.419847,-4.4961834,10
1485,0.12579346,0.035949707,0.03326416,59.305344,19.816793,3.6183207,10
1486,0.12194824,0.032958984,0.03314209,75.74809,18.42748,5.9541984,10
1487,0.11779785,0.03253174,0.05230713,89.862595,16.519083,9.045801,10
1488,0.11035156,0.025939941,0.0803833,93.46565,14.2213745,8.229008,10
1489,0.109313965,0.02746582,0.06121826,89.80916,18.900763,5.328244,10
1490,0.10510254,0.02368164,0.047729492,78.51145,23.312977,10.152672,10
1491,0.10308838,0.029846191,0.08392334,71.55725,25.351145,17.61832,10
1492,0.10650635,0.030883789,0.053100586,73.10687,26.198473,29.305344,10
1493,0.107666016,0.031555176,0.027893066,73.38931,23.496183,38.328243,10
1494,0.10467529,0.033813477,0.03967285,72.56489,21.213741,41.65649,10
1495,0.107543945,0.03363037,0.07299805,74.78626,24.526718,42.48855,10
1496,0.11212158,0.036376953,0.060791016,76.0229,27.732824,44.76336,10
1497,0.11651611,0.034179688,0.044677734,78.770996,26.656488,47.160305,10
1498,0.11956787,0.034179688,0.095703125,78.12214,23.259542,46.06107,10
1499,0.119262695,0.034057617,0.05444336,69.259544,14.091603,39.87786,10
1500,0.11730957,0.028808594,0.08251953,61.40458,9.488549,20.961832,10
1501,0.11529541,0.033325195,0.05480957,51.519085,6.4656487,2.8778627,10
1502,0.11462402,0.035095215,0.08557129,54.72519,17.946566,-6.1297708,10
1503,0.12231445,0.035339355,0.07293701,62.816795,27.137405,-7.519084,10
1504,0.12023926,0.03753662,0.0736084,74.48855,31.610687,-1.7251909,10
1505,0.12219238,0.03363037,0.082458496,80.34351,28.57252,7.10687,10
1506,0.11871338,0.033569336,0.05706787,80.48092,22.259542,8.183207,10
1507,0.1161499,0.03277588,0.07293701,78.44275,17.404581,4.2366414,10
1508,0.1171875,0.034851074,0.07385254,73.79389,18.06107,-0.8549618,10
1509,0.110961914,0.030761719,0.061462402,73.89313,21.541985,-6.7557254,10
1510,0.11138916,0.031066895,0.05670166,69.19084,22.954199,-10.183207,10
1511,0.10864258,0.031066895,0.05810547,64.175575,20.221375,-12.877863,10
1512,0.10821533,0.03149414,0.07196045,63.67939,16.358778,-12.305344,10
1513,0.10662842,0.033447266,0.06732178,67.67175,23.877863,-16.022902,10
1514,0.107055664,0.032348633,0.08251953,68.87023,28.259542,-14.7404585,10
1515,0.10736084,0.030761719,0.07928467,74.55725,28.335878,-14.862596,10
1516,0.10925293,0.027709961,0.053588867,76.67175,22.458015,-17.221375,10
1517,0.107055664,0.02947998,0.050231934,73.458015,22.587786,-16.969465,10
1518,0.10687256,0.032165527,0.09429932,75.87786,26.274809,-15.229008,10
1519,0.1138916,0.031921387,0.071777344,76.900764,24.38168,-6.1297708,10
1520,0.11553955,0.029968262,0.076293945,73.99236,18.541985,0.89312977,10
1521,0.113586426,0.0256958,0.08190918,57.717556,8.679389,-0.2519084,10
1522,0.11206055,0.024719238,0.07330322,35.48855,2.2442749,-6.8015265,10
1523,0.113220215,0.029724121,0.064575195,21.725191,0.86259544,-14.351145,10
1524,0.105529785,0.030822754,0.054870605,17.877863,6.9160304,-17.80916,10
1525,0.103637695,0.036071777,0.07055664,24.305344,8.519084,-15.183207,10
1526,0.10632324,0.03955078,0.0546875,35.664124,14.335877,-6.0305343,10
1527,0.104003906,0.03186035,0.055419922,44.816795,18.954199,4.59542,10
1528,0.105041504,0.031921387,0.07165527,48.23664,16,13.045801,10
1529,0.10058594,0.03289795,0.058776855,44.49618,11.946565,19.74809,10
1530,0.111328125,0.03387451,0.03778076,38.229008,6.7938933,23.053434,10
1531,0.107055664,0.032958984,0.04107666,32.923664,3.5648854,26.656488,10
1532,0.113586426,0.03765869,0.05291748,28.183207,-0.71755725,29.80916,10
1533,0.113342285,0.039123535,0.04046631,22.778625,-4.7862597,28.977098,10
1534,0.12194824,0.033447266,0.08856201,14.717557,-3.6412213,24.503817,10
1535,0.13323975,0.03277588,0.05102539,0.71755725,-6.480916,22.25191,10
1536,0.12774658,0.033935547,0.055725098,-8.916031,-6.114504,11.625955,10
1537,0.12878418,0.034240723,0.06298828,-13.7404585,-8.015267,7.9389315,10
1538,0.123535156,0.04260254,0.05328369,-3.206107,-3.59542,0.6870229,10
1539,0.119384766,0.041809082,0.033447266,15.641221,-0.32061067,-4.3969464,10
1540,0.11981201,0.04095459,0.034179688,37.931297,0.2519084,-4.366412,10
1541,0.12054443,0.035888672,0.056396484,53.78626,-2.053435,-8.198473,10
1542,0.11602783,0.028503418,0.035095215,52.694656,-7.152672,-12.129771,10
1543,0.11437988,0.0234375,0.057434082,33.389313,-14,-18.549618,10
1544,0.11376953,0.022460938,0.02947998,6.1984735,-20.305344,-27.534351,10
1545,0.11218262,0.03186035,0.057739258,-7.9694657,-20.458015,-32.16794,10
1546,0.10876465,0.034484863,0.040039062,0.08396947,-14.954199,-23.10687,10
1547,0.11242676,0.033935547,0.046203613,14.801527,-9.526717,-11.755725,10
1548,0.11102295,0.032470703,0.05633545,26.10687,-5.9847326,-7.4885497,10
1549,0.109313965,0.028076172,0.059387207,27.496183,-0.90076333,-9.38168,10
1550,0.1159668,0.029541016,0.047302246,30.213741,1.870229,-10.2213745,10
1551,0.117370605,0.031555176,0.08288574,35.053436,5.152672,-7.923664,10
1552,0.118896484,0.03161621,0.018310547,40.221375,9.160305,-3.40458,10
1553,0.117248535,0.034118652,0.025817871,45.351147,8.610687,3.4885497,10
1554,0.11230469,0.032226562,0.03643799,52.389313,6.3587785,7.9465647,10
1555,0.10821533,0.031433105,0.04827881,56.519085,6.1297708,11.374045,10
1556,0.10614014,0.026611328,0.044189453,52.923664,6.6106873,10.694656,10
1557,0.1071167,0.026855469,0.024047852,43.816795,8.519084,8.412213,10
1558,0.106933594,0.029968262,0.049621582,36.419846,10.587787,10.526717,10
1559,0.111572266,0.03314209,0.023620605,38.198475,12.007633,11.320611,10
1560,0.11193848,0.032287598,0.036132812,40.419846,13.992367,13.496183,10
1561,0.112854004,0.03253174,0.030395508,41.91603,13.603053,15.396947,10
1562,0.11151123,0.032592773,0.026489258,43.282444,16.137405,16.091602,10
1563,0.1081543,0.02947998,0.038330078,45.51145,17.015266,16.76336,10
1564,0.10839844,0.03491211,0.020812988,48.778625,18.87023,16.503817,10
1565,0.107910156,0.03466797,0.01751709,52.351147,20.76336,19.312977,10
1566,0.12005615,0.037902832,0.031982422,50.961834,23.19084,23.221375,10
1567,0.11987305,0.0335083,0.024047852,50.85496,20.770992,19.656488,10
1568,0.116760254,0.035217285,0.039367676,49.79389,15.694656,13.587787,10
1569,0.11639404,0.037719727,0.022827148,50.954197,15.022901,4.2061067,10
1570,0.116882324,0.036010742,0.013000488,54.70229,17.961832,-4.1221375,10
1571,0.119384766,0.035217285,0.011352539,61.06107,21.801527,-10.083969,10
1572,0.123046875,0.03363037,0.020751953,67.80153,26.992367,-13.702291,10
1573,0.12982178,0.033203125,0.048034668,65.62595,19.847328,-15.053435,10
1574,0.12908936,0.031433105,0.026550293,62.030533,13.541985,-15.366412,10
1575,0.120910645,0.031982422,0.04534912,58.67939,2.610687,-16.671755,10
1576,0.12243652,0.032592773,0.05834961,57.160305,1.0534351,-15.961832,10
1577,0.11456299,0.032409668,0.020385742,60.671757,2.7251909,-14.908397,10
1578,0.12145996,0.032958984,0.05706787,60.190838,6.4961834,-16.450382,10
1579,0.11425781,0.030944824,0.02923584,57.946564,4.1374044,-15.824428,10
1580,0.1182251,0.029296875,0.031677246,54.198475,1.8167939,-18.595419,10
1581,0.119140625,0.028930664,0.038269043,50.931297,-0.8549618,-23.961832,10
1582,0.118896484,0.03137207,0.02557373,47.946564,0.4427481,-24.152672,10
1583,0.122558594,0.027404785,0.028320312,44.23664,2.2824428,-30.42748,10
1584,0.1194458,0.028015137,0.040161133,40.419846,6.625954,-32.21374,10
1585,0.11248779,0.02935791,0.037719727,36.610687,7.2442746,-32.34351,10
1586,0.11065674,0.02960205,0.041015625,33.84733,8.229008,-30.91603,10
1587,0.11407471,0.029724121,0.03314209,35.412212,11.984733,-28.51145,10
1588,0.1060791,0.031188965,0.029296875,41.450382,17.053434,-20.038168,10
1589,0.107543945,0.027770996,0.056030273,40.55725,21.961832,-16.335878,10
1590,0.10821533,0.027893066,0.063964844,33.862595,25.045801,-10.908397,10
1591,0.10247803,0.02758789,0.0501709,25.022902,28.625954,-3.259542,10
1592,0.1116333,0.027038574,0.086120605,14.938931,30.969465,1.0458015,10
1593,0.109313965,0.033691406,0.06365967,3.6030533,34.923664,3.8396947,10
1594,0.112976074,0.03717041,0.07171631,3.6412213,33.587788,8.526717,10
1595,0.11584473,0.040161133,0.06060791,15.862596,37.221375,15.862596,10
1596,0.11798096,0.041748047,0.04034424,33.40458,37.809162,24.557251,10
1597,0.11932373,0.03845215,0.043029785,45.770992,37.06107,26.045801,10
1598,0.12677002,0.039123535,0.10406494,48.38168,33.79389,20.80916,10
1599,0.124694824,0.0390625,0.04711914,52.49618,32.38168,19.847328,10
1600,0.1239624,0.036315918,0.035095215,50.67939,25.358778,16.053434,10
1601,0.12567139,0.034423828,0.044555664,42.885498,18.076336,8.954199,10
1602,0.1217041,0.032226562,0.05407715,31,13.083969,0.7633588,10
1603,0.12322998,0.0335083,0.035583496,18.366413,8.564885,-5.480916,10
1604,0.12249756,0.032714844,0.042053223,10.793893,5.6793895,-8.7786255,10
1605,0.12384033,0.038208008,0.032287598,10.267176,3.3664122,-7.6488547,10
1606,0.1270752,0.0368042,0.033813477,11.946565,1.6335878,-0.33587787,10
1607,0.12036133,0.036376953,0.041503906,12.480916,-3.8549619,1.3664122,10
1608,0.12695312,0.03778076,0.029663086,12.938931,-1.9923664,8.961832,10
1609,0.12188721,0.034362793,0.039611816,12.015267,-6.6870227,9.083969,10
1610,0.119018555,0.03552246,0.04498291,8.274809,-3.9541984,6.6030536,10
1611,0.11993408,0.03741455,0.03643799,7.3587785,-6.145038,6.4732823,10
1612,0.121520996,0.03656006,0.04559326,7.374046,-5.5343513,-0.24427481,10
1613,0.12109375,0.036376953,0.042907715,4.038168,-6.9847326,-5.3587785,10
1614,0.11804199,0.035888672,0.03149414,7.7633586,-7.8625956,-4.885496,10
1615,0.1171875,0.036071777,0.05706787,9.465649,-6.9923663,-5.3206105,10
1616,0.11480713,0.034118652,0.07952881,3.5877862,-7.0229006,-8,10
1617,0.115356445,0.0368042,0.031066895,3.6564887,-5.7251906,-10.916031,10
1618,0.11968994,0.03302002,0.038269043,4.9465647,1.2366412,-9.015267,10
1619,0.12347412,0.03149414,0.05682373,1.1526718,-1.3435115,-14.274809,10
1620,0.123535156,0.033447266,0.053649902,-5.0534353,-2.9847329,-19.183207,10
1621,0.11315918,0.0335083,0.022399902,-2.0687022,-4.480916,-22.908398,10
1622,0.12158203,0.037109375,0.044921875,3.9694657,-1.4580153,-21.030535,10
1623,0.11981201,0.029418945,0.042541504,7.6946564,1.6793894,-19.213741,10
1624,0.11968994,0.032348633,0.040405273,10.022901,2.7328243,-16.145039,10
1625,0.121520996,0.028930664,0.015930176,10.732824,3.2290077,-9.007633,10
1626,0.11755371,0.026306152,0.026672363,4.854962,-3.3435113,-5.6564884,10
1627,0.11993408,0.029968262,0.029541016,-3.312977,-2.610687,-7.1221375,10
1628,0.12194824,0.03955078,0.026245117,3.129771,3.2290077,3.0076337,10
1629,0.117614746,0.041381836,0.02734375,15.603053,9.854961,17.70229,10
1630,0.11462402,0.034362793,0.03338623,14.290076,6.3435116,20.282442,10
1631,0.1204834,0.035339355,0.026672363,14.114504,4.9007635,20.442749,10
1632,0.12677002,0.03100586,0.023986816,14.946565,3.3435113,18.08397,10
1633,0.12451172,0.036315918,0.02557373,10.625955,-1.3053435,12.389313,10
1634,0.12322998,0.030700684,0.026184082,2.687023,0.66412216,8.19084,10
1635,0.12420654,0.033813477,0.02709961,-1.1068702,-1.519084,2.816794,10
1636,0.12677002,0.033447266,0.026916504,-1.221374,-1.6641221,-4.961832,10
1637,0.12548828,0.03741455,0.014099121,0.8244275,-3.4122138,-10.229008,10
1638,0.122802734,0.031677246,0.0068359375,7.480916,-2.389313,-7.6488547,10
1639,0.12506104,0.03112793,0.015625,9.106871,-2.6793892,-8.290076,10
1640,0.1239624,0.03100586,0.027832031,7.5648856,-1.1374046,-7.8625956,10
1641,0.12219238,0.031433105,0.031799316,5.8625956,-2.610687,-6.5114503,10
1642,0.12506104,0.03137207,0.035217285,3.6335878,-2.7480917,-4.59542,10
1643,0.123168945,0.03363037,0.025634766,1.2290076,-5.4656487,-2.6793892,10
1644,0.12249756,0.032104492,0.04046631,3.3740458,-4.4351144,-4.4961834,10
1645,0.119262695,0.032470703,0.056518555,6.8778625,-2.8549619,-2.2900763,10
1646,0.11645508,0.028808594,0.047607422,1.5114504,-4.5419846,-2.648855,10
1647,0.11224365,0.032226562,0.014099121,-3.59542,-6.4885497,-4.5267177,10
1648,0.12030029,0.03149414,0.057373047,-1.7557251,-3.1755726,-5.3816795,10
1649,0.12164307,0.030090332,0.021484375,-3.4122138,-2.4198472,-2.442748,10
1650,0.11920166,0.032470703,0.022949219,-4.5343513,-2.129771,-0.18320611,10
1651,0.12005615,0.031921387,0.031799316,-3.0152671,-2.0229008,2.3282442,10
1652,0.1194458,0.031555176,0.066467285,-1.740458,-1.6183206,4.740458,10
1653,0.119140625,0.033447266,0.05316162,-1.6259542,0.86259544,4.0458016,10
1654,0.11828613,0.031555176,0.032836914,-1.2290076,1.6183206,3.442748,10
1655,0.12145996,0.0345459,0.057922363,-2.167939,4.3129773,1.8625954,10
1656,0.12310791,0.03161621,0.013122559,-3.465649,3.7633588,0.65648854,10
1657,0.118896484,0.034301758,0.04650879,-4.4961834,1.519084,-0.07633588,10
1658,0.12158203,0.034057617,0.038269043,-2.740458,1.3129771,-1.9007634,10
1659,0.1194458,0.033447266,0.08190918,-1.5801526,2.816794,-1.908397,10
1660,0.123046875,0.032958984,0.04095459,0.03816794,2.2442749,-2.0992367,10
1661,0.11828613,0.033203125,0.023498535,0.33587787,4.038168,-2.778626,10
1662,0.11706543,0.03302002,0.03100586,-1.0763359,2.4198472,-4.1297708,10
1663,0.12237549,0.03186035,0.060668945,0.2977099,4.221374,-2.8778627,10
1664,0.12225342,0.03326416,0.027404785,-0.64122134,3.0229008,-2.687023,10
1665,0.12286377,0.035095215,0.029541016,-1.1145039,3.2442749,-2.6259542,10
1666,0.1194458,0.033935547,0.031677246,0.5954198,2.0992367,-4.587786,10
1667,0.11895752,0.030700684,0.04119873,1.4274809,0.22900763,-6.2671757,10
1668,0.12011719,0.03186035,0.036193848,1.3358779,-0.26717559,-8.251908,10
1669,0.12109375,0.03302002,0.028259277,0.7557252,-0.06870229,-8.145039,10
1670,0.117370605,0.032836914,0.05078125,0.16793893,-0.3053435,-9.137404,10
1671,0.12164307,0.032104492,0.028015137,1.6641221,2.0610688,-7.6412215,10
1672,0.12109375,0.031677246,0.040283203,3.3664122,2.442748,-4.7709923,10
1673,0.12561035,0.031921387,0.033447266,1.1603054,3.1221373,-3.7099237,10
1674,0.12164307,0.033996582,0.042663574,1.6793894,-0.122137405,-2.2748091,10
