measurement,Acc_X,Acc_Y,Acc_Z,Gyr_X,Gyr_Y,Gyr_Z,Label
0,0.031921387,0.09008789,0.077697754,1.9312977,-5.59542,-1.9694656,4
1,0.03265381,0.09802246,0.08483887,-0.23664123,-5.183206,-0.053435113,4
2,0.037841797,0.08996582,0.06951904,-0.90839696,-7.10687,-0.90076333,4
3,0.028808594,0.091796875,0.07128906,-2.2366412,-7.412214,0.03816794,4
4,0.028808594,0.092041016,0.07598877,-2.557252,-6.9007635,-1.8549619,4
5,0.031555176,0.084228516,0.08001709,-1.870229,-5.847328,-2.206107,4
6,0.01739502,0.09387207,0.07159424,-8.694656,-5.2061067,-5.6030536,4
7,0.0368042,0.08831787,0.08190918,-14.274809,-3.076336,-3.4580152,4
8,0.0256958,0.08880615,0.08428955,-17.183207,-5.183206,-5.328244,4
9,0.026733398,0.09680176,0.07647705,-21.343512,-1.7633588,-3.4503818,4
10,0.031921387,0.095214844,0.08074951,-23.862595,-2,-7.5267177,4
11,0.02960205,0.09802246,0.07873535,-30.549618,-3.0229008,-11.290076,4
12,0.023742676,0.08618164,0.08648682,-10.175572,-7.633588,-7.6793895,4
13,0.03918457,0.07989502,0.08996582,-13.862596,-11.2595415,-7.5267177,4
14,0.023925781,0.0770874,0.07397461,-5.2519083,-12.19084,-7.4274807,4
15,0.022460938,0.0758667,0.09887695,2.1068702,-21.267176,-22.839695,4
16,0.020507812,0.0881958,0.109313965,-14.839695,-29.23664,-27.923664,4
17,0.023132324,0.08496094,0.07940674,-43.67939,-29.015266,-17.183207,4
18,0.019958496,0.06604004,0.08868408,-56.412212,-41.23664,-22.862595,4
19,0.019348145,0.06933594,0.10601807,-29.534351,-54.85496,-36.49618,4
20,0.015808105,0.08544922,0.10888672,-27.641222,-60.59542,-47.694656,4
21,0.035888672,0.079956055,0.10784912,-46.572517,-73.80916,-48.61832,4
22,0.026245117,0.07116699,0.107788086,-63.229008,-76.29008,-63.137405,4
23,0.0345459,0.059753418,0.09820557,-49.137405,-72,-71.46565,4
24,0.031921387,0.056640625,0.08081055,-55.87786,-64.70992,-79.94656,4
25,0.026428223,0.06060791,0.10858154,-61.183205,-59.648853,-90.221375,4
26,0.036315918,0.06677246,0.086242676,-38.25954,-56.72519,-103.53435,4
27,0.028320312,0.05316162,0.08312988,-21.778625,-45.931297,-106.53435,4
28,0.017456055,0.0592041,0.085998535,-23.29771,-39.27481,-111.03817,4
29,0.0013427734,0.008544922,0.09338379,-44.08397,-24.496183,-94.74809,4
30,0.0053100586,0.13146973,0.122924805,-30.954199,-22.167938,-108.84733,4
31,0.030029297,0.09710693,0.12164307,-81.908394,-59.32061,-68.75572,4
32,-0.012756348,0.0859375,0.0725708,37.923664,-67.458015,-54.778625,4
33,0.0002441406,0.08294678,0.046875,-54.862595,-23.519083,-53.007633,4
34,0.003479004,0.04272461,0.056030273,30.931297,-9.366412,-53.603054,4
35,0.010986328,0.07055664,0.08782959,141.25954,-34.160305,-74.68702,4
36,0.0043945312,0.1149292,0.08343506,151.15266,-40.52672,-60.099236,4
37,0.020935059,0.12261963,0.09552002,74.15267,-45.46565,-28.961832,4
38,0.0178833,0.09472656,0.07940674,8.358779,-42.78626,-16.76336,4
39,0.0289917,0.08508301,0.089904785,-56.25954,-39.519085,-13.992367,4
40,0.022766113,0.0791626,0.09033203,-95.381676,-24.847328,-27.656488,4
41,0.027160645,0.082458496,0.0871582,-72.32825,-23.603054,-32.29771,4
42,0.020385742,0.09918213,0.0927124,-36.79389,-33.862595,-40.374046,4
43,0.02355957,0.059265137,0.10699463,-18.664122,-30.641222,-27.908398,4
44,0.015136719,0.076660156,0.091918945,-26.183207,-22.160305,-41.35878,4
45,0.0008544922,0.11303711,0.07861328,-62.59542,-13.7404585,-26.38168,4
46,0.0038452148,0.066101074,0.099365234,-37.89313,-13.877863,-16.08397,4
47,0.003967285,0.054260254,0.09313965,-6.0152674,-13.389313,-23.648855,4
48,-0.026977539,0.071899414,0.10064697,35.190838,-17.305344,-22.786259,4
49,0.0032348633,0.13269043,0.10064697,-37.770992,-18.778625,-8.870229,4
50,-0.003540039,0.06628418,0.08929443,-58.89313,-3.29771,32.79389,4
51,-0.0010375977,0.0748291,0.10253906,-85.580154,19.206106,6.8702292,4
52,0.009277344,0.041625977,0.10668945,-90.72519,16.534351,10.496183,4
53,-0.004699707,0.052124023,0.101745605,-29.526718,19.732824,-5.5496182,4
54,0.008361816,0.072509766,0.10601807,-18.595419,17.61832,-5.961832,4
55,-0.0043945312,0.068603516,0.08660889,-33.450382,6.7633586,9.893129,4
56,0.026306152,0.03881836,0.1048584,-61.954197,17.832062,18.213741,4
57,-0.005004883,0.03955078,0.120666504,-77.05344,11.59542,9.564885,4
58,0.003967285,0.016540527,0.09411621,15.465649,6.374046,0.71755725,4
59,-0.01574707,0.11895752,0.104003906,54.412212,0.20610687,-28.389313,4
60,0.0048828125,0.10406494,0.1295166,-16.541985,-14.122137,57.34351,4
61,-0.010192871,0.097595215,0.1305542,-106.221375,-6.0992365,50.885498,4
62,-0.013671875,-0.013183594,0.09350586,-116.0229,-19.198473,124.00764,4
63,0.008117676,0.053955078,0.0869751,-88.099236,-23.030535,-21.122137,4
64,-0.014404297,0.0904541,0.13720703,-112.80916,-3.664122,93.1145,4
65,-0.028869629,0.10888672,0.11999512,-205.9084,-26.114504,98.58778,4
66,-0.0063476562,0.06121826,0.12786865,-178.73282,-34.65649,159.16794,4
67,-0.0029296875,0.046142578,0.12408447,-120.64886,-50.67939,162.19084,4
68,-0.0013427734,0.03668213,0.12030029,-73.12214,-61.32061,175.96184,4
69,0.0065307617,0.019165039,0.10839844,-44.549618,-60.587788,189.19084,4
70,0.01373291,0.003479004,0.09460449,-22.549618,-56.374046,197.61832,4
71,0.009216309,-0.0099487305,0.10345459,-27.557251,-43.572517,208.42747,4
72,0.0040283203,-0.041137695,0.10095215,-41.450382,-35.015266,214.67175,4
73,0.003112793,-0.061279297,0.10064697,-52.549618,-37.076336,208.2061,4
74,0.0048828125,-0.08642578,0.093444824,-43.229008,-35.709923,189.0229,4
75,0.009033203,-0.09069824,0.095336914,-1.167939,-27.717558,167.03816,4
76,0.0014038086,-0.10772705,0.093444824,17.610687,-23.91603,132.89313,4
77,-0.0014038086,-0.1027832,0.10522461,28.725191,-10.267176,96.32825,4
78,0.006591797,-0.08093262,0.09631348,31.541985,-5.259542,64.099236,4
79,0.011657715,-0.070007324,0.0993042,21.167938,9.717557,51.885498,4
80,-0.0004882813,-0.061523438,0.11016846,17.053434,23,36.38168,4
81,-0.0013427734,-0.035583496,0.12158203,40.35878,24.80916,12.175572,4
82,0.0057373047,-0.042236328,0.1184082,89.40458,32.580154,9.694656,4
83,-0.00793457,-0.018981934,0.16796875,65.62595,3.1068702,-4.29771,4
84,0.0024414062,-0.0034179688,0.13635254,61.312977,-15.061069,-14.946565,4
85,0.011047363,0.012451172,0.11517334,11.122137,-12.435115,-4.0534353,4
86,0.010437012,-0.018981934,0.1159668,-0.49618322,-8,25.389313,4
87,0.005126953,-0.010864258,0.09106445,23.854961,8.480916,0.13740458,4
88,0.017700195,0.002746582,0.103393555,10.351145,16.213741,11.374045,4
89,0.009216309,-0.025390625,0.12731934,-4.3816795,33.648853,33.49618,4
90,0.019104004,0.0026855469,0.19036865,-56.67939,-1.1755725,5.7251906,4
91,0.023498535,-0.023254395,0.08911133,-49.06107,-15.229008,36.82443,4
92,-0.0073242188,-0.025817871,0.12908936,-5.557252,3.1221373,15.641221,4
93,0.014343262,-0.0053710938,0.11859131,-37.61832,-18.244274,16.091602,4
94,0.0072021484,-0.022338867,0.11236572,-47.59542,-12.816793,28.145039,4
95,0.014221191,-0.038635254,0.10681152,-54.885498,-5.366412,20.793894,4
96,0.024475098,-0.040222168,0.11956787,-34.10687,-11.21374,18.389313,4
97,0.022460938,-0.02557373,0.11639404,-34.27481,3.167939,10.244275,4
98,0.034423828,-0.04724121,0.10211182,-30.732824,-8.763359,21.08397,4
99,0.005432129,-0.042236328,0.12213135,-11.961832,-14.053435,1.6641221,4
100,0.008483887,-0.03942871,0.11029053,13.290076,-9.007633,11.549619,4
101,0.015625,-0.030639648,0.11798096,10.305344,-8.877863,5.7175574,4
102,0.01940918,-0.030090332,0.11657715,12.160305,-3.6412213,11.229008,4
103,0.0057373047,-0.022949219,0.1260376,1.3053435,-4.0534353,4.442748,4
104,0.0064697266,-0.029418945,0.11975098,-0.3053435,-4.9694657,7.3587785,4
105,0.014831543,-0.027648926,0.117248535,-7.480916,-2.572519,5.114504,4
106,0.01763916,-0.029663086,0.11462402,-4.366412,-6.2366414,-2.5419848,4
107,0.022705078,-0.017578125,0.11730957,-16.06107,1.9465649,2.5648854,4
108,0.015380859,-0.029052734,0.11791992,-23.137405,-1.2824427,10.076336,4
109,0.015075684,-0.0546875,0.122558594,-9.832061,1.8473282,13.167939,4
110,0.005554199,-0.036987305,0.11004639,13.053435,2.9847329,-11.572519,4
111,0.037475586,-0.003479004,0.11920166,-3.1908398,0.4351145,2.0458016,4
112,0.009216309,-0.033447266,0.11029053,-20.412214,1.221374,21.847328,4
113,0.025146484,-0.041625977,0.10882568,-22.23664,1,20.23664,4
114,0.02178955,-0.039611816,0.1126709,-10.671756,3.9847329,22.625954,4
115,0.011962891,-0.029846191,0.114990234,1.778626,4.3816795,17.885496,4
116,0.0067749023,-0.020935059,0.114746094,-28.290077,13.152672,2.4580152,4
117,0.0115356445,-0.050598145,0.10076904,-19.08397,4.4351144,27.946566,4
118,0.005859375,-0.04058838,0.11407471,18.351145,-6.0076337,11.305344,4
119,0.005859375,-0.027832031,0.103393555,-1.2137405,-11.435115,12.274809,4
120,0.015014648,-0.029663086,0.11022949,-20.725191,-17.213741,4.6183205,4
121,0.0099487305,-0.052490234,0.105895996,-12.076336,-23.206106,15.450381,4
122,0.012207031,-0.041870117,0.11779785,-14.435115,-22.969465,-10.38168,4
123,0.0068969727,-0.040283203,0.113098145,-6.9847326,-20.25191,1.259542,4
124,0.01763916,-0.034973145,0.11639404,-14.572519,-16.351145,-7.4580154,4
125,0.022399902,-0.03845215,0.09057617,-134.94656,-0.28244275,8.206107,4
126,-0.016906738,-0.0848999,0.11126709,-120,5.0534353,-1.740458,4
127,0.009765625,-0.07434082,0.0925293,-91.56489,6.5725193,-18.557251,4
128,0.008239746,-0.058898926,0.107910156,-55.70229,21.068703,-40.374046,4
129,0.04699707,-0.04333496,0.114990234,-19.183207,3.1526718,-26.374046,4
130,0.028137207,-0.053955078,0.107421875,5.2900763,-9.473283,-0.64122134,4
131,0.02142334,-0.07543945,0.09899902,4.29771,-8.061069,21.76336,4
132,0.01751709,-0.061645508,0.10443115,-2.648855,-14.282443,15.671756,4
133,0.014892578,-0.07885742,0.09838867,22.832062,-9.954199,17.717558,4
134,0.009460449,-0.06506348,0.109436035,47.23664,-3.961832,-6.2137403,4
135,0.011413574,-0.06921387,0.10229492,65.33588,-6.4732823,2.6183207,4
136,0.017944336,-0.045776367,0.11010742,49.862595,-6.4885497,-2.0992367,4
137,0.015991211,-0.04168701,0.10650635,21.648855,-3.1908398,10.19084,4
138,0.020874023,-0.043762207,0.099853516,7.8396945,1.3969465,15.847328,4
139,0.009277344,-0.057434082,0.10687256,9.38168,-2.2671757,11.725191,4
140,0.008178711,-0.04888916,0.10601807,8.893129,-1.5648855,2.312977,4
141,0.00982666,-0.051879883,0.107666016,4.4656487,-7.7099237,-4.19084,4
142,0.0020141602,-0.052490234,0.1105957,4.1603055,-1.480916,-8.59542,4
143,0.020324707,-0.042236328,0.10644531,2.4351146,-6.2061067,-8.106871,4
144,0.026672363,-0.03100586,0.10821533,-16.091602,-13.824428,-4.0305343,4
145,0.019348145,-0.057922363,0.10949707,-18.19084,-5.221374,6.0610685,4
146,0.010925293,-0.051574707,0.109680176,-16.351145,-5.8702292,7.7251906,4
147,0.01159668,-0.056030273,0.10620117,-8.0992365,-0.9389313,4.480916,4
148,0.012939453,-0.0602417,0.10119629,0.870229,-5.4580154,-3.7709923,4
149,0.014770508,-0.052612305,0.10510254,7.3893127,-2.648855,-7.0152674,4
150,0.014282227,-0.054504395,0.10827637,11.916031,2.870229,0.35877863,4
151,0.012756348,-0.051879883,0.103271484,9.473283,5.625954,9.465649,4
152,0.0115356445,-0.036865234,0.1138916,-7.2290077,4.3816795,7.671756,4
153,0.027954102,-0.054504395,0.10772705,-18.10687,0.007633588,23.854961,4
154,0.011657715,-0.06109619,0.10522461,-10.015267,0.21374045,10.343512,4
155,0.005859375,-0.057617188,0.107055664,-0.5038168,-10.244275,-2.832061,4
156,0.0030517578,-0.06402588,0.111572266,1.0534351,-7.70229,-2.076336,4
157,0.008728027,-0.05859375,0.107177734,21.122137,-8.465649,-16.503817,4
158,0.015380859,-0.034851074,0.11590576,10.984733,-6.740458,-14.427481,4
159,0.008972168,-0.038391113,0.12487793,-18.290077,-3.572519,-0.6946565,4
160,0.013244629,-0.05206299,0.10925293,-31.335878,-4.9465647,5.5343513,4
161,0.007507324,-0.05505371,0.10949707,-37.221375,-7.0076337,5.931298,4
162,0.01586914,-0.06866455,0.09887695,-23.122137,-9.633588,3.335878,4
163,0.014099121,-0.06036377,0.10675049,-14.21374,-9.572519,3.29771,4
164,0.018920898,-0.055908203,0.105651855,-1.610687,-2.2824428,5.80916,4
165,0.014221191,-0.060424805,0.10839844,-0.97709924,3.2519083,12.198473,4
166,0.009765625,-0.06970215,0.113342285,4.5343513,1.8625954,10.305344,4
167,0.0040893555,-0.047973633,0.103393555,6.2748094,-3.3587787,-5.9541984,4
168,0.0087890625,-0.058654785,0.11553955,4.3969464,-10.992367,1.3587786,4
169,0.009460449,-0.05908203,0.10394287,3.2748091,-7.9770994,-4.557252,5
170,0.013244629,-0.06213379,0.10852051,7.40458,-13.106871,-6.3206105,5
171,0.014282227,-0.055480957,0.10461426,13.656488,-8.038168,-4.9465647,5
172,0.015380859,-0.055236816,0.105041504,14.9007635,-1.29771,0.3053435,5
173,0.012634277,-0.054626465,0.11199951,18.854961,-3.4351146,-3.5877862,5
174,0.011474609,-0.046203613,0.113464355,11.4198475,-2.4580152,-4.4732823,5
175,0.016113281,-0.044067383,0.11010742,-1.389313,2.7480917,-1.2442749,5
176,0.012451172,-0.059326172,0.10430908,-5.9541984,4.854962,1.3358779,5
177,0.012329102,-0.05609131,0.111083984,1.0152671,1.4274809,-6.0305343,5
178,0.013427734,-0.055419922,0.10925293,14.80916,3.5801528,-1.3053435,5
179,0.011352539,-0.047912598,0.11218262,12.717557,2.0076337,7.2366414,5
180,0.009460449,-0.05419922,0.10583496,9.053435,-2.1603053,12.648855,5
181,0.010437012,-0.06384277,0.107788086,14.984733,-3.3587787,7.9847326,5
182,0.010803223,-0.052001953,0.117614746,29.664122,1.1908396,1.1984733,5
183,0.011291504,-0.03918457,0.10858154,31.961832,3.832061,-2.572519,5
184,0.0095825195,-0.035705566,0.11431885,14.59542,2.9694657,-5.2442746,5
185,0.006958008,-0.049743652,0.10888672,13.549619,-0.053435113,-2.3587787,5
186,0.0119018555,-0.04272461,0.11114502,16.717558,-1.6870229,-9.732824,5
187,0.011352539,-0.03894043,0.11315918,14.793893,-3.6183207,-8.717557,5
188,0.009765625,-0.03894043,0.11907959,17.175573,-1.6183206,2.70229,5
189,0.011230469,-0.04309082,0.11126709,-0.46564886,-8.885496,5.328244,5
190,0.010253906,-0.05114746,0.11407471,14.557252,-8.480916,4.8320613,5
191,0.0119018555,-0.024353027,0.11193848,16.389313,-10.80916,0.4427481,5
192,0.008544922,-0.030761719,0.115112305,-11.320611,-9.091603,8.938931,5
193,0.010070801,-0.03967285,0.11431885,-22.694656,-7.8015265,1.480916,5
194,0.010681152,-0.043884277,0.110961914,-19.587786,-5.89313,2.351145,5
195,0.011657715,-0.03918457,0.11407471,-27.694656,-4.7328243,-1.6793894,5
196,0.014343262,-0.047424316,0.11431885,-20.717558,-1.3740458,3.610687,5
197,0.028381348,-0.044128418,0.111083984,-7.2519083,-5.3206105,0.5648855,5
198,0.010864258,-0.04095459,0.10614014,2.4580152,-5.885496,1.9389313,5
199,0.013305664,-0.039245605,0.11639404,3.465649,-5.931298,-0.114503816,5
200,0.0178833,-0.037109375,0.10571289,1.2061069,-4.6870227,4.5801525,5
201,0.02709961,-0.04498291,0.11114502,3.6412213,-4.931298,0.7480916,5
202,0.020751953,-0.02935791,0.111328125,1.1526718,-2.0839694,0.90076333,5
203,0.011962891,-0.034851074,0.11413574,-14.328244,0.8778626,1.4198474,5
204,0.027282715,-0.04272461,0.106933594,-22.610687,1.3969465,2.8015268,5
205,0.02368164,-0.049682617,0.114868164,-15.229008,-2.8778627,1.5572519,5
206,0.018005371,-0.03930664,0.11010742,-8.427481,-2.7251909,-1.3129771,5
207,0.019897461,-0.020935059,0.117492676,-16.38168,-0.35877863,-0.8778626,5
208,0.021911621,-0.066101074,0.105529785,-16.19084,-2.40458,4.6106873,5
209,0.02154541,-0.037109375,0.105895996,3.167939,-3.1755726,-11.244275,5
210,0.015380859,-0.028076172,0.109375,-1.7633588,-0.10687023,1.221374,5
211,0.032165527,-0.039489746,0.11218262,-6.80916,0.86259544,-3.6793892,5
212,0.02142334,-0.043518066,0.110839844,-3.9541984,-1.8091604,3.1374047,5
213,0.0075683594,-0.046325684,0.11016846,-2,-3.206107,3.2671757,5
214,0.024780273,-0.04626465,0.10760498,7.1374044,-2.946565,3.335878,5
215,0.02130127,-0.042053223,0.10620117,-3.870229,3.221374,11.633588,5
216,0.014160156,-0.046325684,0.112854004,-0.99236643,3.0992367,5.816794,5
217,0.012573242,-0.039733887,0.109680176,-2.3740458,0.65648854,5.2137403,5
218,0.019470215,-0.03942871,0.111816406,-8.236641,0.17557251,5.885496,5
219,0.01763916,-0.053344727,0.109069824,-10.229008,7.6412215,7.145038,5
220,0.012145996,-0.053771973,0.11431885,10.267176,-7.7557254,1.5801526,5
221,0.021606445,-0.034484863,0.112976074,13.175572,-6.442748,-3.9923663,5
222,0.01739502,-0.05444336,0.11114502,11.488549,-15.648855,-8.167939,5
223,0.013183594,-0.043029785,0.11242676,17.847328,-15.61832,-10.290076,5
224,0.019470215,-0.03112793,0.11450195,10.015267,-14.564885,-4.9007635,5
225,0.012145996,-0.034362793,0.11199951,1.2900764,-12.068703,-4.3206105,5
226,0.03125,-0.044433594,0.10571289,-4.5267177,-2.221374,5.8015265,5
227,0.029663086,-0.057495117,0.11260986,15.297709,-1.4732825,14.396947,5
228,0.022033691,-0.037902832,0.113464355,29.51145,-2.1068702,3.8244274,5
229,0.021606445,-0.023498535,0.11279297,21.198473,5.816794,14.847328,5
230,0.02520752,-0.03289795,0.11627197,-4.778626,8.59542,16.946566,5
231,0.02520752,-0.03161621,0.1171875,-16.015266,10.664123,14.267176,5
232,0.015014648,-0.057556152,0.11206055,-9.931297,-1.8015267,10.732824,5
233,0.013427734,-0.0491333,0.105773926,8.78626,-9.045801,0.45038167,5
234,0.015014648,-0.03161621,0.111572266,5.587786,-7.816794,-3.351145,5
235,0.009094238,-0.03942871,0.11230469,-8.305344,-8.717557,-6.7862597,5
236,0.021850586,-0.046936035,0.11291504,0.045801528,-10.19084,-8.152672,5
237,0.021850586,-0.03881836,0.11798096,9.030535,-7.8244276,-15.4198475,5
238,0.027526855,-0.032226562,0.113220215,0.2519084,-9.2595415,-6.7862597,5
239,0.018554688,-0.03289795,0.111694336,-4.2519083,-5.4274807,-6.8396945,5
240,0.016357422,-0.038146973,0.11236572,-10.755725,2.5877862,-3.206107,5
241,0.026611328,-0.037475586,0.11212158,-16.580153,2.5419848,-1.6641221,5
242,0.016723633,-0.043823242,0.11102295,-12.526717,2.1984732,-3,5
243,0.016662598,-0.04510498,0.109191895,-9.480916,1.0687023,-2.0152671,5
244,0.00982666,-0.048461914,0.11016846,0.35877863,1.0610687,-2.557252,5
245,0.020019531,-0.04248047,0.11218262,6.0458016,2.8015268,-4.374046,5
246,0.01953125,-0.043395996,0.11279297,4.7633586,6.038168,-0.66412216,5
247,0.015319824,-0.04510498,0.113342285,3.7251909,4.587786,-4.221374,5
248,0.01184082,-0.047729492,0.1126709,12.954199,5.19084,-6.7251906,5
249,0.018798828,-0.038024902,0.10992432,22.076336,4.633588,-8.946565,5
250,0.016113281,-0.041259766,0.115478516,28.709923,4.0152674,-5.519084,5
251,0.010131836,-0.03894043,0.11425781,25.633587,1.2519084,-5.923664,5
252,0.01361084,-0.027832031,0.117614746,28.114504,-0.35114503,-5.076336,5
253,0.009521484,-0.024414062,0.111694336,13.251908,-0.15267175,-2.8778627,5
254,0.016601562,-0.024230957,0.11590576,0.4351145,-5,3.610687,5
255,0.006591797,-0.035095215,0.115600586,9.114504,-3.2290077,2.2290077,5
256,0.011291504,-0.016845703,0.120910645,-6.8015265,-7.076336,-0.3816794,5
257,0.010986328,-0.03955078,0.11627197,-13.755725,-10.656488,11.458015,5
258,0.012756348,-0.032165527,0.111694336,-11.2213745,-6.9923663,0.7633588,5
259,0.013793945,-0.034973145,0.11364746,-9.931297,-5.6946564,4.1374044,5
260,0.01763916,-0.033081055,0.11651611,-12.40458,-5.3435116,2.1221373,5
261,0.013671875,-0.04083252,0.11328125,-7.885496,0.022900764,1.9770992,5
262,0.019714355,-0.038757324,0.11706543,-2.2290077,1.1068702,-0.7251908,5
263,0.01171875,-0.038208008,0.114868164,2.129771,0.26717559,1.2671756,5
264,0.01159668,-0.032043457,0.11230469,-4.1679387,0.5648855,0.8167939,5
265,0.014099121,-0.04449463,0.11621094,-0.20610687,-2.832061,2.351145,5
266,0.010803223,-0.043762207,0.10974121,13.427481,-0.89312977,1.3740458,5
267,0.01184082,-0.03161621,0.11578369,18.549618,-2.1603053,-0.32061067,5
268,0.016113281,-0.024780273,0.119140625,12.694656,-0.79389316,2.312977,5
269,0.008605957,-0.033081055,0.11578369,3.0610688,-2.8625953,7.4198475,5
270,0.009155273,-0.030883789,0.113586426,10.198473,-3.6717558,2.7709923,5
271,0.0087890625,-0.025878906,0.12182617,4.374046,-6.5038166,5.70229,5
272,0.014709473,-0.035217285,0.12164307,3.3435113,-9.442748,7.3587785,5
273,0.010803223,-0.026367188,0.1194458,1.0152671,-6.59542,6.29771,5
274,0.0138549805,-0.029785156,0.1159668,-2.1755726,-5.10687,8.030535,5
275,0.015930176,-0.02331543,0.11755371,-9.885496,-3.8854961,0.08396947,5
276,0.01184082,-0.05419922,0.11956787,-9.832061,-2.3969467,10.473283,5
277,0.012084961,-0.0345459,0.12054443,19.23664,-4.2366414,-4.9541984,5
278,0.012573242,-0.02130127,0.11853027,15.305344,-3.167939,3.4885497,5
279,0.018188477,-0.017150879,0.12213135,-25.099237,-4.2824426,1.1908396,5
280,0.0138549805,-0.035827637,0.113220215,-22.854961,9.007633,7.2900763,5
281,0.011962891,-0.038879395,0.11431885,8.076336,-11.572519,4.8244276,5
282,0.012084961,-0.036743164,0.110961914,16.793894,-8.717557,1.221374,5
283,0.009216309,-0.028198242,0.11773682,7.0152674,-2.0076337,0.70229006,5
284,0.0064697266,-0.020202637,0.113220215,7.6488547,-0.89312977,-0.8244275,5
285,0.0052490234,-0.02947998,0.11212158,3.076336,8.160305,1.1603054,5
286,0.0025024414,-0.026672363,0.1272583,-29.480917,2.8854961,-19.832062,5
287,0.0099487305,-0.039001465,0.11859131,-19.38168,-7.816794,-14.206107,5
288,0.010314941,-0.04248047,0.1182251,-8.923664,-15.496183,-18.06107,5
289,0.018249512,-0.04840088,0.12414551,8.305344,-9.305344,-12.885496,5
290,0.01940918,-0.04107666,0.12408447,40.93893,2.7099237,0.9541985,5
291,0.025939941,-0.0033569336,0.11437988,34.068703,4.854962,7.1297708,5
292,0.020812988,-0.0025634766,0.120666504,-16.23664,5.9160304,24.587786,5
293,0.0107421875,-0.022338867,0.11853027,-52.099236,-3.0839694,19.419847,5
294,0.0028076172,-0.050109863,0.11541748,-9.7404585,-3.59542,29.496183,5
295,0.0020751953,-0.026855469,0.110961914,1.2061069,-7.3435116,-5.2671757,5
296,0.001953125,-0.025146484,0.11846924,-8.358779,-1.3435115,3.7480917,5
297,0.00390625,-0.038391113,0.111328125,-9.335877,-8.106871,-14.80916,5
298,0.012756348,-0.031433105,0.12060547,-4.1603055,-9.106871,-14.328244,5
299,0.016784668,-0.035949707,0.117004395,-2.4885497,-7.335878,-10.633588,5
300,0.021606445,-0.044799805,0.12426758,7.2519083,-4.8244276,0.32824427,5
301,0.019958496,-0.030517578,0.11566162,18.847328,-3.8244274,6.10687,5
302,0.020202637,-0.010864258,0.11932373,2.0687022,6.0839696,10.496183,5
303,0.015014648,-0.020568848,0.124572754,-27.717558,-0.13740458,18.931297,5
304,0.0036010742,-0.046691895,0.115722656,-22.610687,-2.5267177,14.839695,5
305,0.0036010742,-0.044311523,0.11566162,-5.2366414,-5.2748094,5.6030536,5
306,0.004272461,-0.0357666,0.11651611,8.435115,-7.740458,-4,5
307,0.008483887,-0.032043457,0.115600586,13.870229,-4.7938933,-1.8854961,5
308,0.014465332,-0.027526855,0.11584473,4.7251906,-4.9465647,-0.8396947,5
309,0.026916504,-0.02130127,0.11291504,1.4122137,-4.816794,3.5648854,5
310,0.012451172,-0.04296875,0.119506836,11.21374,-8.396947,7.7862597,5
311,0.019714355,-0.0053710938,0.11206055,17.656488,-9.290076,-3.221374,5
312,0.016601562,-0.02508545,0.11682129,-17.824427,-5.3511453,12.923664,5
313,0.015319824,-0.03881836,0.11767578,-10.954199,-1.091603,-3.572519,5
314,0.013671875,-0.030517578,0.11999512,-8.38168,0.28244275,-0.15267175,5
315,0.010803223,-0.032958984,0.11730957,-5.625954,-2.7862597,-3.091603,5
316,0.01965332,-0.026367188,0.11505127,8.358779,-6.29771,-4.8244276,5
317,0.021484375,-0.020263672,0.11853027,5.29771,-4.3053436,-0.8244275,5
318,0.0256958,-0.02508545,0.11682129,-1.8167939,-1.2290076,3.832061,5
319,0.016845703,-0.013977051,0.12213135,-0.122137405,-5.6488547,4.0610685,5
320,0.016540527,-0.019836426,0.11413574,-4.9847326,-2.389313,4.5343513,5
321,0.022033691,-0.028808594,0.113586426,-3.5496182,-3.6793892,5.9160304,5
322,0.010986328,-0.018127441,0.11450195,-6.7938933,-7.259542,2.9389312,5
323,0.014221191,-0.021606445,0.11627197,-3.7633588,-6.0992365,0.49618322,5
324,0.013305664,-0.020080566,0.11883545,-5.8320613,-5.6183205,0.740458,5
325,0.014343262,-0.033813477,0.11645508,-3.923664,-4.2900763,-1.1832061,5
326,0.012207031,-0.033203125,0.11627197,-1.2290076,-4.557252,0.9541985,5
327,0.021606445,-0.03479004,0.11376953,-1.6870229,-1.2900764,1.351145,5
328,0.01763916,-0.024902344,0.11376953,2.4122138,-3.1221373,0.8244275,5
329,0.012939453,-0.031799316,0.11999512,-1.1755725,-3.7251909,4.7557254,5
330,0.031188965,-0.021057129,0.112854004,-0.36641222,-3.3664122,1.6946565,5
331,0.023925781,-0.028137207,0.11395264,-3.2290077,-0.9847328,3.4732823,5
332,0.015319824,-0.03540039,0.11480713,-2.7175572,-1.9160305,1.4732825,5
333,0.018493652,-0.030883789,0.11846924,-5.7557254,-2.8778627,0.99236643,5
334,0.021118164,-0.025268555,0.120910645,-6.4656487,-2.1908398,1.5801526,5
335,0.019958496,-0.03173828,0.11853027,-3.183206,-2.259542,2.2366412,5
336,0.01586914,-0.023010254,0.11212158,-0.38931298,-3.465649,2.816794,5
337,0.023376465,-0.031188965,0.115234375,3.0076337,-3.4732823,1.1068702,5
338,0.00793457,-0.030883789,0.12030029,-0.57251906,-1.3969465,4.7480917,5
339,0.021362305,-0.032226562,0.11578369,1.7633588,-3.2519083,2.4580152,5
340,0.017944336,-0.020141602,0.117370605,-2.038168,-1.4961832,5.7251906,5
341,0.016906738,-0.032714844,0.11566162,-2.2900763,-1.5419847,4.0229006,5
342,0.0126953125,-0.02758789,0.1105957,-3.534351,-1.2366412,3.167939,5
343,0.010864258,-0.023925781,0.119506836,-9.206107,0.7251908,4.59542,5
344,0.028686523,-0.024780273,0.121276855,-12.236641,-0.2977099,2.519084,5
345,0.018249512,-0.034301758,0.119628906,-8.290076,-4.5343513,4.3969464,5
346,0.017822266,-0.020874023,0.11584473,-1.1832061,-8.274809,-0.5114504,5
347,0.01159668,-0.028259277,0.11621094,-0.47328246,-8.038168,-2.9312978,5
348,0.022094727,-0.011108398,0.11260986,-20.564886,-12.984733,-3.1145039,5
349,0.006958008,-0.038024902,0.11328125,-23.183207,-18.007633,-3.5038168,5
350,0.0107421875,-0.042419434,0.112976074,-5.1984735,-16.06107,-8.709924,5
351,0.017456055,-0.03656006,0.11810303,14.030535,-16.816793,-8.717557,5
352,0.018737793,-0.024597168,0.11987305,12.351145,-14.9007635,-3.9160306,5
353,0.023742676,-0.023376465,0.11340332,0.3053435,-13.496183,1.7251909,5
354,0.023010254,-0.017333984,0.11553955,-10.709924,-4.633588,6.1603055,5
355,0.02508545,-0.04321289,0.11340332,-8.549619,4.6564884,16.152672,5
356,0.02319336,-0.035095215,0.11193848,3.312977,3.572519,10.801527,5
357,0.02178955,-0.032836914,0.117614746,2.2748091,2.6030533,12.465649,5
358,0.019226074,-0.03491211,0.1204834,-5.3435116,-0.35114503,6.6488547,5
359,0.0154418945,-0.030456543,0.115234375,2.793893,1.3358779,-2.2442749,5
360,0.020874023,-0.028137207,0.12054443,3.6259542,5.2519083,-5.6564884,5
361,0.01928711,-0.026306152,0.1217041,-2.351145,14.465649,-5.89313,5
362,0.019714355,-0.03161621,0.11694336,-12.534351,6.0229006,-4.89313,5
363,0.016723633,-0.04168701,0.11785889,-3.2366412,2.465649,-0.53435117,5
364,0.020568848,-0.036254883,0.11706543,0.35877863,-0.99236643,-0.7480916,5
365,0.015563965,-0.02923584,0.11303711,-1.7175573,-3.4198472,3.5801528,5
366,0.026000977,-0.03253174,0.11804199,-9.045801,-3.351145,3.9160306,5
367,0.010375977,-0.0435791,0.11553955,-2.0992367,-5.8625956,4.0839696,5
368,0.016662598,-0.036071777,0.11425781,3.8778627,-8.526717,4.923664,5
369,0.008605957,-0.035583496,0.12298584,14.442748,-9.328244,5.3816795,5
370,0.0072631836,-0.0368042,0.118774414,20.80916,-15.427481,2.4885497,5
371,0.016662598,-0.016723633,0.12182617,10.2213745,-14.465649,5.1984735,5
372,0.01940918,-0.01940918,0.11584473,-11.137404,-6.3129773,11.2595415,5
373,0.021484375,-0.03894043,0.11743164,-17.358778,2.6030533,10,5
374,0.020446777,-0.034973145,0.113098145,-19.80916,7.4198475,5.9847326,5
375,0.020263672,-0.038085938,0.118652344,-14.038168,10.167939,0.7480916,5
376,0.012878418,-0.036743164,0.10797119,-7.3129773,6.2290077,-4.7862597,5
377,0.011291504,-0.04058838,0.11383057,-3.5419848,5.3435116,-6.9389315,5
378,0.010803223,-0.03741455,0.119140625,3.5419848,1.2061069,-10.167939,5
379,0.00579834,-0.04095459,0.11834717,8.167939,-3.8549619,-7.4732823,5
380,0.010864258,-0.027709961,0.11633301,13.076336,-7.9694657,-4.5496182,5
381,0.019104004,-0.028259277,0.12213135,5.374046,-5.8702292,3.946565,5
382,0.013244629,-0.030700684,0.11785889,-3.1145039,-10.40458,4.9160304,5
383,0.015319824,-0.03942871,0.11199951,1.1450381,-9.648855,10.893129,5
384,0.024536133,-0.028564453,0.112976074,-0.47328246,-8.343512,9.320611,5
385,0.020202637,-0.030029297,0.1171875,-16.656488,-1.6412214,14.106871,5
386,0.018859863,-0.032287598,0.11871338,-16.442749,3.6793892,8.458015,5
387,0.014709473,-0.03515625,0.11834717,-20.610687,4.4885497,8.992367,5
388,0.012512207,-0.036621094,0.117248535,-19.030535,0.41221374,-2.8625953,5
389,0.011413574,-0.036315918,0.11413574,-19.022902,1.2290076,-5.0534353,5
390,0.011108398,-0.04296875,0.11608887,-17.778625,-4.2519083,-10.2213745,5
391,0.012451172,-0.05279541,0.11682129,4.9389315,-6.0305343,-10.694656,5
392,0.01159668,-0.03894043,0.114990234,16.80916,-11.267176,-12.587787,5
393,0.01184082,-0.03845215,0.113586426,13.923664,-12.19084,0.13740458,5
394,0.015991211,-0.030456543,0.118896484,10.549619,-15.038168,-0.90076333,5
395,0.016418457,-0.032836914,0.12158203,5.8015265,-9.351145,9.763359,5
396,0.020263672,-0.02734375,0.1171875,-5.6183205,-3.6412213,10.465649,5
397,0.017028809,-0.038391113,0.1184082,-10.167939,-0.259542,14.7404585,5
398,0.015930176,-0.036193848,0.11651611,-6.6870227,0.3053435,10.938931,5
399,0.015258789,-0.034057617,0.11254883,-11.229008,0.6946565,9.511451,5
400,0.008972168,-0.05126953,0.121154785,-7.1297708,1.2824427,5.8396945,5
401,0.012451172,-0.055908203,0.113342285,23.404581,-2.6946564,-1.480916,5
402,0.01159668,-0.03894043,0.11279297,40.114502,-6,-0.47328246,5
403,0.019165039,-0.020202637,0.12298584,31.366413,-10.290076,-1.6717557,5
404,0.016601562,-0.020141602,0.123291016,3.70229,-4.2366414,4.923664,5
405,0.01574707,-0.029052734,0.11755371,-4.328244,-4.7557254,7.2900763,5
406,0.01586914,-0.035339355,0.118896484,-5.5648856,-1.778626,4.8778625,5
407,0.014770508,-0.030944824,0.11743164,-1.3740458,-3.4961832,1.9694656,5
408,0.012084961,-0.03302002,0.118896484,3.1068702,-4.412214,2.6564887,5
409,0.014404297,-0.024536133,0.117614746,0.99236643,-8.076336,1.4274809,5
410,0.01776123,-0.0335083,0.12109375,0.03816794,-4.8702292,5.8778625,5
411,0.016296387,-0.03112793,0.11975098,4.7709923,-7.0076337,3.8396947,5
412,0.009277344,-0.027648926,0.120788574,0.23664123,-6.4580154,6.0305343,5
413,0.014831543,-0.036865234,0.117126465,-2.3435113,-2.8625953,6.9389315,5
414,0.014831543,-0.033691406,0.118896484,10.5801525,-7.8015265,4.9160304,5
415,0.014160156,-0.028198242,0.12023926,7.0610685,-5.6946564,2.465649,5
416,0.018005371,-0.019714355,0.11621094,-5.2671757,-6.740458,4.5038166,5
417,0.017822266,-0.023742676,0.11425781,-14.732824,-5.374046,1.5954199,5
418,0.01763916,-0.018615723,0.115356445,-25.167938,-0.519084,2.1908398,5
419,0.022949219,-0.030761719,0.11602783,-29.801527,-3.8473282,0.54198474,5
420,0.0234375,-0.03857422,0.11303711,-29.89313,2.70229,-4.8625956,5
421,0.028015137,-0.038146973,0.11505127,-34.9771,12.38168,-5.114504,5
422,0.018798828,-0.046691895,0.10839844,-20.12977,12.961832,-2.6183207,5
423,0.027526855,-0.058166504,0.11273193,13.946565,4.89313,-6.076336,5
424,0.019165039,-0.033691406,0.115478516,40.351147,-0.8015267,-3.610687,5
425,0.028747559,-0.016418457,0.123046875,29.496183,-0.9465649,2.648855,5
426,0.020751953,-0.020202637,0.11755371,18.946566,-7.6412215,5.7938933,5
427,0.00970459,-0.019714355,0.11975098,9.938931,-11.19084,8.358779,5
428,0.015930176,-0.012207031,0.11395264,1.29771,-7,12.015267,5
429,0.034240723,-0.024047852,0.1171875,-8.824428,-7.5343513,10.305344,5
430,0.024658203,-0.04083252,0.11883545,-3.1068702,-9.045801,6.2366414,5
431,0.03515625,-0.017456055,0.113342285,6.0305343,-7.1603055,1.519084,5
432,0.022827148,-0.033325195,0.111328125,2.572519,-5.5267177,-0.7557252,5
433,0.015197754,-0.014282227,0.11114502,-3.7099237,-6.2671757,-0.5648855,5
434,0.017028809,-0.0234375,0.119140625,-10.366412,-5.1679387,1.6412214,5
435,0.016906738,-0.04498291,0.12225342,-5.6488547,-4.7099237,1.4503816,5
436,0.03186035,-0.024353027,0.11602783,3.3435113,-2.6412213,-3.7251909,5
437,0.025024414,-0.02319336,0.11694336,-4.4351144,-1.389313,1.0763359,5
438,0.012878418,-0.029724121,0.11834717,-11.893129,1.9923664,0.35877863,5
439,0.017822266,-0.03338623,0.12738037,-9.244275,2.8244274,3.2671757,5
440,0.013916016,-0.022460938,0.116882324,-7.259542,7.89313,0.53435117,5
441,0.022705078,-0.0178833,0.1149292,-25.435114,11.664123,2.183206,5
442,0.025024414,-0.0345459,0.11804199,-25.343512,14.21374,2.0839694,5
443,0.018981934,-0.0435791,0.11804199,-19.08397,9.106871,-4.5419846,5
444,0.014953613,-0.039794922,0.117614746,0.49618322,5.2442746,-4.8015265,5
445,0.01953125,-0.045410156,0.11791992,20.053434,-1.8625954,-5.8702292,5
446,0.016784668,-0.023742676,0.11456299,17.51145,-8.916031,-2.8778627,5
447,0.020629883,-0.016113281,0.12005615,-9.137404,-6.816794,6.29771,5
448,0.019897461,-0.035095215,0.11602783,-17.832062,-6.3587785,6.0076337,5
449,0.012939453,-0.0335083,0.113220215,-22.312977,-5.816794,4.7099237,5
450,0.020629883,-0.041503906,0.11315918,-10.7786255,-3.3282442,0.46564886,5
451,0.013427734,-0.04486084,0.11407471,-1.9923664,-3.9160306,0.6870229,5
452,0.025024414,-0.047973633,0.11956787,16.931297,-2.465649,4.2748094,5
453,0.022094727,-0.026672363,0.11584473,28.343512,4.664122,5.2748094,5
454,0.022583008,-0.006652832,0.11437988,4.847328,6.9083967,13.030535,5
455,0.020935059,-0.030334473,0.111572266,-31.755726,8.7786255,18.656488,5
456,0.016113281,-0.04034424,0.12176514,-39.931297,2.1984732,11.267176,5
457,0.016418457,-0.0446167,0.11462402,-1.6183206,-2.9847329,15.015267,5
458,0.0134887695,-0.034301758,0.11053467,7.10687,-7.19084,-3.4885497,5
459,0.00579834,-0.030883789,0.11871338,3.335878,-5.3435116,-2.1908398,5
460,0.0040283203,-0.036987305,0.11657715,0.22137405,-6.328244,-8.763359,5
461,0.020507812,-0.02319336,0.1171875,-4.335878,-10.931297,-12.0992365,5
462,0.022888184,-0.036132812,0.120910645,-19.832062,-10.374045,-8.61832,5
463,0.019897461,-0.052124023,0.11450195,-14.603053,-5.8320613,-9.671756,5
464,0.021728516,-0.053894043,0.12060547,9.80916,-0.21374045,-4.9465647,5
465,0.01977539,-0.032470703,0.119262695,16.877863,4.152672,-0.9694657,5
466,0.02130127,-0.028381348,0.11755371,6.4885497,10.152672,7.3969464,5
467,0.016967773,-0.03186035,0.110839844,-11.717557,0.7633588,14,5
468,0.009277344,-0.037963867,0.113342285,-8.78626,-4.3816795,9.656488,5
469,0.014709473,-0.039611816,0.11645508,-4.1603055,-3.9160306,5.70229,5
470,0.015014648,-0.042236328,0.12030029,1.9312977,-3.221374,0.06870229,5
471,0.009643555,-0.03967285,0.11791992,7.6793895,-3.442748,-2.8244274,5
472,0.014770508,-0.026550293,0.117492676,5.2290077,-4.8015265,-3.0076337,5
473,0.022460938,-0.032958984,0.1184082,-1.9923664,-5.6488547,-0.52671754,5
474,0.014892578,-0.038269043,0.115722656,-7.923664,-2.40458,0.34351146,5
475,0.013183594,-0.042053223,0.11431885,-9.412213,-2.610687,3.1603053,5
476,0.016479492,-0.04425049,0.10986328,0.1908397,-2.946565,0.13740458,5
477,0.00982666,-0.035583496,0.115112305,-2.3435113,-4.2290077,0.022900764,5
478,0.012939453,-0.042236328,0.12054443,-3.8854961,-2.648855,-1.167939,5
479,0.009643555,-0.043273926,0.11444092,6.038168,-3.1526718,-0.9160305,5
480,0.010498047,-0.030761719,0.117248535,7.3893127,-5.0076337,-1.7862595,5
481,0.018737793,-0.033447266,0.115112305,-4.0458016,-3.3969467,2.778626,5
482,0.014099121,-0.042114258,0.117492676,-7.5648856,-6.9770994,1.8854961,5
483,0.015686035,-0.048950195,0.11328125,7.7862597,-11.587787,4.923664,5
484,0.018676758,-0.02911377,0.1138916,11.870229,-11.564885,-1.4274809,5
485,0.017150879,-0.026611328,0.11968994,3,-7.847328,7.9007635,5
486,0.015380859,-0.039916992,0.11779785,0.03816794,-6.5419846,7.3816795,5
487,0.016662598,-0.03491211,0.117492676,11.320611,-7.1755724,5.366412,5
488,0.017700195,-0.024658203,0.118896484,3.778626,-5.3587785,5.2442746,5
489,0.018127441,-0.03527832,0.119018555,-6.740458,-6.6030536,6.8778625,5
490,0.017822266,-0.03491211,0.1182251,-8.312977,-7.374046,1.70229,5
491,0.01928711,-0.03552246,0.11663818,-13.335877,-3.0992367,1.351145,5
492,0.017150879,-0.0357666,0.117248535,-9.412213,-2.3053436,-1.4885496,5
493,0.017211914,-0.042053223,0.11791992,-7.7633586,1.0534351,-0.099236645,5
494,0.016235352,-0.03692627,0.11553955,-2.442748,2.1145039,-5.29771,5
495,0.016418457,-0.044067383,0.11315918,7.8244276,-1.8244275,-2.4961832,5
496,0.012756348,-0.03491211,0.12084961,18.984734,-4.4503818,-3.1450381,5
497,0.016235352,-0.023925781,0.116760254,9.870229,0.6183206,3.6793892,5
498,0.022888184,-0.034301758,0.11773682,-3.8473282,-5.5267177,6.4351144,5
499,0.009155273,-0.038085938,0.11883545,-1.1984733,-3.6946564,3.9160306,5
500,0.015991211,-0.03540039,0.119506836,2.2671757,-4.847328,1.2061069,5
501,0.019165039,-0.03375244,0.11517334,-1.480916,-4.1221375,1.9312977,5
502,0.0154418945,-0.031921387,0.12231445,-1.5419847,-3.6259542,4.335878,5
503,0.016113281,-0.036987305,0.12097168,-1.1068702,-0.64122134,1.4427481,5
504,0.013549805,-0.03704834,0.11651611,3.0076337,-3.5114503,2.8244274,5
505,0.018310547,-0.033325195,0.11639404,4.068702,-4.3511453,1.778626,5
506,0.012451172,-0.03643799,0.11468506,2.908397,-4.2137403,3.2137403,5
507,0.016906738,-0.032958984,0.11895752,4.4885497,-7.3511453,1.8931298,5
508,0.014892578,-0.028503418,0.1171875,-7.778626,-2.0152671,4.633588,5
509,0.017700195,-0.036743164,0.11425781,-10.78626,-1.5114504,2.610687,5
510,0.015930176,-0.04107666,0.12011719,-2.870229,-2.389313,2.4885497,5
511,0.015563965,-0.03765869,0.11663818,5.3206105,-4.9465647,-0.86259544,5
512,0.016601562,-0.031799316,0.121032715,0.9236641,-3.5267177,2.9312978,5
513,0.013977051,-0.033325195,0.120788574,-1.0076336,-2.1984732,1.8473282,5
514,0.015258789,-0.03527832,0.1182251,1.5038168,-3.389313,0.9160305,5
515,0.016784668,-0.0345459,0.11419678,2.4122138,-3.2900763,1.6259542,5
516,0.015808105,-0.030151367,0.12158203,-0.053435113,-3.3053436,0.89312977,5
517,0.015075684,-0.030456543,0.119018555,-2.8091602,-2.793893,3.076336,5
518,0.016357422,-0.03186035,0.12158203,-6.1984735,-1.3664122,1.3053435,5
519,0.012390137,-0.036010742,0.11590576,-4.7709923,-1.351145,1.091603,5
520,0.012451172,-0.033691406,0.12023926,-3.648855,-4.931298,1.1832061,5
521,0.015319824,-0.030883789,0.11682129,-2.9923663,-5.3816795,1.351145,5
522,0.015808105,-0.03265381,0.12023926,-4.847328,-4.5801525,2.5114503,5
523,0.018005371,-0.03479004,0.11395264,-10.198473,-3.8625953,4.3053436,5
524,0.018981934,-0.01763916,0.1149292,-7.4656487,-2.221374,0.061068702,5
525,0.020690918,-0.033691406,0.11773682,-7.9160304,2.2748091,0.99236643,5
526,0.02709961,-0.037963867,0.11303711,0.3129771,1.1603054,-1.2290076,5
527,0.020202637,-0.033691406,0.111694336,8.961832,-0.06870229,-3.7557251,5
528,0.0138549805,-0.028625488,0.120666504,3.3206108,-2.9541984,-0.17557251,5
529,0.026428223,-0.026000977,0.119262695,-3.3053436,1.778626,3.7633588,5
530,0.0119018555,-0.04272461,0.11791992,-2.0076337,-3.3816793,6.519084,5
531,0.022766113,-0.031188965,0.1184082,2.2671757,-6.9007635,2.3435113,5
532,0.016235352,-0.033691406,0.119384766,0.71755725,-1.4351145,2.557252,5
533,0.012939453,-0.026916504,0.121154785,2.519084,-5.076336,1.3664122,5
534,0.02154541,-0.02154541,0.11425781,1.2519084,-3.7480917,1.5267175,5
535,0.018981934,-0.030273438,0.123535156,0.4274809,-2.8244274,2.335878,5
536,0.024108887,-0.030090332,0.121520996,-2.29771,-2.3969467,2.4351146,5
537,0.016601562,-0.022033691,0.11999512,-5.9465647,-3.8091602,2.1221373,5
538,0.020751953,-0.033447266,0.11444092,-3.2671757,-2.8091602,1.5038168,5
539,0.024719238,-0.025634766,0.11419678,0.03816794,-4.0839696,3.1526718,5
540,0.019958496,-0.0289917,0.117492676,1.3740458,-4.7557254,1.1832061,5
541,0.016601562,-0.018798828,0.11804199,0.519084,-4.0839696,2.9770992,5
542,0.024414062,-0.03265381,0.11315918,-1.1221374,-1.8473282,1.4045801,5
543,0.021362305,-0.029296875,0.11218262,-0.33587787,-0.65648854,2.2137403,5
544,0.020324707,-0.030212402,0.12182617,0.16793893,-4.557252,2.091603,5
545,0.016113281,-0.024047852,0.11694336,-3.4732823,-1.4503816,1.091603,5
546,0.020019531,-0.025634766,0.11883545,-6.70229,-1.3053435,2.351145,5
547,0.020141602,-0.030761719,0.115478516,-5.8320613,-2.687023,1.6717557,5
548,0.02154541,-0.02355957,0.11627197,-2.3282442,-3.221374,1.1374046,5
549,0.018859863,-0.025268555,0.11468506,0.8778626,-2.1450381,2.0992367,5
550,0.020141602,-0.032836914,0.114868164,3.2442749,-1.8473282,1.8091604,5
551,0.018066406,-0.022521973,0.11328125,1.6183206,-3.0305343,2.8854961,5
552,0.025878906,-0.029724121,0.11694336,0.99236643,-3.2442749,2.7633588,5
553,0.02355957,-0.031311035,0.11529541,-1.3969465,-1.9160305,1.9694656,5
554,0.017089844,-0.024597168,0.11975098,-3.1068702,-1.3129771,1.648855,5
555,0.018371582,-0.024597168,0.11682129,-2.59542,-3.6412213,2.167939,5
556,0.018676758,-0.034240723,0.117614746,-1.4274809,-6.5114503,2.5114503,5
557,0.026916504,-0.033813477,0.1171875,-4.1374044,-3.2824428,1.6870229,5
558,0.020507812,-0.03186035,0.11425781,-3.9541984,-2.4732823,2.778626,5
559,0.020935059,-0.026367188,0.1161499,2.167939,-1.70229,1.4198474,5
560,0.017456055,-0.02734375,0.120910645,4.8015265,-4.2671757,1.3206106,5
561,0.016845703,-0.019165039,0.117614746,2.70229,-4.9389315,2.3587787,5
562,0.022644043,-0.026611328,0.12005615,-2.389313,-3.389313,2.2519083,5
563,0.02368164,-0.028930664,0.11462402,-2.0610688,-4.2900763,3.4732823,5
564,0.018920898,-0.027832031,0.1204834,-5.2748094,-2.3740458,1.4732825,5
565,0.020690918,-0.026672363,0.11853027,-7.2290077,-1.1908396,3.3664122,5
566,0.015136719,-0.030395508,0.11798096,-4.259542,-3.3206108,1.1526718,5
567,0.0256958,-0.032958984,0.11529541,0.60305345,-4.2900763,1.961832,5
568,0.018188477,-0.031433105,0.11834717,2.7633588,-3.6183207,1.778626,5
569,0.019226074,-0.027404785,0.11553955,1.3435115,-4.6030536,2.6793892,5
570,0.017944336,-0.032226562,0.1194458,0.86259544,-4.816794,4.2061067,5
571,0.016174316,-0.034362793,0.119628906,-1.1526718,-2.3206108,2,5
572,0.020568848,-0.026367188,0.117492676,0.21374045,-2.8549619,2.4580152,5
573,0.017578125,-0.024353027,0.12017822,-2.9923663,-3.961832,2.3206108,5
574,0.017150879,-0.026611328,0.11871338,-5.7175574,-2.3969467,1.4198474,5
575,0.018249512,-0.025817871,0.11706543,-2.480916,-3.2671757,1.1908396,5
576,0.019958496,-0.03375244,0.117492676,-1.4351145,-0.7099237,1.4885496,5
577,0.02130127,-0.030822754,0.117004395,1.5725191,-3.3816793,1.7099236,5
578,0.018615723,-0.02709961,0.11853027,-1.648855,-4.40458,0.8167939,5
579,0.018981934,-0.032470703,0.11999512,-4.671756,-2.4885497,3,5
580,0.018127441,-0.03186035,0.115478516,-3.1755726,-0.34351146,2.167939,5
581,0.01586914,-0.032714844,0.11883545,-3.59542,-1.3129771,2.961832,5
582,0.016357422,-0.026428223,0.118652344,-6.7938933,-0.90839696,0.6183206,5
583,0.013916016,-0.03289795,0.117370605,-7.5648856,1.5954199,0.519084,5
584,0.019714355,-0.027038574,0.11407471,-7.9770994,4.5114503,0.022900764,5
585,0.017456055,-0.028564453,0.11853027,-8.503817,4.2519083,0.8167939,5
586,0.01940918,-0.027404785,0.119018555,-12.839695,8.732824,-3.1526718,5
587,0.012817383,-0.037719727,0.11645508,-11.244275,7.625954,-1.7938931,5
588,0.0146484375,-0.037963867,0.115356445,-0.8778626,3.5877862,-7.587786,5
589,0.01586914,-0.03668213,0.11633301,8.229008,-0.07633588,-4.5725193,5
590,0.01361084,-0.031433105,0.11993408,7.2519083,-1.70229,-2.8473282,5
591,0.01574707,-0.022827148,0.1217041,-2.793893,-0.6870229,1.6870229,5
592,0.0146484375,-0.028381348,0.12011719,-7.2366414,-4.3129773,4.10687,5
593,0.013244629,-0.033081055,0.11730957,-13.2213745,-4.6793895,3.6412213,5
594,0.017700195,-0.035888672,0.11828613,-4.9541984,-6.59542,4.6488547,5
595,0.015075684,-0.035949707,0.1171875,4.9160304,-5.2366414,6.2290077,5
596,0.015197754,-0.038146973,0.11505127,11.473283,-2.9923663,9.206107,5
597,0.01159668,-0.02911377,0.12371826,20.549618,-14.519084,3.534351,5
598,0.013793945,-0.01586914,0.11590576,1.5725191,-11.152672,9.328244,5
599,0.020202637,-0.028625488,0.11810303,-10.488549,-1.167939,9.122137,5
600,0.018554688,-0.035461426,0.11621094,-12.564885,2.8473282,3.9312978,5
601,0.01977539,-0.03491211,0.12060547,-9.541985,2.6183207,0.7099237,5
602,0.01361084,-0.038757324,0.11791992,-8.480916,1.0687023,-2.7328243,5
603,0.014038086,-0.03515625,0.12164307,0.86259544,-0.1908397,-6.3969464,5
604,0.018188477,-0.03100586,0.12036133,-1.4045801,-0.091603056,-3.4580152,5
605,0.013061523,-0.037902832,0.11981201,-1.7099236,-0.5114504,-3.129771,5
606,0.015991211,-0.037109375,0.118774414,3.40458,-2.832061,-2.3282442,5
607,0.011779785,-0.026733398,0.12121582,3.7099237,-2.3664122,-1.778626,5
608,0.016357422,-0.030578613,0.11895752,-4.5267177,-2.0305343,3.4732823,5
609,0.016723633,-0.029174805,0.12042236,-4.9923663,-5,3.5267177,5
610,0.011962891,-0.03479004,0.112854004,-6.5801525,-3.687023,3.7480917,5
611,0.014892578,-0.033081055,0.117004395,-5.0305343,-4.5496182,4.145038,5
612,0.016357422,-0.037475586,0.11755371,-0.57251906,-6.221374,5.8015265,5
613,0.014343262,-0.034606934,0.11755371,4.4503818,-7.847328,2.4198472,5
614,0.016418457,-0.034179688,0.12023926,3.610687,-7.885496,5.1679387,5
615,0.01739502,-0.032226562,0.11968994,2.465649,-4.8396945,3.7557251,5
616,0.018737793,-0.030212402,0.11584473,-4.2137403,-1.6259542,3.6564887,5
617,0.01574707,-0.03265381,0.11621094,-6.2366414,3.2900763,3.2824428,5
618,0.016235352,-0.032226562,0.117126465,-10.755725,3.129771,2.038168,5
619,0.010498047,-0.032714844,0.12109375,-9.5801525,6.068702,-2.8549619,5
620,0.011291504,-0.027038574,0.115722656,-17.862595,7.0305343,-6.7633586,5
621,0.01361084,-0.041748047,0.11645508,-22.030535,4.9923663,-2.2671757,5
622,0.01373291,-0.046020508,0.1171875,-8.282443,0.8015267,-10.503817,5
623,0.016052246,-0.040100098,0.11975098,1.6183206,0.54198474,-7.2442746,5
624,0.014465332,-0.04034424,0.12030029,9.824428,-2.2824428,-4.4580154,5
625,0.012756348,-0.03967285,0.11871338,19.29771,-6.8320613,0.16030534,5
626,0.016540527,-0.030212402,0.12042236,14.78626,-10.21374,2.4961832,5
627,0.020446777,-0.017944336,0.11468506,6.847328,-8.923664,8.610687,5
628,0.016845703,-0.014892578,0.11779785,-10.992367,-9.007633,9.5801525,5
629,0.0289917,-0.031555176,0.1182251,-15.916031,-2.8778627,11.068703,5
630,0.016113281,-0.035705566,0.117492676,-14.725191,-1.4580153,7.5648856,5
631,0.01550293,-0.037109375,0.11883545,-18.229008,2.221374,5.587786,5
632,0.014709473,-0.03765869,0.1194458,-7.374046,1.3206106,2.519084,5
633,0.022949219,-0.03552246,0.11505127,1.3206106,-1.9007634,-5.2900763,5
634,0.0146484375,-0.021240234,0.11773682,0.33587787,1.8244275,-1.221374,5
635,0.017700195,-0.022033691,0.11468506,-9.137404,2.29771,-4.1984735,5
636,0.015808105,-0.040283203,0.119018555,-8.061069,3.4198472,-1.091603,5
637,0.011047363,-0.03881836,0.11743164,2.9389312,0.17557251,-6.740458,5
638,0.014831543,-0.027526855,0.11425781,6.0229006,-4.3053436,-0.6793893,5
639,0.010192871,-0.022094727,0.11798096,5.114504,-5.2290077,-0.9160305,5
640,0.022216797,-0.030151367,0.1171875,0.79389316,-7.80916,7.5343513,5
641,0.015625,-0.035949707,0.11242676,2.1374047,-8.648855,5.664122,5
642,0.023925781,-0.032348633,0.11932373,-1.3358779,-7.1679387,6.5801525,5
643,0.016357422,-0.02947998,0.11407471,-4.5343513,-5.2519083,6.519084,5
644,0.025939941,-0.03314209,0.115356445,-5.3893127,-0.54198474,3.221374,5
645,0.013793945,-0.03149414,0.12164307,0.64122134,-0.58778626,2.8625953,5
646,0.019042969,-0.033935547,0.11907959,7.1603055,-1.5648855,-2.9847329,5
647,0.01361084,-0.026550293,0.12005615,3.664122,0.3129771,1.4274809,5
648,0.020141602,-0.024047852,0.117492676,-3.2290077,0.24427481,1.70229,5
649,0.018737793,-0.019470215,0.120788574,-9.938931,2.335878,6.1984735,5
650,0.017089844,-0.031799316,0.11730957,-9.862596,0.99236643,5.6564884,5
651,0.012512207,-0.03918457,0.114990234,-5.412214,2.1908398,5.4198475,5
652,0.013305664,-0.026916504,0.114990234,-2.6030533,-1.3587786,5.5725193,5
653,0.016662598,-0.03137207,0.11773682,0.114503816,0.08396947,4.1374044,5
654,0.013000488,-0.026855469,0.11834717,1.5954199,2.7099237,2.5114503,5
655,0.01751709,-0.035339355,0.121154785,-3.1145039,0.9160305,2.7328243,5
656,0.019226074,-0.034973145,0.114990234,-4.3053436,-2.40458,1.6870229,5
657,0.010070801,-0.038269043,0.11621094,-3.5496182,-2.4122138,0.21374045,5
658,0.015991211,-0.041015625,0.11553955,3.9312978,-5.076336,0.07633588,5
659,0.02166748,-0.02746582,0.11315918,3.832061,-8.977099,0.39694658,5
660,0.018127441,-0.030151367,0.11431885,0.24427481,-9.106871,3.6335878,5
661,0.019470215,-0.039978027,0.11846924,-7.412214,-10.160305,2.3282442,5
662,0.018554688,-0.03845215,0.11883545,-1.4656489,-8.229008,-1.1221374,5
663,0.020141602,-0.030761719,0.11987305,3.1374047,-3.3053436,0.08396947,5
664,0.01965332,-0.022583008,0.11773682,-3.312977,2.7175572,2.5038168,5
665,0.0119018555,-0.025817871,0.1159668,-9.061069,0.3740458,3.687023,5
666,0.018981934,-0.027770996,0.11431885,-14.931297,3.8396947,6.2442746,5
667,0.0119018555,-0.034729004,0.11779785,-11.969465,-1.1068702,3.7557251,5
668,0.020080566,-0.044128418,0.118774414,0.022900764,-1.8625954,0.48854962,5
669,0.015808105,-0.030639648,0.11633301,5.0152674,-1.1908396,2.480916,4
670,0.015197754,-0.029296875,0.12036133,5.4732823,-3.8625953,2.534351,4
671,0.013000488,-0.033203125,0.114746094,4.145038,-4.2290077,0.90839696,4
672,0.0154418945,-0.03265381,0.11804199,1.8931298,-3.0458016,1.648855,4
673,0.015686035,-0.02331543,0.11407471,4.40458,-8.496183,0.519084,4
674,0.01727295,-0.032165527,0.1182251,-4.335878,-7.4961834,-0.10687023,4
675,0.011779785,-0.03479004,0.118652344,-7.2290077,-8.7404585,-0.35877863,4
676,0.013244629,-0.042419434,0.11669922,-3.9923663,-5.854962,-0.1908397,4
677,0.016967773,-0.037597656,0.12054443,3.816794,-5.587786,-0.6946565,4
678,0.026062012,-0.033569336,0.113342285,7.9694657,-5.0534353,-0.35114503,4
679,0.01751709,-0.03466797,0.11785889,9.450381,-1.4045801,-1.0534351,4
680,0.013305664,-0.029785156,0.1149292,8.38168,-3.610687,-0.10687023,4
681,0.0115356445,-0.03277588,0.1184082,5.1297708,-4.2442746,-0.10687023,4
682,0.010864258,-0.020385742,0.11590576,-0.3816794,-3.129771,-0.22137405,4
683,0.010375977,-0.03338623,0.12011719,-5.4656487,-0.49618322,-0.007633588,4
684,0.0146484375,-0.04168701,0.1182251,16.847328,-5.0534353,-0.2977099,4
685,0.017028809,-0.03729248,0.1182251,33.251907,-9.229008,-10.282443,4
686,0.0154418945,-0.022338867,0.11981201,39.89313,-8.816793,-11.229008,4
687,0.01776123,-0.022033691,0.11987305,36.65649,-8.19084,-6.152672,4
688,0.020141602,-0.015625,0.119262695,33.23664,-6.7328243,-6.19084,4
689,0.025817871,-0.016479492,0.12011719,18.290077,-5.5648856,0.96183205,4
690,0.018127441,-0.011657715,0.11920166,-1.3664122,-3.7480917,7.7862597,4
691,0.020874023,-0.013183594,0.12609863,-12.564885,-2.183206,10.564885,4
692,0.021728516,-0.02166748,0.11602783,-19.06107,0.41221374,9.755725,4
693,0.014953613,-0.022766113,0.121520996,-15.274809,-1.1984733,8.274809,4
694,0.012634277,-0.028259277,0.12237549,-7.664122,-4.5267177,5.847328,4
695,0.014587402,-0.026184082,0.11932373,0.17557251,-4.29771,2.778626,4
696,0.015258789,-0.023376465,0.121032715,10.450381,-6.4580154,2.480916,4
697,0.015930176,-0.03527832,0.124572754,35.46565,-4.0534353,-1.8473282,4
698,0.01361084,-0.031677246,0.12298584,63.091602,-11.305344,-12.877863,4
699,0.014770508,-0.023986816,0.1204834,84.496185,-14.267176,-13.977099,4
700,0.020874023,-0.0115356445,0.12634277,109.99236,-23.526718,-29.274809,4
701,0.009277344,-0.0052490234,0.12554932,184.12978,-28.580153,-29.305344,4
702,0.022766113,0.01977539,0.12432861,166.12213,-31.671755,-32.06107,4
703,0.02166748,0.018371582,0.12005615,162.22137,-29.358778,-27.778625,4
704,0.02923584,0.035827637,0.12426758,153.61832,-34.427483,-42.412212,4
705,0.026550293,0.045654297,0.13171387,152.57253,-39.419846,-44.70229,4
706,0.032409668,0.05206299,0.11407471,210.51909,-53.541985,-49.366413,4
707,0.033203125,0.06866455,0.10870361,223.35115,-62.541985,-35.67939,4
708,0.02178955,0.09832764,0.101989746,184.93893,-58.694656,-23.221375,4
709,0.030456543,0.09088135,0.09234619,136.37404,-61.67939,-19.145039,4
710,0.029418945,0.0869751,0.08105469,134.89313,-56.34351,-12.916031,4
711,0.029724121,0.09881592,0.0736084,118.75572,-58.015266,-11.954199,4
712,0.032348633,0.10192871,0.06616211,71.26717,-47.83206,-0.6793893,4
713,0.03564453,0.09240723,0.05609131,55.091602,-45.328243,4.9389315,4
714,0.03656006,0.08898926,0.051696777,54.61832,-34.709923,2.3206108,4
715,0.03955078,0.09686279,0.052001953,40.59542,-23.541985,1.7099236,4
716,0.04284668,0.09875488,0.04827881,17.732824,-18.557251,6.854962,4
717,0.039916992,0.09716797,0.04827881,17.656488,-10.167939,5.152672,4
718,0.042114258,0.097717285,0.049438477,30.80916,-7.3206105,2.038168,4
719,0.040405273,0.10449219,0.04815674,29.610687,-2.076336,-1.7251909,4
720,0.03845215,0.105163574,0.05065918,18.74809,2.3969467,2.1450381,4
721,0.038757324,0.105407715,0.052001953,9.183207,3.8473282,0.7251908,4
722,0.039855957,0.10412598,0.053222656,4.6870227,7.1374044,-0.65648854,4
723,0.039611816,0.10217285,0.05078125,8.198473,6.931298,-1.8625954,4
724,0.041748047,0.11016846,0.05432129,-4.4732823,8.167939,-5.1297708,4
725,0.035583496,0.105285645,0.053955078,-28.541985,8.167939,0.5954198,4
726,0.03656006,0.099365234,0.05267334,-48.12214,14.007633,0.15267175,4
727,0.034484863,0.10247803,0.05303955,-66.10687,14.610687,-1.7709924,4
728,0.03491211,0.10638428,0.05657959,-104.48855,22.25191,-0.83206105,4
729,0.035705566,0.10058594,0.05682373,-152.48856,30.458015,8.442748,4
730,0.034057617,0.08123779,0.06561279,-171.87787,47.778625,18.183207,4
731,0.03302002,0.09283447,0.08111572,-175.69466,54.67939,16.145039,4
732,0.034851074,0.097595215,0.0993042,-221.64122,56.44275,31.23664,4
733,0.027526855,0.08673096,0.109436035,-250.1374,66.458015,49.61832,4
734,0.018493652,0.036254883,0.10424805,-250.1374,67.76336,75.87023,4
735,0.01940918,0.022399902,0.117492676,-248.55725,55.007633,57.06107,4
736,0.026672363,0.021850586,0.12017822,-235.74046,43.923664,52.717556,4
737,0.02722168,0.022216797,0.11993408,-250.1374,15.564885,64.55725,4
738,0.010925293,-0.0892334,0.10601807,-152.25954,38.83206,75.259544,4
739,0.027648926,-0.04510498,0.16046143,3.1145039,46.183205,8.251908,4
740,0.008300781,-0.030822754,0.119628906,-62.64122,-20.595419,18.25191,4
741,0.013671875,-0.036010742,0.111206055,-42.931297,-8.358779,-0.47328246,4
742,0.0087890625,-0.035461426,0.122680664,-2.3969467,-4.6564884,7.816794,4
743,0.02319336,-0.009277344,0.12005615,-3.7633588,-6.3053436,-7.2290077,4
744,0.018615723,-0.015808105,0.12097168,-10.282443,-1.519084,3.221374,4
745,0.020996094,-0.028625488,0.11993408,-6.6946564,-6.5419846,-0.29007635,4
746,0.015686035,-0.028625488,0.1161499,-14.557252,-4.519084,3.480916,4
747,0.020751953,-0.027038574,0.122680664,-8.984733,-8.091603,3.3282442,4
748,0.0146484375,-0.030090332,0.1194458,-4.2137403,-2.6717558,4.1603055,4
749,0.014404297,-0.021850586,0.12463379,-6.0610685,-3.076336,5.0305343,4
750,0.02130127,-0.022338867,0.12164307,-7.4656487,-0.5801527,1.961832,4
751,0.018859863,-0.016906738,0.12017822,-7.328244,-2.9160306,-3.3816793,4
752,0.024841309,-0.029907227,0.12023926,-15.129771,3.572519,3.465649,4
753,0.014892578,-0.044311523,0.11236572,4.854962,-2.3664122,-2.221374,4
754,0.012451172,-0.020202637,0.12054443,16.213741,-5.3206105,-9.274809,4
755,0.02331543,-0.016967773,0.12200928,3.9541984,-6.7862597,0.71755725,4
756,0.018066406,-0.027709961,0.12121582,3.70229,-8.526717,-0.740458,4
757,0.011352539,-0.03363037,0.119384766,6.0305343,-6.1679387,1.1755725,5
758,0.021240234,-0.0146484375,0.12335205,2.7862597,-8.267176,1.4961832,5
759,0.01940918,-0.020507812,0.118652344,-3.2824428,-2.7709923,5.1755724,5
760,0.016113281,-0.027282715,0.11291504,-0.90839696,-3.1908398,2.312977,5
761,0.012207031,-0.025390625,0.123046875,7.038168,-2.8549619,-0.35114503,5
762,0.023010254,-0.009521484,0.119140625,-1.4580153,-1.908397,0.8396947,5
763,0.017089844,-0.032409668,0.12445068,-9.0992365,-0.33587787,6.0458016,5
764,0.017211914,-0.024047852,0.117370605,-3.5114503,-0.73282444,1.091603,5
765,0.019470215,-0.020263672,0.11895752,0.14503817,0.71755725,4.5038166,5
766,0.018249512,-0.023986816,0.11907959,-0.70229006,3.0229008,1.5572519,5
767,0.016906738,-0.019226074,0.11993408,1.5343511,-1.2061069,1.1984733,5
768,0.010925293,-0.026184082,0.12145996,5.3969464,-2.9160306,2.1908398,5
769,0.018005371,-0.014953613,0.11785889,2.908397,-4.4351144,-0.648855,5
770,0.018432617,-0.01776123,0.121398926,-2.335878,-4.671756,3.091603,5
771,0.01739502,-0.020996094,0.11920166,-4.7099237,-4.8625956,1.870229,5
772,0.017333984,-0.021972656,0.11755371,-3.480916,-6.2366414,-0.35877863,5
773,0.022644043,-0.02319336,0.12017822,0.8167939,-3.7175572,1.5419847,5
774,0.024475098,-0.013977051,0.12030029,0.6259542,-2.40458,0.06870229,5
775,0.018127441,-0.02368164,0.121398926,-3.3816793,-1.2290076,2.4961832,5
776,0.017700195,-0.03125,0.1239624,2.7251909,-3.2366412,3.206107,5
777,0.013244629,-0.02368164,0.11932373,2.1908398,-8.5801525,1.4274809,5
778,0.01159668,-0.022033691,0.12164307,-0.89312977,-6.9389315,4.0839696,5
779,0.016174316,-0.02355957,0.12164307,-2.8015268,-5.29771,-0.7099237,5
780,0.017211914,-0.026611328,0.12133789,-5.80916,-2.9541984,1.4732825,5
781,0.023803711,-0.02331543,0.119018555,-3.4351146,-2.687023,-1.4351145,5
782,0.021118164,-0.023254395,0.12121582,-0.870229,-2.2748091,0.57251906,5
783,0.014892578,-0.023925781,0.12219238,1.5496184,-2.7099237,-0.16793893,5
784,0.01727295,-0.021606445,0.118896484,1.480916,-2.183206,1.1908396,5
785,0.016052246,-0.026428223,0.12207031,-1.5343511,-1.5877863,2.3282442,5
786,0.020324707,-0.018066406,0.11932373,-1.5801526,-2.351145,2.40458,5
787,0.017150879,-0.023071289,0.12133789,-3.1450381,-3.0076337,2.6259542,5
788,0.022155762,-0.028564453,0.12286377,-2.870229,-0.86259544,1.519084,5
789,0.014526367,-0.021057129,0.11981201,-4.5801525,-3.0687022,1.0687023,5
790,0.0178833,-0.021118164,0.117126465,-5.4580154,-1.6412214,0.83206105,5
791,0.018676758,-0.024780273,0.11895752,-4.366412,-1.9541985,2.6412213,5
792,0.018798828,-0.030395508,0.117248535,-0.77099234,-2.6564887,2.2442749,5
793,0.015258789,-0.025878906,0.11981201,-0.22137405,-2.961832,2.9007633,5
794,0.017456055,-0.02154541,0.12042236,0.5648855,-4.519084,1.9236641,5
795,0.014831543,-0.023864746,0.12414551,0.36641222,-3.1450381,2.1374047,5
796,0.0178833,-0.022827148,0.118774414,-1.7175573,-2.2748091,3.1145039,5
797,0.0146484375,-0.024597168,0.120666504,-3.0152671,-4.4885497,2.038168,5
798,0.015563965,-0.02557373,0.12133789,-4.0534353,-4.221374,0.129771,5
799,0.020446777,-0.028076172,0.12042236,-3.7175572,-1.4045801,1.1984733,5
800,0.018676758,-0.026428223,0.12072754,-3.1755726,-1.648855,1.2748091,5
801,0.018554688,-0.030517578,0.117492676,0.16793893,-4.961832,0.36641222,5
802,0.014892578,-0.028686523,0.1204834,-0.5496183,-3.0992367,1.0839695,5
803,0.014404297,-0.024047852,0.119628906,0.16030534,-3.3587787,2.480916,5
804,0.017578125,-0.023742676,0.11816406,-1.0458015,-2.8625953,2.351145,5
805,0.018432617,-0.022521973,0.12097168,-1.5267175,-1.0229008,3.1450381,5
806,0.012207031,-0.025817871,0.11871338,-4.0152674,-3.3053436,1.5343511,5
807,0.016601562,-0.021972656,0.12084961,-7.7251906,-1.70229,1.7175573,5
808,0.013671875,-0.022705078,0.12438965,-2.740458,-4.442748,2.40458,5
809,0.0115356445,-0.026000977,0.12011719,-3.3206108,-14.297709,1.0992366,5
810,0.016845703,-0.023864746,0.12182617,-0.34351146,-8.122137,2.572519,5
811,0.015686035,-0.026550293,0.117614746,-1.5267175,-5.557252,3.053435,5
812,0.019836426,-0.022460938,0.1194458,4.0076337,-3.1450381,3.0687022,5
813,0.016052246,-0.028442383,0.11968994,3.1068702,-1.0687023,1.5267175,5
814,0.016906738,-0.027526855,0.12200928,0.64122134,-2.1374047,1.5877863,5
815,0.01574707,-0.022644043,0.123291016,-0.96183205,-1.4656489,0.6870229,5
816,0.014953613,-0.024963379,0.12158203,-7.7709923,1.0076336,0.1908397,5
817,0.015258789,-0.027709961,0.12164307,-7.412214,-1.1603054,1.167939,5
818,0.016418457,-0.027770996,0.1194458,-6.328244,-3.6564887,0.90076333,5
819,0.015686035,-0.029846191,0.12030029,-3.6564887,-1.9236641,1.6717557,5
820,0.016906738,-0.028320312,0.117370605,0.34351146,-1.2290076,2.442748,5
821,0.015075684,-0.02746582,0.12060547,-1.389313,-3.1068702,4.114504,5
822,0.014892578,-0.027893066,0.11932373,-1.9236641,0.5038168,1.870229,5
823,0.016052246,-0.029052734,0.12054443,-2.610687,-2.946565,3.8854961,5
824,0.015014648,-0.026428223,0.12133789,-5.2442746,-2.3816793,1.2442749,5
825,0.0146484375,-0.026855469,0.12158203,-6.9694657,-2.7480917,2.183206,5
826,0.012390137,-0.030761719,0.11907959,0.10687023,-8.541985,1.9007634,5
827,0.014343262,-0.018859863,0.12060547,-7.7862597,-11.236641,-0.030534351,5
828,0.013183594,-0.026611328,0.11871338,-22.465649,-12.564885,6.1984735,5
829,0.015014648,-0.038085938,0.11706543,-17.725191,-12.763359,1.4885496,5
830,0.016052246,-0.038391113,0.119140625,-2.8549619,-14.870229,0.60305345,5
831,0.017578125,-0.03289795,0.1184082,8.290076,-10.839695,-3.519084,5
832,0.01965332,-0.0234375,0.120910645,0.20610687,-13.129771,-2.1450381,5
833,0.01965332,-0.031677246,0.119384766,-2.5648854,-7.1297708,-3.5267177,5
834,0.01928711,-0.02746582,0.11999512,-0.7633588,-6.3969464,-2.335878,5
835,0.015808105,-0.03100586,0.12133789,-0.5954198,-13.557252,1.3969465,5
836,0.022827148,-0.028442383,0.12005615,-9.442748,-5.1297708,4.2671757,5
837,0.020385742,-0.026733398,0.117492676,-10.351145,4.778626,7.5725193,5
838,0.020751953,-0.028869629,0.11895752,-16.595419,7.7862597,12.503817,5
839,0.017456055,-0.031799316,0.12060547,-15.717557,4.366412,7.3435116,5
840,0.014770508,-0.031799316,0.11633301,-16.23664,1.4503816,4.442748,5
841,0.011962891,-0.03363037,0.11871338,-24.374046,-14.801527,-2.442748,5
842,0.013427734,-0.048095703,0.11578369,-11.641221,-12.290076,-7.183206,5
843,0.018676758,-0.044921875,0.11621094,3.8244274,-10.343512,-15.312977,5
844,0.021484375,-0.016052246,0.115722656,22.656488,-14.251908,-13.816793,5
845,0.02508545,-0.025146484,0.12109375,14.801527,-5.3129773,-5.374046,5
846,0.028564453,-0.024291992,0.114990234,5.7633586,7.366412,1.4351145,5
847,0.021484375,-0.028747559,0.119506836,0.8778626,8.877863,11.351145,5
848,0.018798828,-0.018554688,0.11834717,-5.40458,5.7862597,12.664123,5
849,0.011352539,-0.025512695,0.120788574,-17.694656,1.8244275,15.2213745,5
850,0.009155273,-0.0524292,0.11859131,-1.8778626,-5.9465647,5.8320613,5
851,0.016845703,-0.028686523,0.11791992,8.923664,-0.7251908,-2.6793892,5
852,0.016662598,-0.03173828,0.1194458,8.022901,0.2977099,-1.0992366,5
853,0.019348145,-0.02734375,0.1182251,4.5267177,-0.86259544,-2.648855,5
854,0.019348145,-0.02178955,0.11853027,-2.4351146,0.5496183,1.740458,5
855,0.010498047,-0.029846191,0.11968994,-9.488549,0.24427481,5.8702292,5
856,0.009887695,-0.029968262,0.12030029,-4.2900763,-3.427481,4.6946564,5
857,0.0146484375,-0.028076172,0.11828613,6.740458,-5.10687,-1.0763359,5
858,0.011352539,-0.023864746,0.121032715,6.8625956,-7.1984735,1.4580153,5
859,0.015258789,-0.026794434,0.121398926,2.6564887,-6.7862597,1.221374,5
860,0.011291504,-0.024291992,0.11981201,-2.1450381,-4.4198475,0.18320611,5
861,0.020751953,-0.015808105,0.120788574,-6.2290077,-2.7175572,0.53435117,5
862,0.0068359375,-0.031677246,0.118774414,-5.1755724,-0.53435117,3.427481,5
863,0.020385742,-0.022155762,0.11218262,-4.2900763,-9.709924,2.442748,5
864,0.016418457,-0.029541016,0.11431885,-3.648855,-8.320611,1.4961832,5
865,0.013305664,-0.026550293,0.11657715,1.6564885,-7.4656487,1.3053435,5
866,0.019042969,-0.02508545,0.11651611,5.6870227,-3.7633588,0.20610687,5
867,0.018737793,-0.024169922,0.116760254,5.0916033,-3.5877862,0.96183205,5
868,0.018859863,-0.021728516,0.117492676,-0.20610687,-6.671756,1.5572519,5
869,0.02947998,-0.023498535,0.12054443,-6.5496182,-4.0534353,-0.259542,5
870,0.018066406,-0.028015137,0.11779785,-10.511451,-5.4732823,1.1832061,5
871,0.020690918,-0.024536133,0.11791992,-7.7175574,-2.2442749,-1.5267175,5
872,0.022949219,-0.02508545,0.12286377,-5.152672,-2.167939,-1.1145039,5
873,0.009094238,-0.03125,0.11810303,0.122137405,-2.9541984,0.045801528,5
874,0.023132324,-0.022583008,0.11956787,6.8396945,-1.7099236,0.08396947,5
875,0.019897461,-0.023803711,0.11450195,5.480916,-0.9847328,6.6946564,5
876,0.019226074,-0.022155762,0.11633301,5.183206,-1.4045801,4.40458,5
877,0.020263672,-0.036254883,0.12011719,12.465649,3.2137403,8.061069,5
878,0.016906738,-0.019470215,0.12145996,16.931297,0.045801528,3.923664,5
879,0.012390137,-0.020935059,0.11932373,6.3053436,-2.3664122,7.3587785,5
880,0.01763916,-0.017578125,0.1204834,-3.4885497,-2.793893,9.122137,5
881,0.022033691,-0.030212402,0.121032715,-5.7938933,-7.3511453,8.412213,5
882,0.02154541,-0.032409668,0.11816406,0.9160305,-12.229008,7.3053436,5
883,0.019958496,-0.023864746,0.11743164,2.1603053,-9.488549,5.923664,5
884,0.018615723,-0.02508545,0.118774414,6.9160304,-6.6183205,3.8091602,5
885,0.020202637,-0.016113281,0.11663818,3.7099237,-6.183206,2.2137403,5
886,0.016296387,-0.021728516,0.11804199,-1.8625954,-1.4503816,1.259542,5
887,0.019714355,-0.0178833,0.11785889,-4.0916033,0.13740458,0.022900764,5
888,0.020507812,-0.027160645,0.11669922,-1.7480916,-1.870229,0.5648855,5
889,0.01928711,-0.018310547,0.11932373,-3.6564887,0.8244275,-2.2137403,5
890,0.01550293,-0.019348145,0.121154785,-7.59542,1.0229008,1.9770992,5
891,0.020202637,-0.022094727,0.12231445,-4.4732823,-0.17557251,2.0687022,5
892,0.017211914,-0.026611328,0.12084961,0.5038168,-0.24427481,0.67175573,5
893,0.020263672,-0.017822266,0.11773682,0.19847329,-1.648855,0.5954198,5
894,0.015686035,-0.027526855,0.123413086,-3.7328243,0.47328246,2.6030533,5
895,0.022277832,-0.026123047,0.118652344,0.57251906,-3.427481,3.59542,5
896,0.0178833,-0.026489258,0.119384766,3.167939,-5.0534353,0.83206105,5
897,0.020446777,-0.017944336,0.119384766,3.221374,-4.366412,2.793893,5
898,0.018249512,-0.024841309,0.11999512,1.4274809,-6.8702292,3.740458,5
899,0.022521973,-0.028259277,0.119140625,6.8015265,-5.9389315,2.7633588,5
900,0.01763916,-0.01727295,0.119628906,4.5496182,-8.251908,4.9694657,5
901,0.018127441,-0.022949219,0.1217041,0.5801527,-6.3816795,6.8702292,5
902,0.017578125,-0.022460938,0.11785889,1.9847329,-5.8015265,3.1755726,5
903,0.01727295,-0.022705078,0.1217041,0.17557251,-3.3282442,3.1374047,5
904,0.018615723,-0.022827148,0.12145996,-0.5954198,-3.1526718,3.0305343,5
905,0.020935059,-0.020202637,0.12237549,-1.648855,-1.8778626,-1.2748091,5
906,0.018066406,-0.019042969,0.12670898,-2.389313,-2.534351,1.4427481,5
907,0.018188477,-0.020568848,0.118774414,-5.7633586,-4.5343513,2.389313,5
908,0.014953613,-0.026855469,0.119140625,-7.183206,-4.931298,1.6335878,5
909,0.019165039,-0.027709961,0.11981201,-5.6030536,-6.7328243,2.4122138,5
910,0.018005371,-0.01977539,0.116882324,-8.870229,-6.9389315,1.8854961,5
911,0.018920898,-0.022705078,0.11968994,-7.9770994,-8.19084,1.0610687,5
912,0.019104004,-0.028625488,0.118774414,-7.259542,-5.961832,-3.8549619,5
913,0.018859863,-0.02557373,0.12133789,-8.435115,-3.3435113,-4.7862597,5
914,0.01940918,-0.02911377,0.12145996,-10.488549,-0.64122134,-5.8244276,5
915,0.018188477,-0.029418945,0.117492676,-6.145038,-0.9160305,-6.625954,5
916,0.018493652,-0.034851074,0.12060547,1.0763359,-0.259542,-1.4656489,5
917,0.01727295,-0.023986816,0.124572754,5.8778625,1.740458,0.8091603,5
918,0.01751709,-0.022460938,0.123046875,2.534351,1.8625954,8.351145,5
919,0.018615723,-0.0345459,0.12225342,8.755725,1.70229,14.007633,5
920,0.020141602,-0.0154418945,0.12023926,6.3587785,-2.2900763,8.732824,5
921,0.015075684,-0.018371582,0.12060547,-11.251908,-2.3969467,17.099237,5
922,0.016418457,-0.027648926,0.12097168,-21.534351,-2.3740458,9.519084,5
923,0.015197754,-0.026367188,0.11834717,-9.511451,-4.2366414,2.8015268,5
924,0.012145996,-0.030029297,0.114990234,-7.4198475,-4.366412,0.7251908,5
925,0.015808105,-0.034118652,0.11798096,-4.59542,-0.8244275,-8.4198475,5
926,0.016906738,-0.04119873,0.11779785,7.3816795,-2.6259542,-5.221374,5
927,0.016357422,-0.026916504,0.11785889,22.70229,-6.2290077,-7,5
928,0.016845703,-0.010009766,0.12567139,9.839695,-3.206107,3.1374047,5
929,0.01550293,-0.025756836,0.120788574,2.3435113,-5.7328243,8.725191,5
930,0.015014648,-0.025634766,0.12219238,1.5114504,-7.961832,7.9847326,5
931,0.017700195,-0.024841309,0.11968994,-4.0992365,-6.7557254,7.183206,5
932,0.016052246,-0.026672363,0.12182617,-2.59542,-4.9465647,2.8091602,5
933,0.016357422,-0.027648926,0.11932373,-3.1221373,-4.4732823,2.4961832,5
934,0.019470215,-0.02758789,0.11975098,-3.7328243,-3.5038168,1.1755725,5
935,0.01739502,-0.025268555,0.12097168,-1.7175573,-3.687023,0.22137405,5
936,0.01739502,-0.024597168,0.12072754,-1.7709924,-4.8320613,2.1374047,5
937,0.017456055,-0.023803711,0.12042236,-6.259542,-2.6183207,1.9770992,5
938,0.018249512,-0.021972656,0.12060547,-8.870229,-3.5267177,2.129771,5
939,0.016235352,-0.028198242,0.11895752,-7.519084,0.648855,-1.961832,5
940,0.01727295,-0.025024414,0.12060547,-11.748092,0.07633588,-4.5343513,5
941,0.014404297,-0.032165527,0.11895752,-14.709924,-1.8473282,-7.3053436,5
942,0.016418457,-0.042236328,0.11883545,-2.534351,3.0610688,-4.183206,5
943,0.0146484375,-0.023254395,0.11883545,10.496183,-0.77862597,-9.862596,5
944,0.015991211,-0.021911621,0.12133789,5.7175574,-6.152672,5.59542,5
945,0.015563965,-0.031188965,0.12213135,8.59542,-10.351145,9.564885,5
946,0.016296387,-0.020324707,0.12097168,8.946565,-7.3816795,9.450381,5
947,0.018798828,-0.019897461,0.117370605,-2.2671757,-8.389313,17.969465,5
948,0.017028809,-0.018005371,0.12182617,-18.312977,-4.89313,11.396947,5
949,0.013977051,-0.03942871,0.11419678,-14.152672,-3.2824428,16,5
950,0.017456055,-0.026062012,0.12060547,-3.0229008,-4.19084,-6.7251906,5
951,0.015930176,-0.024963379,0.12133789,-4.0229006,0.9160305,-3.038168,5
952,0.014587402,-0.026062012,0.11541748,-9.870229,1.1221374,-3.870229,5
953,0.016662598,-0.035705566,0.11981201,-10.755725,-0.9847328,0.061068702,5
954,0.015808105,-0.033569336,0.120788574,1.5648855,-0.5038168,-5.4732823,5
955,0.019348145,-0.026916504,0.12384033,2.259542,1.3282443,4.6488547,5
956,0.0178833,-0.014343262,0.115112305,2.5496182,4.412214,2.3969467,5
957,0.018371582,-0.018737793,0.12030029,-13.748092,5.076336,8.297709,5
958,0.012268066,-0.032958984,0.11834717,-18.91603,2.312977,8.145039,5
959,-0.000793457,-0.03326416,0.11834717,-12.496183,0.46564886,1.961832,5
960,0.012756348,-0.03881836,0.11975098,-8.335877,-0.90076333,3.389313,5
961,0.009643555,-0.03387451,0.11529541,-3.6183207,0.6259542,-2.3435113,5
962,0.01550293,-0.033325195,0.12060547,-0.65648854,-5.9770994,2.9847329,5
963,0.015258789,-0.021972656,0.12219238,1.0839695,-6.0229006,1.0610687,5
964,0.018493652,-0.030822754,0.1161499,3.5038168,-1.70229,4.1679387,5
965,0.014038086,-0.029907227,0.12365723,8.122137,-10.175572,2.9770992,5
966,0.010864258,-0.026672363,0.115112305,16.412214,-5.412214,-0.67175573,5
967,0.014099121,-0.022766113,0.119506836,10.480916,-7.1221375,5.8320613,5
968,0.016845703,-0.017089844,0.12243652,0.061068702,-6.5114503,1.740458,5
969,0.016967773,-0.023254395,0.123535156,-15.519084,-7.2519083,4.183206,5
970,0.013427734,-0.034179688,0.115234375,-3.610687,-4.068702,5.6946564,5
971,0.006958008,-0.026245117,0.114868164,-3.1908398,-7.2290077,2.335878,5
972,0.005859375,-0.029418945,0.12286377,-1.0229008,-6.5343513,2.7175572,5
973,0.011230469,-0.028015137,0.11907959,0.7251908,-4.7557254,4,5
974,0.017578125,-0.016235352,0.11859131,-1.1832061,-6.4274807,2.0152671,5
975,0.01550293,-0.023620605,0.119384766,-10.244275,-2.1374047,6.9770994,5
976,0.011291504,-0.023071289,0.117126465,-14.312977,-2.816794,3.389313,5
977,0.010864258,-0.02935791,0.11932373,-16.366413,-1.2442749,1.6412214,5
978,0.0115356445,-0.026916504,0.12011719,-15.656488,0.6793893,-7.068702,5
979,0.017700195,-0.027404785,0.121398926,-14.236641,1.0839695,-5.19084,5
980,0.014343262,-0.041503906,0.11541748,3.7480917,-3.29771,-1.0534351,5
981,0.01550293,-0.020446777,0.12347412,15.625955,-4.7938933,-11.664123,5
982,0.014526367,-0.024291992,0.1182251,6.5419846,-2.1908398,10.343512,5
983,0.01776123,-0.028869629,0.11602783,-1.9923664,-11.320611,9.030535,5
984,0.011230469,-0.022460938,0.12030029,6.671756,-10.122137,3.0687022,5
985,0.014465332,-0.022888184,0.12182617,6.0152674,-7.6030536,11.816793,5
986,0.012878418,-0.026428223,0.11767578,0.5038168,-8.503817,4.3129773,5
987,0.014526367,-0.026672363,0.118652344,-1.6335878,-6.374046,3.557252,5
988,0.0154418945,-0.02154541,0.119262695,-7.1755724,-6.1984735,3.648855,5
989,0.016113281,-0.0211792,0.116882324,-11.366412,-4.038168,2.3740458,5
990,0.018371582,-0.02355957,0.119628906,-10.297709,-2.038168,0.83206105,5
991,0.015686035,-0.03173828,0.11859131,-8.5801525,-1.0458015,0.8091603,5
992,0.018676758,-0.02142334,0.117614746,-3.534351,-0.091603056,-5.633588,5
993,0.023925781,-0.024597168,0.12036133,-6.3129773,3.8854961,-3.8854961,5
994,0.01184082,-0.030883789,0.122558594,-5.1679387,0.3816794,-5.9694657,5
995,0.011657715,-0.038085938,0.117492676,4.9541984,-0.5114504,-1.3435115,5
996,0.016906738,-0.017700195,0.1194458,4.625954,-5.7251906,-5.7328243,5
997,0.01763916,-0.028381348,0.116882324,-2.6946564,-5.2137403,9.229008,5
998,0.014770508,-0.027954102,0.11541748,4.5267177,-7.8396945,6.557252,5
999,0.016906738,-0.01763916,0.120910645,2.442748,-10.335877,8.732824,5
1000,0.020751953,-0.027648926,0.11920166,-4.0076337,-8.702291,11.671756,5
1001,0.012451172,-0.029785156,0.12030029,2.1068702,-5.9923663,2.3587787,5
1002,0.016784668,-0.023925781,0.11871338,-3.0229008,-4.5801525,2.3587787,5
1003,0.008483887,-0.029846191,0.12060547,-5.1679387,-6.5267177,2.389313,5
1004,0.016906738,-0.02722168,0.118652344,-2.5114503,-5.7099237,-0.77862597,5
1005,0.027893066,-0.028625488,0.12023926,-4.8320613,-4.221374,-0.091603056,5
1006,0.020080566,-0.028320312,0.11853027,-8.717557,-1.9160305,0.007633588,5
1007,0.012878418,-0.032287598,0.118774414,-8.725191,2.0458016,-0.35114503,5
1008,0.013000488,-0.028320312,0.11639404,-3.3816793,1.9465649,0.6793893,5
1009,0.014099121,-0.028869629,0.11993408,-4.9847326,3.687023,0.86259544,5
1010,0.014709473,-0.029968262,0.117492676,-5.114504,3.8625953,-0.6259542,5
1011,0.015686035,-0.030822754,0.11932373,-4.816794,2.908397,-0.610687,5
1012,0.017456055,-0.026855469,0.11871338,-6.6564884,0.9389313,-0.96183205,5
1013,0.016235352,-0.026184082,0.11846924,-5.259542,0.7251908,-2.8015268,5
1014,0.013061523,-0.03326416,0.121276855,-3.5648854,-0.015267176,1.4885496,5
1015,0.013549805,-0.03149414,0.12194824,-1.9312977,-3.9847329,2.1984732,5
1016,0.02154541,-0.038146973,0.11975098,-1.8091604,-6.4580154,3.29771,5
1017,0.016235352,-0.036743164,0.11791992,7.8625956,-4.259542,2.832061,5
1018,0.012878418,-0.025634766,0.12133789,8.374045,-11.755725,4.3129773,5
1019,0.017211914,-0.021118164,0.11810303,-0.96183205,-11.297709,4.9770994,5
1020,0.012573242,-0.03173828,0.11791992,-3.312977,-13.167939,5.2671757,5
1021,0.018249512,-0.030944824,0.118774414,-10.236641,-4.7557254,0.9389313,5
1022,0.017456055,-0.033935547,0.12158203,-11.725191,1.3664122,-2.3587787,5
1023,0.016845703,-0.03186035,0.123168945,-9.541985,7.0229006,-4.5114503,5
1024,0.016479492,-0.024597168,0.122802734,-19.656488,7.8396945,-6.19084,5
1025,0.015808105,-0.031799316,0.1149292,-19.656488,9.106871,-1.4961832,5
1026,0.015563965,-0.04296875,0.113098145,-23.38168,9.282443,-7.1679387,5
1027,0.013916016,-0.046875,0.11468506,-9.480916,9.129771,-6.5725193,5
1028,0.009643555,-0.04736328,0.116760254,13.854961,5.961832,-7.068702,5
1029,0.009887695,-0.03564453,0.117004395,24.633587,-4.10687,-6.854962,5
1030,0.008666992,-0.026977539,0.113342285,23.595419,-12.709924,0.3053435,5
1031,0.013122559,-0.011230469,0.121276855,3.778626,-14.290076,-0.77862597,5
1032,0.01574707,-0.026306152,0.121398926,-22.137405,-10.709924,15.7786255,5
1033,0.016296387,-0.038269043,0.11828613,-22.67939,-5.5496182,7.6030536,5
1034,0.019592285,-0.03186035,0.11242676,-24.854961,2.7709923,7.40458,5
1035,0.014282227,-0.0524292,0.111083984,-13.480916,-0.9847328,3.351145,5
1036,0.0126953125,-0.04663086,0.11419678,6.5725193,0.78625953,-7.0229006,5
1037,0.012878418,-0.0357666,0.1194458,16.908398,-2.8854961,-4.9083967,5
1038,0.013061523,-0.026672363,0.119140625,10.732824,-3.832061,-5.076336,5
1039,0.0126953125,-0.027282715,0.120910645,-3.6946564,-4.2442746,0.90076333,5
1040,0.013793945,-0.0345459,0.121154785,-7.8625956,-4.0076337,1.8167939,5
1041,0.015136719,-0.035705566,0.11706543,-9.022901,-1.6946565,4.80916,5
1042,0.016418457,-0.034851074,0.119384766,-8.21374,-2.076336,2.7480917,5
1043,0.013793945,-0.042297363,0.11767578,-1.8167939,-1.4351145,2.7328243,5
1044,0.013671875,-0.041870117,0.12054443,5,1.167939,3.6717558,5
1045,0.016845703,-0.016601562,0.11975098,0.2977099,3.7175572,0.97709924,5
1046,0.013671875,-0.03717041,0.116760254,-10.175572,0.21374045,10.694656,5
1047,0.0067749023,-0.040527344,0.11773682,-2.8549619,-1.5801526,1.0152671,5
1048,0.010681152,-0.034362793,0.117004395,0.48091602,-4.6106873,3.3053436,5
1049,0.012023926,-0.034729004,0.119628906,-2.335878,-5.8778625,-0.8167939,5
1050,0.013549805,-0.03656006,0.11663818,-1.6183206,-2.442748,1.9847329,5
1051,0.012634277,-0.033203125,0.119384766,-1,-2.9007633,-1.480916,5
1052,0.014831543,-0.036376953,0.11682129,-3.740458,-4.374046,3.6183207,5
1053,0.012329102,-0.038208008,0.11743164,-0.48091602,-4.6564884,-0.57251906,5
1054,0.013244629,-0.032714844,0.11785889,1.9694656,-3.816794,-1.29771,5
1055,0.010803223,-0.041809082,0.1182251,4.0839696,-2.5801528,2.8549619,5
1056,0.014709473,-0.027893066,0.119140625,-0.15267175,-3.9770992,-0.97709924,5
1057,0.011047363,-0.032165527,0.118896484,-7.3587785,-0.091603056,2.259542,5
1058,0.013305664,-0.0368042,0.11834717,-9.152672,-3.1450381,2.0076337,5
1059,0.013244629,-0.03704834,0.116760254,-4.625954,-2.129771,0.6259542,5
1060,0.016052246,-0.03173828,0.1182251,-5.3053436,-1.7480916,3.778626,5
1061,0.009887695,-0.03503418,0.11779785,-4.6412215,-1.648855,2.6259542,5
1062,0.0015869141,-0.03967285,0.12249756,2.870229,-3.6183207,1.3664122,5
1063,0.013000488,-0.036315918,0.117248535,7.1297708,-5.625954,2.5419848,5
1064,0.011413574,-0.03387451,0.11651611,3.946565,-5.183206,0.55725193,5
1065,0.0063476562,-0.031982422,0.11767578,-1.0839695,-4.3511453,1.4961832,5
1066,0.012023926,-0.035949707,0.122802734,-4.038168,-2.1374047,-0.14503817,5
1067,0.011779785,-0.03845215,0.121520996,-6.6793895,-3.8473282,0.53435117,5
1068,0.013305664,-0.033813477,0.114868164,-13.687023,-2.7633588,4.4732823,5
1069,0.010620117,-0.032104492,0.113342285,-5.442748,-9.030535,1.1068702,5
1070,0.010131836,-0.030273438,0.115722656,1.2366412,-9.030535,1.8549619,5
1071,0.006713867,-0.03479004,0.12182617,3.832061,-5.1374044,1.8473282,5
1072,0.007080078,-0.029663086,0.11462402,4.0610685,-6.2442746,0.41984734,5
1073,-0.0029907227,-0.035339355,0.11920166,2.6564887,-3.3664122,1.5572519,5
1074,0.0078125,-0.033325195,0.11871338,0.86259544,-2.465649,-2.8244274,5
1075,0.014221191,-0.028625488,0.12005615,-4.1603055,0.5038168,-0.122137405,5
1076,0.009216309,-0.032348633,0.1171875,-8.984733,-1.7251909,1.6641221,5
1077,0.008483887,-0.036071777,0.117492676,-8.755725,-2.0992367,2.2900763,5
1078,0.005859375,-0.037353516,0.12011719,-7.4351144,-2.0305343,3.2366412,5
1079,0.009338379,-0.03265381,0.11798096,-3.0839694,-0.27480915,1.4961832,5
1080,0.0154418945,-0.034179688,0.11505127,0.14503817,-1.0687023,1.4427481,5
1081,0.010131836,-0.036315918,0.1159668,5.931298,-0.70229006,0.519084,5
1082,0.009765625,-0.032470703,0.11651611,6.7099237,-1.9923664,-1.610687,5
1083,0.010803223,-0.028015137,0.11791992,-0.55725193,-2.778626,1.7862595,5
1084,0.0032348633,-0.03857422,0.11212158,4.923664,-11.40458,1.740458,5
1085,0.011047363,-0.023986816,0.114868164,3.6564887,-9.305344,-2.4961832,5
1086,0.018249512,-0.03387451,0.11291504,-1.2061069,-10.374045,4.9083967,5
1087,0.008239746,-0.03277588,0.117614746,-3.1603053,-13.335877,0.7099237,5
1088,0.014343262,-0.031066895,0.11932373,0.35114503,-15.908397,4.4885497,5
1089,0.015075684,-0.031555176,0.11529541,8.603053,-19.229008,-0.045801528,5
1090,0.016784668,-0.026428223,0.118774414,9.374045,-19.38168,2.5038168,5
1091,0.020324707,-0.022766113,0.11981201,1.0992366,-15.679389,2.778626,5
1092,0.018432617,-0.026855469,0.11883545,-9.007633,-6.068702,4.6183205,5
1093,0.017700195,-0.026977539,0.117126465,-17.57252,3.3206108,5.3511453,5
1094,0.016540527,-0.034729004,0.115112305,-16.450382,11.40458,3.923664,5
1095,0.014465332,-0.032043457,0.11706543,-13.7404585,14.916031,5.816794,5
1096,0.013366699,-0.043823242,0.11022949,-9.664123,3.3816793,2.9847329,5
1097,0.010864258,-0.03894043,0.113464355,10.21374,-6.183206,-2.8549619,5
1098,0.01776123,-0.023620605,0.1159668,7.1755724,-3.4503818,-2.6793892,5
1099,0.012634277,-0.040405273,0.11584473,6.5038166,-3.29771,1.9312977,5
1100,0.012878418,-0.033447266,0.121032715,7.8015265,-5.8702292,3.7633588,5
1101,0.013122559,-0.018127441,0.12432861,0.8854962,2.5801528,10.106871,5
1102,0.019104004,-0.014587402,0.11682129,-19.305344,7.70229,7.8320613,5
1103,0.018249512,-0.03881836,0.11352539,-33.129772,6.152672,18.717558,5
1104,0.005859375,-0.049743652,0.11254883,-13.702291,1.832061,5.8244276,5
1105,0.008117676,-0.03387451,0.11242676,1.351145,-3.4580152,2.664122,5
1106,0.00970459,-0.03338623,0.11810303,6,-6.3435116,-0.90839696,5
1107,0.0067749023,-0.03704834,0.11401367,9.0992365,-6.0076337,-6.076336,5
1108,0.009033203,-0.031921387,0.12506104,5.8625956,-9.129771,-11.916031,5
1109,0.014587402,-0.030456543,0.119140625,0.1908397,-4.9389315,-9.549619,5
1110,0.018371582,-0.04876709,0.12145996,4.5496182,0.3740458,-4.2519083,5
1111,0.015686035,-0.028808594,0.11999512,13.717557,-2.335878,-4.1374044,5
1112,0.018249512,-0.009216309,0.11871338,-0.99236643,-2.9847329,3.8091602,5
1113,0.013977051,-0.02923584,0.12310791,-25.519083,-0.70229006,18.717558,5
1114,0.0099487305,-0.036499023,0.11425781,-19.091602,-3.7709923,12.38168,5
1115,0.012451172,-0.039367676,0.11273193,-8.236641,-4.9847326,11.183207,5
1116,0.006958008,-0.03491211,0.11602783,3.1603053,-3.7328243,-0.15267175,5
1117,0.014770508,-0.033569336,0.11541748,5.10687,-3.1374047,2.1755726,5
1118,0.016723633,-0.03778076,0.118652344,7.80916,-3.0076337,-4.152672,5
1119,0.003540039,-0.031188965,0.11932373,9.068703,-7.5496182,-0.06870229,5
1120,0.01184082,-0.02947998,0.11932373,-1.610687,-5.7099237,-2.221374,5
1121,0.01739502,-0.029907227,0.119628906,-1.8549619,-5.4503818,5.4732823,5
1122,0.012084961,-0.034729004,0.114868164,-3.2366412,-5.4580154,4.816794,5
1123,0.013000488,-0.03753662,0.11651611,6.0152674,-6.9465647,6.4656487,5
1124,0.013244629,-0.02709961,0.115356445,4.6870227,-8.206107,4.8625956,5
1125,0.014465332,-0.030334473,0.123413086,-3.687023,-4.5114503,8.671756,5
1126,0.013793945,-0.03375244,0.11663818,-8.78626,-3.2519083,6.7251906,5
1127,0.011108398,-0.036499023,0.11791992,-1.0763359,-4.2290077,-0.4351145,5
1128,0.01776123,-0.02722168,0.12060547,-0.21374045,-6.328244,-0.90839696,5
1129,0.018676758,-0.0335083,0.117614746,-15.389313,-5.0305343,-1.9312977,5
1130,0.012817383,-0.042785645,0.11663818,-10.664123,0.22900763,-6.557252,5
1131,0.014343262,-0.0513916,0.11230469,6.6946564,-2.1221373,2.2290077,5
1132,0.014221191,-0.028198242,0.1217041,10.167939,-4.923664,-9.442748,5
1133,0.013671875,-0.030883789,0.121032715,3.8854961,-3.351145,9.679389,5
1134,0.014343262,-0.036865234,0.11871338,0.3740458,-5.40458,3.4198472,5
1135,0.01184082,-0.035705566,0.11883545,13.534351,-7.0534353,2.7480917,5
1136,0.014404297,-0.024353027,0.11853027,2.1984732,-5.7709923,5.9694657,5
1137,0.010986328,-0.032104492,0.11682129,-5.5419846,-3.5267177,4.2442746,5
1138,0.015625,-0.0390625,0.11669922,-4.5648856,-2.832061,4.335878,5
1139,0.012939453,-0.032409668,0.118896484,0.67175573,-5.480916,-2.572519,5
1140,0.01574707,-0.027954102,0.11932373,-1.4961832,-5.480916,1.5419847,5
1141,0.013061523,-0.0335083,0.1182251,-8.045801,-3.6335878,3.038168,5
1142,0.013305664,-0.036132812,0.11578369,-6.2061067,-2.8549619,0.9694657,5
1143,0.013427734,-0.034484863,0.119140625,-5.145038,-0.38931298,-4.1984735,5
1144,0.012756348,-0.034301758,0.11968994,-7.0229006,0.7633588,-3.70229,5
1145,0.013671875,-0.04699707,0.11383057,0.5038168,2.4122138,-1.2366412,5
1146,0.012512207,-0.031921387,0.12249756,14.389313,-4.5496182,-6.9694657,5
1147,0.009094238,-0.024963379,0.119140625,9.549619,-7.2824426,4.4885497,5
1148,0.013305664,-0.023742676,0.119018555,-2.2519083,-9.045801,5.1374044,5
1149,0.014160156,-0.034423828,0.11846924,-8.938931,-4.335878,12.923664,5
1150,0.014892578,-0.037231445,0.117614746,-4.89313,-7.0839696,5.1297708,5
1151,0.012084961,-0.03643799,0.11651611,1.7175573,-4.9083967,0.3740458,5
1152,0.012878418,-0.038085938,0.115600586,7.519084,-3.7099237,2.2442749,5
1153,0.015075684,-0.024963379,0.12054443,-0.03816794,-5.519084,-1,5
1154,0.0146484375,-0.030334473,0.121154785,-7.9389315,-3.091603,2.3740458,5
1155,0.01361084,-0.035461426,0.1159668,-13.351145,-0.4427481,0.3740458,5
1156,0.012756348,-0.033935547,0.11254883,-12.80916,1.4274809,-7.2061067,5
1157,0.015258789,-0.036987305,0.11798096,-12.21374,5.7938933,-3.8244274,5
1158,0.013366699,-0.03363037,0.117004395,-10.9007635,8.534351,-9.183207,5
1159,0.012390137,-0.034973145,0.11791992,-12.755725,7.3893127,-4.4503818,5
1160,0.011962891,-0.03527832,0.11785889,-10.916031,2.4351146,-7.59542,5
1161,0.010681152,-0.04296875,0.11651611,-6.633588,1.9160305,-4.7557254,5
1162,0.008483887,-0.051574707,0.11663818,14.076336,-1.1832061,-1.6564885,5
1163,0.011352539,-0.025146484,0.121398926,18.923664,-4.0992365,-8.374045,5
1164,0.015258789,-0.021972656,0.11846924,-2.2137403,-5.076336,4.8625956,5
1165,0.010925293,-0.038269043,0.11627197,-13.7786255,-5.0229006,5.7251906,5
1166,0.013244629,-0.038879395,0.117248535,-8.251908,-5.557252,3.648855,5
1167,0.014038086,-0.036193848,0.11730957,-6.9770994,-3.312977,3.7557251,5
1168,0.0028686523,-0.03881836,0.11505127,-6.6564884,-2.816794,3.4351146,5
1169,0.0154418945,-0.030578613,0.11383057,-1.7099236,-3.1450381,-1.7328244,5
1170,0.01171875,-0.02923584,0.119628906,-6.587786,-2.7633588,-3.4961832,5
1171,0.009399414,-0.044128418,0.11981201,-4.068702,0.7480916,-0.32061067,5
1172,0.014770508,-0.030456543,0.117248535,-3.664122,-0.10687023,-6.145038,5
1173,0.014343262,-0.033203125,0.1182251,-13.931297,1.2824427,-0.9389313,5
1174,0.004272461,-0.039367676,0.1138916,-4.1679387,-0.7251908,0.90839696,5
1175,0.009277344,-0.038879395,0.119628906,4.3816795,-2.6946564,-2.4961832,5
1176,0.0052490234,-0.037719727,0.11480713,16.625954,-7.89313,1.8854961,5
1177,0.006652832,-0.027038574,0.123535156,15.7786255,-9.603053,1.5648855,5
1178,0.012329102,-0.026550293,0.119506836,-2.2519083,-7.6412215,10.725191,5
1179,0.008728027,-0.02709961,0.120910645,-11.053435,-5.1374044,8,5
1180,0.026794434,-0.022338867,0.115600586,-23.694656,-0.053435113,6.6793895,5
1181,0.0033569336,-0.04925537,0.11645508,-15.832061,-2.7175572,1.5801526,5
1182,0.003967285,-0.035827637,0.11352539,-4.5419846,0.67175573,-11.549619,5
1183,0.0134887695,-0.0368042,0.11468506,-4.6412215,3.557252,-0.7480916,5
1184,0.0004272461,-0.035583496,0.11602783,3.4885497,0.13740458,-3.1603053,5
1185,0.01751709,-0.031311035,0.11517334,1.1221374,-1.5877863,0.08396947,5
1186,0.003112793,-0.039245605,0.11633301,-6.8625956,-3.183206,5.931298,5
1187,0.011291504,-0.03930664,0.1204834,-3.946565,-1.6335878,2.6946564,5
1188,0.008605957,-0.03302002,0.12176514,-5.9541984,-4.328244,2.0610688,5
1189,0.0126953125,-0.030151367,0.11621094,-6.4885497,-5.9923663,6.8396945,5
1190,0.010375977,-0.037475586,0.11437988,0.23664123,-2.40458,-1.8854961,5
1191,0.018066406,-0.02545166,0.11541748,3.534351,-1.4580153,-5.9389315,5
1192,0.005126953,-0.031799316,0.114868164,0.10687023,-2.778626,0.2977099,5
1193,0.013122559,-0.026428223,0.11248779,15.610687,-4.5419846,4.847328,5
1194,0.008728027,-0.030639648,0.11529541,-11.083969,-6.19084,-0.7251908,5
1195,0.0041503906,-0.048339844,0.11236572,2.335878,2.1221373,12.664123,5
1196,0.009399414,-0.03552246,0.11462402,19.755726,-3.3664122,-7.625954,5
1197,0.015563965,-0.027160645,0.119018555,22.206106,-0.6946565,-2.519084,5
1198,0.010253906,-0.02154541,0.12243652,2.2366412,-5.5114503,1.3816794,5
1199,0.0067749023,-0.028686523,0.118652344,-14.40458,-3.870229,5.923664,5
1200,0.009460449,-0.03253174,0.11621094,-24.610687,-2.610687,8.160305,5
1201,0.009765625,-0.044006348,0.1159668,-10.885496,-3.610687,6.740458,5
1202,0.014953613,-0.047790527,0.1138916,9.4198475,-1.648855,-6.8396945,5
1203,0.02178955,-0.02532959,0.11541748,11.503817,-4,-2.038168,5
1204,0.015930176,-0.026062012,0.11541748,6.5038166,-3.480916,1.4122137,5
1205,0.017578125,-0.02935791,0.12017822,2.3435113,-4.8244276,2.9694657,5
1206,0.016967773,-0.030212402,0.119628906,4.0152674,-4.4503818,1.8015267,5
1207,0.014099121,-0.029785156,0.11968994,-0.22900763,-3.0610688,4.0305343,5
1208,0.014526367,-0.023742676,0.12121582,-4.3129773,-2.6412213,-0.77099234,5
1209,0.0075683594,-0.035827637,0.11785889,-8.664123,-1.5725191,4.40458,5
1210,0.013793945,-0.026245117,0.11853027,-7.0839696,-1.4961832,-0.38931298,5
1211,0.011108398,-0.033569336,0.12219238,-3.1908398,-3.1908398,3.519084,5
1212,0.01739502,-0.023498535,0.119384766,-3.221374,-2.0229008,2.2366412,5
1213,0.011352539,-0.035217285,0.1182251,-9.4198475,-0.20610687,6.625954,5
1214,0.010803223,-0.034057617,0.11755371,-4.29771,-1.6717557,2.3282442,5
1215,0.003112793,-0.03741455,0.11730957,0.9389313,-3.038168,4.587786,5
1216,0.0107421875,-0.027832031,0.114868164,1.1374046,-2.3053436,-2.1908398,5
1217,0.010498047,-0.034851074,0.11566162,0.03816794,-2.9541984,0.13740458,5
1218,0.008483887,-0.02960205,0.11047363,2.7709923,-6.885496,-3.9007633,5
1219,0.010253906,-0.026367188,0.11328125,-1.3358779,-6.2748094,-0.70229006,5
1220,0.01184082,-0.028442383,0.11694336,-4.9160304,-7.8320613,-0.5801527,5
1221,0.011230469,-0.0390625,0.111694336,-8.488549,-11.068703,-2.740458,5
1222,0.007873535,-0.037475586,0.115356445,3.1755726,-13.7786255,-4.931298,5
1223,0.0134887695,-0.037353516,0.11871338,10.534351,-15.312977,1.038168,5
1224,0.017089844,-0.026977539,0.12072754,15.351145,-19.595419,-1.7557251,5
1225,0.016540527,-0.026794434,0.12121582,4.40458,-18.480917,4.9083967,5
1226,0.014282227,-0.028198242,0.11981201,-7.6183205,-8.175572,8.7786255,5
1227,0.018310547,-0.030212402,0.12176514,-11.358779,-2.129771,7.8625956,5
1228,0.020263672,-0.02960205,0.11767578,-10.587787,2.2748091,8.396947,5
1229,0.016479492,-0.034973145,0.11682129,-13.839695,0.5954198,6.5267177,5
1230,0.017456055,-0.03540039,0.1194458,-14.732824,3.6183207,3.832061,5
1231,0.013305664,-0.035217285,0.115600586,-4.7862597,1.4580153,0.8244275,5
1232,0.010986328,-0.03918457,0.11553955,-2.259542,-2.687023,-5.152672,5
1233,0.0154418945,-0.033447266,0.11584473,-3.1984732,1.0229008,-6.1603055,5
1234,0.01776123,-0.035888672,0.115356445,-3.793893,-0.27480915,-9.496183,5
1235,0.012573242,-0.041381836,0.111328125,6.480916,0.053435113,-8.19084,5
1236,0.007385254,-0.030395508,0.11785889,10.396947,-3.2366412,-11.015267,5
1237,0.013427734,-0.033447266,0.11590576,-4.7938933,-3.3282442,0.19847329,5
1238,0.012207031,-0.033691406,0.12072754,1.4732825,-4.0229006,-2.6335878,5
1239,0.01727295,-0.029174805,0.11804199,-1.5877863,-2.9770992,7.5648856,5
1240,0.016479492,-0.036010742,0.12060547,-9.045801,-2.0305343,9.312977,5
1241,0.013366699,-0.04058838,0.118896484,-5.1984735,-0.8854962,13.984733,5
1242,0.013977051,-0.037109375,0.11773682,3.4885497,-0.06870229,9.603053,5
1243,0.011291504,-0.027709961,0.115722656,-3.946565,-0.18320611,8.435115,5
1244,0.010070801,-0.039367676,0.115478516,-6.6412215,-4.519084,2.1526718,5
1245,0.011047363,-0.03289795,0.11633301,1.2748091,-6.5343513,-5.740458,5
1246,0.012512207,-0.034240723,0.11767578,-4.328244,-7.442748,-2.1526718,5
1247,0.013916016,-0.036071777,0.11755371,-8.267176,-11.374045,-6.9083967,5
1248,0.013183594,-0.044555664,0.11468506,-0.8167939,-11.129771,0.35114503,5
1249,0.018798828,-0.02557373,0.119018555,6.259542,-8.992367,-5.4198475,5
1250,0.018066406,-0.0289917,0.115478516,-5.0839696,-5.1374044,8.022901,5
1251,0.016540527,-0.03375244,0.11706543,-14.129771,-3.6564887,4.5725193,5
1252,0.014404297,-0.041748047,0.11608887,-11.358779,1.0534351,5.374046,5
1253,0.015625,-0.040405273,0.1161499,-3.4961832,2.7251909,1.3129771,5
1254,0.01171875,-0.03326416,0.11602783,-2.908397,6.2290077,-1.6870229,5
1255,0.013061523,-0.04071045,0.117248535,0.6946565,6.0152674,-0.4427481,5
1256,0.0119018555,-0.03466797,0.11505127,6.3587785,-2.167939,-2.6717558,5
1257,0.012756348,-0.03503418,0.11834717,1.9007634,-5.7709923,4.6030536,5
1258,0.011413574,-0.033325195,0.11694336,-0.6259542,-9.587787,4.0152674,5
1259,0.013916016,-0.04034424,0.11254883,2.5801528,-10.641221,8.152672,5
1260,0.016113281,-0.02960205,0.119018555,-4,-8.885496,1.8015267,5
1261,0.014953613,-0.03918457,0.11706543,-9.229008,-3.5267177,4.6488547,5
1262,0.015625,-0.042419434,0.11608887,-2.4198472,-1.870229,1.3435115,5
1263,0.014892578,-0.036071777,0.11816406,2.648855,-1.7251909,-0.06870229,5
1264,0.014770508,-0.029296875,0.11859131,-2.2137403,-2.9160306,1.0839695,5
1265,0.016113281,-0.03729248,0.11773682,-2.183206,-1,4.4732823,5
1266,0.015808105,-0.033935547,0.11413574,-5.664122,1.167939,4.3816795,5
1267,0.015930176,-0.0345459,0.11541748,-7.1603055,4.259542,5.5801525,5
1268,0.013000488,-0.038635254,0.11035156,-9.274809,2.8473282,2.4580152,5
1269,0.010681152,-0.044311523,0.113586426,-8.496183,-0.96183205,2.4503818,5
1270,0.011291504,-0.033996582,0.1159668,3.3664122,-3.4122138,-8.954199,5
1271,0.013916016,-0.028625488,0.11791992,-15.343512,-3.4885497,-6.587786,5
1272,0.0119018555,-0.05041504,0.11755371,-13.687023,-3.9770992,-13.7404585,5
1273,0.013427734,-0.04498291,0.11529541,6.8320613,-3.664122,-17.175573,5
1274,0.015625,-0.043273926,0.11383057,17.839695,-3.6183207,-6.4961834,5
1275,0.016662598,-0.02154541,0.119628906,11.664123,-8.9007635,-4.7557254,5
1276,0.015258789,-0.037841797,0.11853027,-4.4885497,-6,10.916031,5
1277,0.015258789,-0.03466797,0.11651611,-6.587786,-0.9847328,14.229008,5
1278,0.018005371,-0.030639648,0.11639404,-10.038168,4.1755724,15.458015,5
1279,0.015930176,-0.034423828,0.116760254,-14.290076,4.0305343,13.946565,5
1280,0.0010375977,-0.039916992,0.11480713,-14.671756,3.793893,4.9847326,5
1281,0.011169434,-0.048461914,0.117004395,-3.7099237,0.32061067,-3.442748,5
1282,0.0178833,-0.032958984,0.118774414,8.236641,-6.9770994,-14.328244,5
1283,0.005004883,-0.032836914,0.115722656,4.328244,-9.251908,-8.862596,5
1284,0.0057373047,-0.0335083,0.11566162,2.1145039,-10.328244,-9.916031,5
1285,0.0056152344,-0.042236328,0.11248779,0.35114503,-8.709924,-3.9312978,5
1286,0.015014648,-0.039245605,0.11419678,-1.2900764,-1.961832,3.167939,5
1287,0.012145996,-0.03503418,0.11895752,-6.2366414,-1.5114504,5.519084,5
1288,0.004333496,-0.041870117,0.119384766,-0.6946565,-1.0534351,8.129771,5
1289,0.008300781,-0.028442383,0.11639404,-3.664122,8.732824,8.40458,5
1290,0.01586914,-0.025878906,0.118652344,-20.473282,6.5267177,9.488549,5
1291,0.01361084,-0.04827881,0.11706543,-12.206107,1.0458015,5.40458,5
1292,0.008117676,-0.040649414,0.1138916,11.068703,-7.5648856,-3.0458016,5
1293,0.011779785,-0.0289917,0.1171875,10.938931,-11.847328,-2.9923663,5
1294,0.011291504,-0.026489258,0.117614746,1.0763359,-13.732824,-0.5801527,5
1295,0.018615723,-0.038513184,0.11431885,-10.603053,-13.954199,0.77099234,5
1296,0.004699707,-0.03894043,0.1161499,-9.549619,-13.167939,-1.9236641,5
1297,0.0075683594,-0.039855957,0.11114502,-4.6793895,-5.374046,-1.5801526,5
1298,0.015625,-0.04296875,0.11645508,4.8702292,1.3206106,-0.8167939,5
1299,0.016967773,-0.03527832,0.1194458,7.19084,2.832061,4.885496,5
1300,0.01184082,-0.025878906,0.11639404,-5.7251906,10.068703,10,5
1301,0.010192871,-0.030029297,0.11791992,-13.4198475,17.923664,18.854961,5
1302,0.0154418945,-0.031921387,0.1104126,-25.946566,8.625955,11.824428,5
1303,0.0010375977,-0.045959473,0.108947754,-10.885496,-6.6793895,12.534351,5
1304,0.0020751953,-0.05255127,0.10772705,14.603053,-8.534351,0.90076333,5
1305,0.0025024414,-0.034606934,0.116882324,21.328245,-10.854961,-8.358779,5
1306,0.0099487305,-0.023620605,0.115356445,10.671756,-9.007633,-6,5
1307,0.00970459,-0.02923584,0.11999512,-9.40458,-12.603053,-9.320611,5
1308,0.0064086914,-0.0435791,0.11425781,-10.847328,-10.801527,-6.6870227,5
1309,0.0178833,-0.041015625,0.11462402,-0.7480916,-0.34351146,-8.854961,5
1310,0.0115356445,-0.041503906,0.119384766,10.801527,4.9770994,1.6259542,5
1311,0.0146484375,-0.029724121,0.11932373,7.6183205,3.5801528,2.8244274,5
1312,0.017944336,-0.023742676,0.115234375,-1.3129771,6.152672,13.564885,5
1313,0.012634277,-0.036315918,0.113586426,-6.0992365,4.923664,14.175572,5
1314,0.012023926,-0.022277832,0.11907959,-2.312977,-2.0992367,7.9160304,5
1315,0.0012817383,-0.04248047,0.1138916,-7.961832,-9.488549,10.297709,5
1316,0.000793457,-0.039123535,0.11352539,6.4656487,-13.106871,-5.0458016,5
1317,0.010009766,-0.030273438,0.112976074,2.0687022,-11.022901,-4.335878,5
1318,0.013366699,-0.027404785,0.11383057,-8.114504,-12.633588,-5.6488547,5
1319,0.021240234,-0.03704834,0.11730957,-11.4198475,-14.21374,-4.335878,5
1320,0.018249512,-0.043640137,0.11291504,-6.5725193,-2.9541984,-3.9923663,5
1321,0.018737793,-0.04107666,0.11907959,4.328244,1.4198474,1.0992366,5
1322,0.017822266,-0.03363037,0.11651611,10.587787,6.633588,3.7251909,5
1323,0.012512207,-0.02508545,0.12121582,-2.0458016,12.137404,13.679389,5
1324,0.011230469,-0.028320312,0.111450195,-18.305344,11.389313,13.519084,5
1325,0.0038452148,-0.040283203,0.11016846,-23.732824,5.9083967,5.6030536,5
1326,0.0020751953,-0.04724121,0.11456299,-0.8854962,-4.3053436,0.77862597,5
1327,0.0029907227,-0.03466797,0.11242676,16.076336,-12.465649,-6.557252,5
1328,0.011230469,-0.030334473,0.11376953,0.24427481,-13.549619,-2.40458,5
1329,0.011474609,-0.03942871,0.115356445,-4.5419846,-16.29771,-5.740458,5
1330,0.014404297,-0.039367676,0.11425781,-2.389313,-13.167939,-5.4961834,5
1331,0.015319824,-0.03643799,0.11383057,1.4656489,-6.5267177,-5.816794,5
1332,0.0146484375,-0.037109375,0.12023926,3.1603053,4.10687,2.129771,5
1333,0.012817383,-0.03692627,0.119140625,5.625954,5.8015265,5.1221375,5
1334,0.013061523,-0.021606445,0.11425781,-3.0076337,7.7938933,8.106871,5
1335,0.012878418,-0.03186035,0.1194458,-16.603054,11.984733,11.335877,5
1336,0.009155273,-0.041015625,0.11590576,-12.625955,5.4732823,6.9847326,5
1337,0.0064697266,-0.043762207,0.11505127,-2.816794,-3.8854961,3.5496182,5
1338,0.010559082,-0.04547119,0.11352539,9.106871,-9.9007635,-1.9160305,5
1339,0.00970459,-0.034606934,0.11425781,10.412213,-10.847328,-4.4580154,5
1340,0.010620117,-0.036987305,0.11639404,8.167939,-8.969465,-2.2137403,5
1341,0.013549805,-0.033447266,0.116760254,6.1679387,-8.465649,-1.8473282,5
1342,0.015563965,-0.02960205,0.115356445,-1.038168,-1.5572519,-0.7557252,5
1343,0.014465332,-0.032836914,0.11730957,-10.862596,0,3.519084,5
1344,0.012939453,-0.035461426,0.12084961,-10.725191,6.6183205,5.6793895,5
1345,0.013061523,-0.027770996,0.11639404,-13.877863,6.5114503,5.442748,5
1346,0.009521484,-0.041870117,0.11212158,-22.526718,5.6183205,10.160305,5
1347,0.009765625,-0.04736328,0.11016846,-9.129771,3.6793892,1.6259542,5
1348,0.00982666,-0.042236328,0.1149292,0.66412216,0.39694658,1.7328244,5
1349,0.008056641,-0.04876709,0.11315918,15.717557,-0.20610687,2.4885497,5
1350,0.005065918,-0.0357666,0.11608887,25.709923,-5.6793895,-3.5114503,5
1351,0.010375977,-0.032043457,0.117370605,21.38168,-9.160305,0.58778626,5
1352,0.007446289,-0.0256958,0.114868164,8.297709,-14.2595415,-1.9770992,5
1353,0.008056641,-0.031921387,0.11920166,-7.0229006,-12.816793,3.8396947,5
1354,0.013122559,-0.034057617,0.11853027,-15.0992365,-14.694656,2.0229008,5
1355,0.014770508,-0.03765869,0.117614746,-14.519084,-7.9541984,4.7175574,5
1356,0.01977539,-0.03857422,0.119384766,-13.541985,0.6793893,1.7480916,5
1357,0.015258789,-0.04119873,0.117004395,-9.541985,5.7099237,5.183206,5
1358,0.014831543,-0.0357666,0.11853027,-7.480916,9.450381,4.4885497,5
1359,0.0119018555,-0.037719727,0.1159668,-9.145039,7.6106873,2.9923663,5
1360,0.0068359375,-0.047851562,0.11175537,-2.1526718,5.9541984,1.648855,5
1361,0.00579834,-0.041259766,0.112976074,18.122137,-2.59542,-2.9389312,5
1362,0.0073242188,-0.03161621,0.11437988,18,-12.305344,-5.10687,5
1363,0.012634277,-0.026000977,0.117248535,-1.2824427,-10.984733,0.6870229,5
1364,0.010681152,-0.034240723,0.118774414,-12.396947,-8.679389,4.923664,5
1365,0.0138549805,-0.04034424,0.114990234,-10.954199,-6.221374,3.5877862,5
1366,0.013671875,-0.043151855,0.11437988,-5.2671757,-3.8549619,3.4198472,5
1367,0.016113281,-0.03765869,0.1159668,-1.3206106,1.5419847,0.77099234,5
1368,0.008056641,-0.04534912,0.11743164,12.351145,-3.3664122,0.015267176,5
1369,0.011474609,-0.016418457,0.11859131,-0.6259542,-5.3129773,-6.5114503,5
1370,0.0067749023,-0.04260254,0.112976074,-5.854962,-6.114504,3.7633588,5
1371,0.011413574,-0.036071777,0.11419678,-1.5725191,-7.816794,-7.5419846,5
1372,0.011474609,-0.03857422,0.11413574,-1.648855,-8.0992365,1.4503816,5
1373,0.015380859,-0.039245605,0.11468506,0.70229006,-9.732824,-2.442748,5
1374,0.014831543,-0.0390625,0.11639404,7.671756,-9.175572,0.64122134,5
1375,0.01751709,-0.032043457,0.11584473,5.5496182,-2.6030533,3.3053436,5
1376,0.014526367,-0.030029297,0.117614746,-2.0152671,0.90839696,4.7709923,5
1377,0.013305664,-0.036987305,0.11541748,-5.4351144,3.6335878,9.80916,5
1378,0.010498047,-0.039367676,0.11541748,-4.40458,2.6259542,5.2061067,5
1379,0.012145996,-0.031188965,0.11791992,-1.0305344,0.35114503,3.9847329,5
1380,0.0115356445,-0.025939941,0.11212158,-1.8931298,-4.633588,2.442748,5
1381,0.018310547,-0.03253174,0.1217041,7.5114503,-12.9007635,-6.076336,5
1382,0.00579834,-0.03125,0.11456299,3.0839694,-9.19084,1.2366412,5
1383,0.014465332,-0.034484863,0.11413574,-5.4580154,-6.374046,-0.740458,5
1384,0.0076904297,-0.030700684,0.118652344,-5.1755724,-7.2519083,-2.2519083,5
1385,0.0146484375,-0.032165527,0.11651611,-7.0610685,-5.6183205,-2.4351146,5
1386,0.008972168,-0.022949219,0.11779785,-23.76336,-3.9007633,0.4427481,5
1387,0.014221191,-0.02935791,0.116882324,-42.17557,-2.2366412,3.8015268,5
1388,0.016662598,-0.040161133,0.11895752,-40.85496,1.2824427,8.175572,5
1389,0.0126953125,-0.045898438,0.11413574,-43.076336,7.3969464,11.770992,5
1390,0.013366699,-0.051940918,0.11029053,-33.625954,10.641221,9.251908,5
1391,0.012023926,-0.062194824,0.10839844,-10.160305,9.358779,5.519084,5
1392,0.00592041,-0.055908203,0.105285645,17.229008,0.39694658,-3.7633588,5
1393,-0.0061035156,-0.044799805,0.107910156,28.87023,-5.328244,-10.38168,5
1394,0.009460449,-0.042053223,0.11828613,26.656488,-1.8091604,1.7938931,5
1395,0.013122559,-0.024597168,0.11175537,21.839695,-1.2824427,4.29771,5
1396,0.014160156,-0.03479004,0.11230469,14.870229,-4.9007635,18.664122,5
1397,0.002380371,-0.027038574,0.12097168,1.480916,-6.0916033,7.1984735,5
1398,0.011413574,-0.04058838,0.10601807,-26.496183,-8.503817,18.557251,5
1399,-0.005432129,-0.06506348,0.10675049,14.358779,2.1908398,11.076336,5
1400,-0.0024414062,-0.03338623,0.11401367,31.458015,-1.3587786,-26.198473,5
1401,0.01184082,-0.021118164,0.11303711,14.137404,-0.10687023,-2.9541984,5
1402,0.0031738281,-0.04248047,0.11206055,4.221374,-0.34351146,1.4274809,5
1403,0.010864258,-0.03930664,0.1184082,4.7251906,-11.488549,-12.160305,5
1404,0.0032958984,-0.044799805,0.119262695,13.137404,-12.755725,-0.23664123,5
1405,0.01550293,-0.027160645,0.11187744,20.167938,-2.9007633,-3.1526718,5
1406,0.016174316,-0.018859863,0.12084961,15.641221,1.1526718,2.0610688,5
1407,0.012939453,-0.029724121,0.11401367,-5.923664,2.2137403,-2.4503818,5
1408,0.0044555664,-0.0435791,0.1138916,6.6946564,-0.28244275,-0.022900764,5
1409,0.0004272461,-0.047668457,0.112854004,36.564884,-3.6183207,-4.7251906,5
1410,0.0095825195,-0.014709473,0.121276855,35.068703,-8.641221,-13.0992365,5
1411,0.003540039,-0.024230957,0.12060547,10.083969,-8.938931,9.061069,5
1412,0.018798828,-0.02935791,0.117248535,3.7480917,-7.4274807,3.0839694,5
1413,0.018005371,-0.028747559,0.119506836,6.4351144,-8.083969,9.305344,5
1414,-0.0004882813,-0.029418945,0.120666504,-0.9465649,-7.5267177,8.61832,5
1415,0.008605957,-0.033935547,0.12084961,1.3740458,-6.80916,11.396947,5
1416,0.016174316,-0.03100586,0.11090088,13.984733,-8.152672,6.5267177,5
1417,0.008056641,-0.03277588,0.12780762,36.282444,-10.557252,4.0152674,5
1418,0.0115356445,-0.020019531,0.1171875,34.687023,-13.076336,0.32824427,5
1419,0.013671875,-0.020690918,0.12359619,20.328245,-7.7633586,10.954199,5
1420,0.02142334,-0.024841309,0.12005615,11.893129,-6.9770994,11.908397,5
1421,0.008544922,-0.022399902,0.12072754,14.503817,-6.5114503,9.274809,5
1422,0.0056762695,-0.01965332,0.12176514,14.59542,-6.9465647,8.587787,5
1423,0.013061523,-0.0134887695,0.12200928,14.465649,-5.5496182,9.793893,5
1424,0.010070801,-0.012207031,0.12145996,3.5877862,-0.78625953,7.7251906,5
1425,0.021606445,-0.016540527,0.12237549,-2.908397,-1.4122137,6.5267177,5
1426,0.00390625,-0.028930664,0.118774414,4.9465647,-5.9160304,3.572519,5
1427,0.008911133,-0.02331543,0.121032715,15.877863,-7.3816795,0.6793893,5
1428,0.014587402,-0.0056762695,0.12133789,9.625955,-9.847328,-2.8778627,5
1429,0.012451172,-0.006713867,0.11975098,-4.366412,-9.564885,5.70229,5
1430,0.015319824,-0.016296387,0.12322998,-7.923664,-7.9694657,-2.1603053,5
1431,0.021240234,-0.021484375,0.117492676,-4.7557254,-3.4885497,0.5496183,5
1432,0.020751953,-0.016723633,0.121520996,-1.7938931,1.778626,-0.66412216,5
1433,0.012573242,-0.020141602,0.11767578,12.877863,-3.091603,4.2061067,5
1434,0.015808105,-0.0040283203,0.12207031,2.832061,-9.38168,3.8854961,5
1435,0.018615723,-0.008850098,0.123046875,-14.015267,-2.5648854,8.045801,5
1436,0.016418457,-0.016418457,0.121154785,-14.732824,-1.8778626,9.61832,5
1437,0.013977051,-0.017700195,0.12231445,-10.076336,-5.068702,-0.6335878,5
1438,0.013977051,-0.019042969,0.11791992,-9.412213,-2.4885497,0.5038168,5
1439,0.014099121,-0.020751953,0.12237549,-6.1755724,0.259542,-2.5496182,5
1440,0.012329102,-0.025634766,0.118652344,3.7251909,-2.7633588,-0.27480915,5
1441,0.015136719,-0.013549805,0.11987305,12.0992365,-3.1755726,-2.9694657,5
1442,0.017333984,-0.0065307617,0.12133789,0.83206105,-4.9770994,5.9160304,5
1443,0.0146484375,-0.017700195,0.12005615,-4.9389315,-3.70229,3.206107,5
1444,0.014953613,-0.019470215,0.12145996,0.9465649,-9.923664,1.6870229,5
1445,0.018737793,-0.013549805,0.122924805,3.0458016,-6.442748,-1.6717557,5
1446,0.017089844,-0.011962891,0.12005615,-2.1526718,-5.2366414,2.8091602,5
1447,0.019836426,-0.010620117,0.12030029,-5.40458,-0.22900763,-0.07633588,5
1448,0.01776123,-0.018188477,0.122802734,-5.145038,3.2519083,2.40458,5
1449,0.012145996,-0.020690918,0.11853027,-0.14503817,-0.26717559,1.610687,5
1450,0.010803223,-0.016479492,0.12060547,7.961832,-12.587787,-1.6641221,5
1451,0.011352539,-0.0146484375,0.119628906,2.389313,-6,2.4198472,5
1452,0.016906738,-0.017150879,0.11920166,2.2671757,-3.7480917,2.923664,5
1453,0.013122559,-0.016845703,0.12536621,4.664122,-5.9770994,1.7328244,5
1454,0.015136719,-0.014709473,0.121520996,-0.030534351,-3.6030533,3.2519083,5
1455,0.017700195,-0.015808105,0.120910645,1.9923664,-5.8625956,0.38931298,5
1456,0.018981934,-0.012878418,0.12182617,3.7709923,-1.778626,0.3740458,5
1457,0.016357422,-0.012451172,0.117248535,5.2137403,-3.3664122,1.6717557,5
1458,0.022033691,-0.011413574,0.12023926,1.3435115,-4.7328243,2.1068702,5
1459,0.01550293,-0.010437012,0.117614746,1.4885496,-5,2.2900763,5
1460,0.016357422,-0.009277344,0.122680664,-1.1145039,-4.1374044,2.519084,5
1461,0.020080566,-0.011413574,0.120910645,-5.2824426,-2.8473282,4.4732823,5
1462,0.015563965,-0.014587402,0.121398926,-6.2900763,-1.9847329,2.9007633,5
1463,0.017028809,-0.0146484375,0.12207031,-4.0610685,-2.7557251,0.740458,5
1464,0.0178833,-0.013244629,0.11663818,-3.3664122,-1.5877863,0.32061067,5
1465,0.015930176,-0.014465332,0.12164307,-0.648855,-0.9541985,0.86259544,5
1466,0.016418457,-0.012634277,0.11785889,0.32061067,-2.1908398,0.46564886,5
1467,0.015319824,-0.012756348,0.12054443,0.66412216,-3.7480917,1.5267175,5
1468,0.017944336,-0.010803223,0.12249756,-2.0229008,-2.2366412,0.7099237,5
1469,0.016357422,-0.012817383,0.1182251,-4.2824426,-0.86259544,2.9694657,5
1470,0.016906738,-0.012390137,0.12036133,-2.8396947,-0.9236641,-0.7633588,5
1471,0.016418457,-0.0126953125,0.11920166,-2.8778627,-1.6335878,2.946565,5
1472,0.01550293,-0.013427734,0.114868164,-1.8778626,-4.5648856,1.259542,5
1473,0.014770508,-0.014831543,0.12060547,0.6259542,-3.9770992,2.167939,5
1474,0.016601562,-0.013793945,0.11785889,1.1145039,-3.1526718,1.740458,5
1475,0.01727295,-0.012390137,0.12023926,3.923664,-7.2366414,1.8473282,5
1476,0.016479492,-0.00970459,0.12060547,3.206107,-4.6793895,2.5038168,5
1477,0.018432617,-0.009277344,0.12158203,-1.0839695,-4.1603055,2.7175572,5
1478,0.016906738,-0.01159668,0.11956787,-9.053435,-0.67175573,5.0305343,5
1479,0.0154418945,-0.0154418945,0.11999512,-9.80916,-1.0076336,2.076336,5
1480,0.016418457,-0.015808105,0.12176514,-7.10687,-5.5038166,2.0839694,5
1481,0.015808105,-0.01574707,0.115112305,-1.2366412,-2.6717558,-1.1984733,5
1482,0.01776123,-0.013793945,0.1159668,1.5877863,-3.8931298,-0.3740458,5
1483,0.016418457,-0.012512207,0.1171875,3.480916,-3.6717558,0.23664123,5
1484,0.016235352,-0.011047363,0.12072754,2.793893,-2.9694657,1.0076336,5
1485,0.016357422,-0.012023926,0.12176514,2.0229008,-3.4503818,0.648855,5
1486,0.019470215,-0.009765625,0.12097168,-0.52671754,-3.8854961,-0.35114503,5
1487,0.016784668,-0.010009766,0.11999512,-3.129771,-3.038168,1.3053435,5
1488,0.017028809,-0.012878418,0.119262695,-4.9007635,-2.6259542,-0.45038167,5
1489,0.017944336,-0.014343262,0.11730957,-2.519084,-0.22137405,-0.16030534,5
1490,0.019104004,-0.009887695,0.118774414,0.045801528,-1.9007634,0.9389313,5
1491,0.014221191,-0.012939453,0.12011719,2.3664122,-2.5114503,0.045801528,5
1492,0.014953613,-0.008972168,0.118896484,2.351145,-3.1221373,2.351145,5
1493,0.012512207,-0.02355957,0.12609863,0.7099237,-3.1603053,2.5267177,5
1494,0.0067749023,-0.022216797,0.11871338,-1.3282443,-1.3282443,2.465649,5
1495,0.018310547,-0.018859863,0.12756348,-0.8854962,-2.29771,0.54198474,5
1496,0.020996094,-0.018005371,0.12213135,-1.1984733,-1.7480916,0.32061067,5
1497,0.0006713867,-0.009765625,0.119140625,-2.442748,-2.3053436,1.0534351,5
1498,0.0064697266,-0.021606445,0.122558594,-0.099236645,-0.091603056,2.7709923,5
1499,0.010864258,-0.016906738,0.12023926,5.480916,-1.091603,3.335878,5
1500,0.016906738,-0.008117676,0.11779785,7.2366414,-2.610687,2.1145039,5
1501,0.00579834,-0.017456055,0.12451172,4.4732823,-3.1374047,4.259542,5
1502,0.007507324,-0.020263672,0.11895752,0.9847328,-3.4122138,6.2061067,5
1503,0.018798828,-0.004333496,0.121154785,1.7328244,-4.183206,2.076336,5
1504,0.003479004,-0.01928711,0.12036133,-1.7480916,-4.3511453,2.389313,5
1505,0.0014038086,-0.020568848,0.12371826,-4.671756,-3.1526718,1.3206106,5
1506,0.0138549805,-0.011413574,0.11883545,-6.9389315,0.90076333,1.7938931,5
1507,0.008117676,-0.013671875,0.11682129,-0.06870229,-3.0152671,-0.48091602,5
1508,0.009277344,-0.016906738,0.12176514,1.5954199,-3.3206108,1.3358779,5
1509,0.015808105,-0.012023926,0.11993408,3.3435113,-2.1374047,2.038168,5
1510,0.003540039,-0.01739502,0.12072754,1.9007634,-3.946565,3.167939,5
1511,0.005004883,-0.0178833,0.120666504,-2.183206,-2.4198472,4.442748,5
1512,0.006164551,-0.005004883,0.12463379,-5.4503818,-2.8625953,2.664122,5
1513,0.012756348,-0.014038086,0.12213135,-7.1984735,-1.6030535,2.7251909,5
1514,0.021606445,-0.010681152,0.11810303,-4.068702,-2.427481,0.9694657,5
1515,0.008666992,-0.016601562,0.11999512,-1.9160305,-2.946565,0.35877863,5
1516,0.0134887695,-0.0115356445,0.1227417,-0.5496183,-3.8854961,1.6793894,5
1517,0.018493652,-0.012878418,0.12109375,3.5267177,-4.6870227,0.07633588,5
1518,0.005554199,-0.018310547,0.12188721,3.8854961,-6.0839696,2.206107,5
1519,0.016235352,-0.008850098,0.11816406,1.3053435,-3.3282442,0.015267176,5
1520,0.013305664,-0.007080078,0.12384033,-1.9236641,-3.5038168,1.5343511,5
1521,0.015197754,-0.011291504,0.115234375,-4.5648856,0.3816794,-0.007633588,5
1522,0.016540527,-0.0126953125,0.12109375,-4.9465647,1.8549619,1.2061069,5
1523,0.006225586,-0.018981934,0.12060547,-4.8244276,-5.1221375,1.7633588,5
1524,0.013427734,-0.014282227,0.11798096,-2.4732823,-2.7633588,0.7251908,5
1525,0.014587402,-0.018920898,0.11645508,-0.3816794,-2.389313,1.129771,5
1526,0.01159668,-0.01550293,0.119384766,5.1297708,-5.3969464,-0.8549618,5
1527,0.012634277,-0.0068969727,0.122680664,5.480916,-4.6564884,3.038168,5
1528,0.011779785,-0.013000488,0.117248535,2.7709923,-5.1984735,3.259542,5
1529,0.013305664,-0.010070801,0.119262695,-2.29771,-1.961832,2.129771,5
1530,0.012512207,-0.010192871,0.11907959,-4.19084,-3.6183207,2.908397,5
1531,0.011779785,-0.012939453,0.119140625,-5.8778625,-2.389313,0.77862597,5
1532,0.013183594,-0.013122559,0.122558594,-3.1221373,-2.3587787,1.2748091,5
1533,0.009399414,-0.01574707,0.12298584,0.58778626,-2.4198472,0.34351146,5
1534,0.01171875,-0.019714355,0.11706543,2.4961832,-2.961832,1.740458,5
1535,0.018005371,-0.007385254,0.12231445,3.2366412,-2.3969467,2.1374047,5
1536,0.014831543,-0.010437012,0.11669922,0.7251908,-3.2824428,3.1221373,5
1537,0.020141602,-0.009643555,0.11682129,-0.045801528,-4.40458,1.9465649,5
1538,0.0138549805,-0.0064086914,0.124816895,-3.8091602,-2.8549619,1.6412214,5
1539,0.014831543,-0.011108398,0.118896484,-4.9847326,-2.7099237,1.70229,5
1540,0.014831543,-0.009765625,0.115722656,-3.480916,-2.335878,-0.32061067,5
1541,0.019958496,-0.0099487305,0.11755371,-2.0610688,-2.7557251,0.6335878,5
1542,0.013244629,-0.012634277,0.11987305,0.8091603,-2.053435,0.28244275,5
1543,0.017944336,-0.010253906,0.11968994,2.1526718,-1.1908396,2.3282442,5
1544,0.012878418,-0.010375977,0.11663818,3.2366412,-2.9770992,2.816794,5
1545,0.019714355,-0.0061035156,0.12365723,1.5954199,-3.129771,2.8473282,5
1546,0.013000488,-0.004272461,0.11846924,-1.740458,-2.1221373,2.946565,5
1547,0.01171875,-0.010986328,0.121154785,-5.10687,-2.8015268,1.4198474,5
1548,0.017456055,-0.010192871,0.1149292,-7.0534353,-0.86259544,2.1221373,5
1549,0.018188477,-0.011962891,0.12036133,-1.70229,-2.3282442,-0.52671754,5
1550,0.0119018555,-0.010925293,0.12023926,0.10687023,-3.832061,1.1832061,5
1551,0.016662598,-0.010253906,0.11828613,1.6946565,-1.8167939,0.8015267,5
1552,0.016784668,-0.007751465,0.12554932,2.8473282,-4.3206105,2.6564887,5
1553,0.017578125,-0.0076293945,0.11773682,3.038168,-4.7251906,3.3816793,5
1554,0.016052246,-0.0073242188,0.12207031,0.20610687,-3.7480917,3.7709923,5
1555,0.016906738,-0.004638672,0.11968994,-2.961832,-2.816794,1.6870229,5
1556,0.017456055,-0.007751465,0.120788574,-7.6564884,-2.0839694,3.3969467,5
1557,0.018371582,-0.009399414,0.11730957,-6.8702292,-1.70229,-0.091603056,5
1558,0.018859863,-0.010314941,0.12371826,-3.259542,-2.946565,0.8396947,5
1559,0.019104004,-0.012573242,0.117492676,1.4885496,-3.9541984,1.6335878,5
1560,0.016601562,-0.007507324,0.12390137,3.0687022,-4.9694657,1.8473282,5
1561,0.016418457,-0.007751465,0.123291016,1.8549619,-5.0610685,0.5801527,5
1562,0.0061035156,-0.018981934,0.1237793,-0.32061067,-7.2442746,4.0152674,5
1563,0.017028809,-0.0079956055,0.11859131,-5.19084,-2.0229008,0.46564886,5
1564,0.01751709,-0.009887695,0.12005615,-6.3206105,-1.8625954,1.221374,5
1565,0.017944336,-0.009887695,0.115234375,-5.152672,0.3740458,-0.9160305,5
1566,0.016967773,-0.008483887,0.1171875,-2.1755726,-6.1603055,-0.77099234,5
1567,0.020202637,-0.010559082,0.1171875,-3.221374,-5.2442746,2.961832,5
1568,0.01751709,-0.0087890625,0.11804199,1.1755725,-3.4122138,-0.35114503,5
1569,0.01574707,-0.010681152,0.11975098,3.6259542,-1.8549619,2.6717558,5
1570,0.017700195,-0.005126953,0.12432861,2.8931298,-4.59542,1.8396946,5
1571,0.017700195,-0.0049438477,0.120666504,-0.3129771,-2.3282442,3.4503818,5
1572,0.018981934,-0.0048217773,0.118896484,-5.8015265,-0.35114503,2.8473282,5
1573,0.016479492,-0.008483887,0.121398926,-5.885496,-2.2824428,2.5038168,5
1574,0.01965332,-0.005859375,0.11907959,-3.9923663,-3.664122,1.610687,5
1575,0.01763916,-0.008972168,0.12030029,-3.259542,-1.2824427,2.1221373,5
1576,0.017944336,-0.012145996,0.119628906,1.8167939,-1.8015267,1.0992366,5
1577,0.017028809,-0.010192871,0.11694336,7.816794,-1.5572519,-0.8244275,5
1578,0.01550293,-0.0075683594,0.118896484,8.320611,-0.99236643,0.78625953,5
1579,0.015075684,-0.0002441406,0.117370605,3.778626,-2.29771,1.2290076,5
1580,0.017089844,-0.002746582,0.11853027,-4.0839696,-2.7328243,2.221374,5
1581,0.018554688,-0.005432129,0.119628906,-8.534351,-2.687023,1.5572519,5
1582,0.015930176,-0.008483887,0.11785889,-10.427481,-1.70229,-0.34351146,5
1583,0.019592285,-0.012268066,0.11627197,-6.2290077,-1.8244275,-1.648855,5
1584,0.019104004,-0.008544922,0.118652344,-0.9160305,-2.0305343,-3.2824428,5
1585,0.018737793,-0.0078125,0.11883545,4.5496182,-2.6946564,-1.9007634,5
1586,0.016845703,-0.00579834,0.11859131,5.4198475,-2.0992367,-0.79389316,5
1587,0.015014648,-0.0044555664,0.11895752,0.73282444,-1.1603054,1.0992366,5
1588,0.019104004,-0.006286621,0.1204834,-0.5496183,-3.9770992,3.6412213,5
1589,0.017456055,-0.006164551,0.12109375,-5.9847326,-3.6335878,2.0076337,5
1590,0.018554688,-0.009033203,0.12030029,-2.5114503,-1.1603054,1.3816794,5
1591,0.017822266,-0.0038452148,0.119384766,-4.5267177,-1.1755725,0.71755725,5
1592,0.018676758,-0.009155273,0.12286377,-4.6946564,-2.6030533,1.0992366,5
1593,0.019165039,-0.011352539,0.119628906,-0.03816794,-3.8015268,1.0610687,5
1594,0.01586914,-0.008728027,0.12109375,2.5648854,-3.5038168,1.7328244,5
1595,0.017456055,-0.008361816,0.119384766,2.740458,-3.9541984,2.335878,5
1596,0.0018310547,-0.009887695,0.12548828,3.1526718,-3.816794,2.1145039,5
1597,0.0071411133,-0.0009765625,0.12536621,-1.3358779,-3.5267177,3.4351146,5
1598,0.018493652,-0.0072631836,0.11907959,-3.816794,-6.221374,2.4732823,5
1599,0.019470215,-0.00579834,0.12200928,-6.2900763,-2.1908398,1.9923664,5
1600,0.01928711,-0.008483887,0.11755371,-6.671756,-0.90839696,-0.3129771,5
1601,0.018432617,-0.009399414,0.118652344,-3.5267177,-1.5572519,0.65648854,5
1602,0.002380371,-0.01763916,0.120910645,0.35877863,0.9847328,0.19847329,5
1603,-0.0005493164,-0.008850098,0.12408447,3.740458,0.2977099,1.3664122,5
1604,0.019165039,-0.009338379,0.1260376,6.9160304,-1.9160305,2.8015268,5
1605,-0.0020141602,-0.006958008,0.12432861,2.70229,-0.84732825,7.0152674,5
1606,0.012023926,0,0.12561035,-8.022901,0.60305345,8.450381,5
1607,0.005126953,-0.01550293,0.123413086,-12.839695,-0.610687,6.8320613,5
1608,0.0044555664,-0.018432617,0.12036133,-13.167939,-0.46564886,1.6717557,5
1609,0.018554688,-0.018798828,0.11517334,-4.9160304,-2.5267177,-2.0152671,5
1610,0.013000488,-0.024353027,0.11047363,0.4351145,-3.29771,-2.870229,5
1611,0.004638672,-0.020080566,0.124694824,3.908397,-1.6183206,-1.1145039,5
1612,0.017211914,-0.011657715,0.12347412,4.70229,-4.9923663,-1.4961832,5
1613,0.005126953,-0.015625,0.12701416,2.5038168,-6.7938933,2.2442749,5
1614,0.0115356445,-0.014526367,0.11999512,5.7938933,-11.007633,-1.8091604,5
1615,0.019958496,-0.0044555664,0.12219238,6.4351144,-10.022901,-0.8015267,5
1616,0.0079956055,0.0012207031,0.12042236,3.5419848,-8.091603,0.19847329,5
1617,0.014892578,-0.0036010742,0.12133789,-5.8702292,-2.6030533,1.70229,5
1618,0.0057373047,-0.013122559,0.119628906,-6.1297708,-3.4961832,1.8396946,5
1619,0.018981934,-0.006286621,0.12335205,-16.557251,-4,1.8854961,5
1620,0.016540527,-0.024963379,0.1171875,-0.73282444,-7.3511453,-2.038168,5
1621,0.013549805,-0.004272461,0.11968994,8.954199,-5.2366414,-4.2900763,5
1622,0.016174316,-0.0053100586,0.118896484,8.183207,-3.2290077,-2.129771,5
1623,0.010131836,-0.0032348633,0.12084961,1.519084,-1.7328244,2.1068702,5
1624,0.024169922,-0.008239746,0.12408447,-7.923664,-3.961832,4.366412,5
1625,0.021606445,-0.009765625,0.12390137,-9.946565,-5.0610685,5.9694657,5
1626,0.018981934,-0.008972168,0.11871338,-6.4580154,-7.221374,0.48854962,5
1627,0.012329102,-0.005004883,0.11651611,-2.9694657,-8.519084,-0.55725193,5
1628,0.02368164,-0.010192871,0.11663818,-0.21374045,-3.2442749,0.08396947,5
1629,0.017822266,-0.008483887,0.118652344,6.2442746,-5.114504,0.610687,5
1630,0.016662598,-0.009643555,0.12634277,3.6412213,-8.969465,1.7099236,5
1631,0.017211914,-0.0057373047,0.11804199,0.77862597,-11.755725,0.519084,5
1632,0.018005371,-0.0022583008,0.115112305,-4.0839696,-17.419847,-0.07633588,5
1633,0.021484375,-0.004638672,0.113098145,-7.328244,-3.3282442,1.5572519,5
1634,0.022338867,-0.012878418,0.12219238,-6.2824426,0.32824427,1.3358779,5
1635,0.013916016,-0.016479492,0.1184082,-7.5725193,2.4198472,1.0992366,5
1636,0.015197754,-0.011047363,0.11529541,-7.7480917,9.603053,1.5877863,5
1637,0.016418457,-0.017578125,0.124938965,1,12.458015,5.2290077,5
1638,0.0068969727,-0.020507812,0.118652344,3.0687022,-20.068703,-0.41221374,5
1639,0.023376465,-0.0048217773,0.11773682,1.3969465,-5.0458016,2.221374,5
1640,0.020385742,-0.008422852,0.12011719,0.870229,-5.9465647,-1.29771,5
1641,0.024108887,-0.0032958984,0.11828613,-1.6259542,2.9160306,3.908397,5
1642,0.018981934,-0.001159668,0.12109375,-8.648855,9.854961,3.5114503,5
