measurement,Acc_X,Acc_Y,Acc_Z,Gyr_X,Gyr_Y,Gyr_Z,Label
0,0.11529541,-0.03765869,0.04699707,29.76336,-10.343512,-12.572519,6
1,0.11413574,-0.03314209,0.04901123,59.40458,-8.0992365,-12.893129,6
2,0.111694336,-0.024475098,0.0501709,61.229008,-12.328244,-9.557252,6
3,0.110839844,-0.022888184,0.05718994,49.030533,-15.328244,-6.664122,6
4,0.11401367,-0.022644043,0.053894043,44.923664,-16.603054,-2.206107,6
5,0.11413574,-0.02142334,0.054260254,39.450382,-17.274809,-1.9465649,6
6,0.11437988,-0.019592285,0.05267334,25.946566,-19.67939,0.091603056,6
7,0.115722656,-0.017578125,0.051452637,8.709924,-9.2595415,-4.2137403,6
8,0.11254883,-0.0178833,0.054260254,-9.297709,-8.450381,-4.816794,6
9,0.111572266,-0.024963379,0.04876709,-10.679389,-8.725191,-5.3893127,6
10,0.11029053,-0.024230957,0.04937744,-7.5114503,-5.7557254,-7.8625956,6
11,0.111694336,-0.022766113,0.05218506,-0.007633588,-5.923664,-10.068703,6
12,0.11328125,-0.024047852,0.053466797,10.290076,-8.366412,-11.549619,6
13,0.112976074,-0.021057129,0.05670166,14.549619,-2.7633588,-12.427481,6
14,0.11291504,-0.016906738,0.059753418,11.38168,-2.870229,-12.770992,6
15,0.11633301,-0.014892578,0.06298828,0.5801527,-1.3740458,-14.473283,6
16,0.11602783,-0.01751709,0.062072754,-6.2366414,6.19084,-16.068703,6
17,0.12371826,-0.013061523,0.045715332,-17.038168,10.519084,-12.229008,6
18,0.121032715,-0.017211914,0.05987549,-18.633587,11.748092,-17.282442,6
19,0.11987305,-0.016662598,0.06384277,-14.992367,15.9007635,-13.511451,6
20,0.117370605,-0.0146484375,0.06036377,-16.717558,17.091602,-15.519084,6
21,0.11657715,-0.016357422,0.05999756,-18.007633,15.702291,-18.977098,6
22,0.11657715,-0.0154418945,0.06085205,-12.229008,19.93893,-18.496183,6
23,0.117248535,-0.014221191,0.058532715,-12.977099,20.839695,-21.274809,6
24,0.119506836,-0.013427734,0.057922363,-18.786259,21.832062,-25.213741,6
25,0.11871338,-0.010620117,0.059387207,-29.709923,25.229008,-20.404581,6
26,0.12695312,-0.0095825195,0.049865723,-46.40458,24.633587,-23.496183,6
27,0.13702393,-0.013061523,0.04815674,-61.20611,24.76336,-26.67939,6
28,0.12567139,-0.012329102,0.04949951,-77.99236,27.51145,-16.534351,6
29,0.12695312,-0.012634277,0.0491333,-100.66412,23.183207,-15.114504,6
30,0.11444092,-0.015319824,0.045166016,-108.94656,26.122137,-5.9465647,6
31,0.10748291,-0.017211914,0.038208008,-109.62595,28.709923,-1.9389313,6
32,0.101257324,-0.0154418945,0.030761719,-102.76336,32.21374,3.29771,6
33,0.095336914,-0.011230469,0.027893066,-86.27481,33.541985,1.351145,6
34,0.09436035,0.0009765625,0.020263672,-74.091606,29.152672,-3.2748091,6
35,0.10028076,-0.0014648438,0.016601562,-61.78626,12.656488,-18.603054,6
36,0.10253906,-0.0018310547,0.027770996,-58.312977,-4.1984735,-39.900764,6
37,0.11090088,0.0045776367,0.023132324,-68.74809,-22.122137,-54.770992,6
38,0.1194458,0.0049438477,0.019226074,-80.07633,-35.519085,-54.419846,6
39,0.1282959,0.003112793,0.017578125,-87,-46.076336,-54.49618,6
40,0.13079834,0.0010375977,0.019226074,-81.503815,-57.099236,-54.78626,6
41,0.1282959,-0.0001220703,0.028015137,-75.259544,-62.091602,-54.374046,6
42,0.122924805,-0.000793457,0.03741455,-93.740456,-65.00764,-54.51145,6
43,0.11755371,-0.0029907227,0.041931152,-127.9771,-72.01527,-54.46565,6
44,0.11663818,-0.014038086,0.037963867,-137.76335,-79.21374,-54.76336,6
45,0.11730957,-0.024536133,0.038513184,-119.381676,-68.69466,-54.572517,6
46,0.11791992,-0.026062012,0.043762207,-106.40458,-64.71756,-54.40458,6
47,0.12414551,-0.027404785,0.058288574,-101.419846,-69.0458,-53.801525,6
48,0.13287354,-0.024475098,0.06311035,-103.40458,-64.87023,-54.40458,6
49,0.14141846,-0.019958496,0.05895996,-110.824425,-60.709923,-54.282444,6
50,0.13128662,-0.01776123,0.055114746,-124,-35.946564,-40.068703,6
51,0.13433838,-0.024719238,0.053955078,-115.59542,-40.801525,-37.27481,6
52,0.13671875,-0.030822754,0.05328369,-104.63359,-19.259542,-27.694656,6
53,0.12908936,-0.036071777,0.05407715,-84.08397,-2.0687022,-20.526718,6
54,0.1227417,-0.039123535,0.05407715,-65.8855,9.641221,-16.70229,6
55,0.12609863,-0.041381836,0.054748535,-50.870228,15.206107,-19.89313,6
56,0.124938965,-0.045532227,0.053588867,-35.732826,26.93893,-15.503817,6
57,0.11987305,-0.04827881,0.051330566,-20.480917,29.610687,-11.282443,6
58,0.1305542,-0.04534912,0.039611816,-8.793893,38.67939,-3.0076337,6
59,0.13641357,-0.04449463,0.039367676,-2.0839694,49.93893,13.206107,6
60,0.14794922,-0.04711914,0.03326416,-1.4961832,58.59542,32.183205,6
61,0.16015625,-0.045166016,0.020629883,-2.5877862,66.496185,60.862595,6
62,0.17504883,-0.042541504,0.014953613,0.7099237,69.35878,94.24428,6
63,0.18579102,-0.036621094,0.011169434,5.2900763,70.57252,132.16794,6
64,0.18353271,-0.0289917,0.011230469,4.5725193,68.862595,172.64122,6
65,0.17303467,-0.026306152,0.015991211,12.488549,61.564884,202.40459,6
66,0.16595459,-0.027709961,0.021728516,23.740458,50.290077,222.21375,6
67,0.15209961,-0.020507812,0.026306152,31.343512,44.251907,233.50381,6
68,0.14001465,-0.021850586,0.022888184,27.687023,41.65649,232.03816,6
69,0.1272583,-0.023071289,0.026428223,26.633587,36.91603,222.62596,6
70,0.1194458,-0.024658203,0.030212402,47.12214,40.40458,204.67175,6
71,0.1081543,-0.018371582,0.02734375,61.0229,44.72519,181.8626,6
72,0.09429932,-0.01776123,0.026000977,62.32061,48.51145,156.94656,6
73,0.08325195,-0.0146484375,0.03137207,57.053436,45.992367,126.96183,6
74,0.0769043,-0.013916016,0.03186035,43.778625,38.946564,93.70992,6
75,0.07763672,-0.015136719,0.033447266,29.625954,26.76336,54.244274,6
76,0.08105469,-0.01953125,0.033569336,17.534351,12.083969,14.374045,6
77,0.08526611,-0.022949219,0.03656006,6.70229,-5.114504,-32.67939,6
78,0.08404541,-0.018127441,0.034362793,-16.755726,-20.862595,-62.34351,6
79,0.1027832,-0.017944336,0.028808594,-34.900764,-41.267174,-110.96183,6
80,0.10687256,-0.019348145,0.024597168,-53.419846,-60.366413,-147.73282,6
81,0.112976074,-0.025878906,0.034484863,-61.53435,-77.96947,-190.87787,6
82,0.11645508,-0.031311035,0.02734375,-53.82443,-87.419846,-224.29771,6
83,0.12158203,-0.039978027,0.051940918,-22.312977,-103.64886,-250.1374,6
84,0.14245605,-0.04925537,0.055908203,22.25191,-114.73283,-250.1374,6
85,0.16638184,-0.04699707,0.039978027,69.72519,-116.47328,-250.1374,6
86,0.17718506,-0.019470215,0.005554199,65.45038,-84.73283,-233.69466,6
87,0.16479492,0.0004272461,0.012756348,15.916031,-52.51145,-169.19847,6
88,0.16296387,0.006225586,0.0335083,-53.076336,-49.900764,-99.44275,6
89,0.16064453,-0.0072021484,0.042297363,-104.03817,-43.954197,-54.244274,6
90,0.14733887,-0.026489258,0.044555664,-135.41222,-42.32061,-15.427481,6
91,0.13635254,-0.047302246,0.06188965,-135.54962,-48.52672,-3.946565,6
92,0.12030029,-0.055603027,0.04168701,-92.740456,-39.27481,-11.984733,6
93,0.109313965,-0.047546387,0.04034424,-35.732826,-32.732826,-22.076336,6
94,0.10235596,-0.038757324,0.04296875,9.885496,-27.08397,-24.610687,6
95,0.10449219,-0.029846191,0.050476074,20.007633,-22.305344,-29.625954,6
96,0.10620117,-0.02545166,0.0524292,8.847328,-16.641222,-43.10687,6
97,0.109313965,-0.024719238,0.056640625,-20.068703,-11.564885,-54.9771,6
98,0.11566162,-0.03173828,0.05517578,-39.564884,-7,-54.809162,6
99,0.121032715,-0.037597656,0.055236816,-45.053436,-4.59542,-64.55725,6
100,0.13122559,-0.0446167,0.04937744,-40.839695,-0.49618322,-74.65649,6
101,0.13439941,-0.053833008,0.056274414,-20.694656,0.8091603,-73.16031,6
102,0.1529541,-0.060791016,0.059692383,6.145038,-0.77099234,-64.70992,6
103,0.16027832,-0.05895996,0.053894043,31.167938,18.778625,-54.427483,6
104,0.1404419,-0.056030273,0.047851562,40.49618,39.67939,0.48854962,6
105,0.12597656,-0.04663086,0.04168701,47.38168,59.007633,54.587788,6
106,0.14086914,-0.037475586,0.032043457,62.030533,53.06107,99.15267,6
107,0.18286133,-0.028381348,0.01763916,72.31298,80.145035,138.89313,6
108,0.1928711,-0.024230957,0.011962891,74.061066,109.175575,178.9771,6
109,0.20227051,-0.019470215,0.016357422,61.427483,123.221375,199.52672,6
110,0.20227051,-0.018310547,0.023620605,34.46565,121.9771,217.61069,6
111,0.19152832,-0.015014648,0.026245117,-5.2824426,107.221375,227.57253,6
112,0.17663574,-0.018066406,0.024963379,-32.748093,88.08397,230.9542,6
113,0.16107178,-0.020202637,0.020324707,-44.34351,62.89313,227.76335,6
114,0.14471436,-0.022766113,0.01953125,-33.160305,48.12214,220.83206,6
115,0.11968994,-0.02557373,0.024597168,-2.3282442,39.519085,210.28244,6
116,0.0982666,-0.027282715,0.033325195,32.625954,35.580154,196.23665,6
117,0.08917236,-0.026794434,0.0357666,61.519085,34.633587,176.56488,6
118,0.082336426,-0.018615723,0.035949707,75.854965,33.84733,154.35115,6
119,0.06793213,-0.017211914,0.04284668,82.79389,32.87786,132.32062,6
120,0.055664062,-0.01586914,0.04852295,75.76336,30.641222,103.16031,6
121,0.0546875,-0.010620117,0.048706055,59.85496,23.435114,67.61069,6
122,0.053222656,-0.005859375,0.04663086,22.816793,14.80916,35.244274,6
123,0.052124023,-0.0037841797,0.046020508,-24.198473,4.19084,-2.0992367,6
124,0.05065918,-0.0119018555,0.048034668,-57.29771,-9.633588,-45.46565,6
125,0.07128906,-0.021240234,0.04248047,-71.45038,-32.160305,-90.51145,6
126,0.09069824,-0.02178955,0.034729004,-79.64886,-41.67939,-139.40459,6
127,0.10949707,-0.023498535,0.029968262,-84.96183,-57.52672,-192.24428,6
128,0.12243652,-0.02734375,0.03265381,-87.01527,-67.43511,-235.82443,6
129,0.13476562,-0.03540039,0.036071777,-77.32825,-76.71756,-250.1374,6
130,0.1519165,-0.046813965,0.04638672,-41.068703,-85.0687,-250.1374,6
131,0.18200684,-0.053588867,0.03515625,11.206107,-91.89313,-250.1374,6
132,0.19506836,-0.044555664,0.00970459,55.778625,-85.78626,-250.1374,6
133,0.18377686,-0.025756836,0.0033569336,55.946564,-59.53435,-243.35878,6
134,0.16955566,-0.008972168,0.019470215,14.0992365,-55.78626,-166.83206,6
135,0.17803955,0.012451172,0.03338623,-45.89313,-57.709923,-89.23664,6
136,0.18170166,-0.0017700195,0.032958984,-107.23664,-53.633587,-46.35878,6
137,0.17388916,-0.024047852,0.026428223,-150.7481,-51.70229,-21.19084,6
138,0.1519165,-0.047607422,0.02355957,-151.81679,-45.946564,-29.404581,6
139,0.12921143,-0.062438965,0.026000977,-104.541985,-37.114502,-54.664124,6
140,0.10784912,-0.055541992,0.03363037,-41.923664,-28.89313,-70.33588,6
141,0.09667969,-0.04486084,0.037353516,5.1755724,-24.57252,-84.41222,6
142,0.09851074,-0.03845215,0.046813965,19.51145,-27.06107,-93.45038,6
143,0.11071777,-0.031982422,0.046325684,10.2213745,-26.671755,-94.938934,6
144,0.12347412,-0.030578613,0.048339844,-14.7786255,-22.992367,-92.63359,6
145,0.13482666,-0.03363037,0.049926758,-40.52672,-15.274809,-86.16794,6
146,0.14776611,-0.04638672,0.04901123,-52.541985,-9.961832,-82.862595,6
147,0.1619873,-0.053833008,0.024597168,-40.93893,2.0458016,-69.98473,6
148,0.14117432,-0.060058594,0.047424316,-10.801527,8.992367,-54.541985,6
149,0.14337158,-0.05706787,0.04925537,18.580153,8.572519,-21.603054,6
150,0.1359253,-0.052612305,0.053833008,45.770992,20.549618,24.839695,6
151,0.1329956,-0.048950195,0.046142578,67.91603,28.282442,65.94656,6
152,0.12213135,-0.03753662,0.039001465,73.03817,53.44275,107.54962,6
153,0.13421631,-0.034973145,0.030151367,73.770996,62.625954,132.42747,6
154,0.16113281,-0.026855469,0.020812988,78.0458,86.99236,148.87022,6
155,0.18243408,-0.024902344,0.016662598,81.1145,103.73283,165.96184,6
156,0.21160889,-0.019348145,0.011474609,57.351147,119.29008,178.53435,6
157,0.21099854,-0.014404297,0.011230469,21.908398,129.9084,193.18321,6
158,0.19689941,-0.0072021484,0.013305664,-38.007633,105.24428,212.9771,6
159,0.19036865,-0.007751465,0.0119018555,-92.12214,76.099236,229.07634,6
160,0.17193604,-0.016540527,0.00982666,-111.229004,44.389313,240.48856,6
161,0.14892578,-0.028076172,0.009155273,-96.0687,19.068703,237.03816,6
162,0.12878418,-0.034240723,0.01171875,-47.49618,-3.7557251,224.0687,6
163,0.10821533,-0.036865234,0.02368164,18.89313,-11.557252,211.06107,6
164,0.095336914,-0.03466797,0.028564453,82.496185,-12.488549,192.54962,6
165,0.10333252,-0.015686035,0.027038574,122.854965,-5.847328,174.33588,6
166,0.08325195,0.003967285,0.026428223,128.55725,-2.3969467,152.05344,6
167,0.064819336,0.011962891,0.040893555,110.27481,-1.5114504,120.541985,6
168,0.061645508,0.0026855469,0.045837402,71.63359,-8.832061,73.51908,6
169,0.07080078,-0.0134887695,0.04650879,40.85496,-12.198473,8.80916,6
170,0.078308105,-0.014892578,0.049743652,10.641221,-12.503817,-54.748093,6
171,0.08404541,-0.010864258,0.043701172,-11.374045,-22.152672,-88.58778,6
172,0.10668945,-0.0072021484,0.032836914,-38.519085,-28.259542,-134.74046,6
173,0.121032715,-0.014526367,0.024597168,-59.59542,-41.21374,-170.57253,6
174,0.12939453,-0.021362305,0.032165527,-68.32825,-48.328243,-206.77863,6
175,0.123535156,-0.030883789,0.041809082,-71.419846,-59.519085,-233.38931,6
176,0.13775635,-0.038635254,0.046447754,-59.427483,-75.900764,-250.1374,6
177,0.16009521,-0.04449463,0.045898438,-29.38168,-83.580154,-250.1374,6
178,0.1798706,-0.04626465,0.02545166,6.4351144,-77.24428,-250.1374,6
179,0.17504883,-0.031433105,0.005004883,22.404581,-57.091602,-243.35115,6
180,0.1619873,-0.020446777,0.015808105,11.793893,-37.35878,-184.25954,6
181,0.16540527,-0.0003051758,0.029418945,-23.595419,-40.15267,-119.10687,6
182,0.16601562,-0.006958008,0.0335083,-70.64886,-40.068703,-53.85496,6
183,0.15594482,-0.022766113,0.031982422,-119.9542,-38.89313,-48.267174,6
184,0.14508057,-0.035827637,0.035888672,-130.99237,-33.748093,-40.06107,6
185,0.12689209,-0.046936035,0.032226562,-130.1145,-20.496183,-54.35878,6
186,0.11682129,-0.03845215,0.03778076,-118.12977,-17.053434,-54.633587,6
187,0.109558105,-0.041015625,0.037902832,-111.580154,-9.351145,-54.366413,6
188,0.109313965,-0.044006348,0.040222168,-87.89313,-10.61832,-75.25191,6
189,0.13165283,-0.047058105,0.042907715,-48.778625,-11.160305,-85.458015,6
190,0.13116455,-0.058166504,0.052368164,5.068702,-6.40458,-89.52672,6
191,0.12841797,-0.05255127,0.063964844,37.44275,-7.587786,-96.099236,6
192,0.13690186,-0.046875,0.061767578,48.50382,-8.129771,-93.53435,6
193,0.13604736,-0.04547119,0.061279297,44.52672,-0.6259542,-81.35878,6
194,0.14544678,-0.03540039,0.054992676,33.755726,8.946565,-54.27481,6
195,0.1381836,-0.030822754,0.05517578,4.80916,32.29771,-19.206106,6
196,0.13128662,-0.036193848,0.048095703,-16.465649,43.15267,22.496183,6
197,0.11853027,-0.037475586,0.043701172,-27.793894,57.38168,66.80153,6
198,0.11138916,-0.038085938,0.034729004,-37.076336,64.78626,103.740456,6
199,0.1295166,-0.0335083,0.01940918,-39.190838,64.74809,127.51145,6
200,0.13598633,-0.03527832,0.01361084,-30.687023,69.53435,154.53435,6
201,0.15203857,-0.040161133,0.008544922,-13.519084,62.84733,169.8626,6
202,0.18255615,-0.034057617,0.0005493164,-7.328244,65.68702,184.96947,6
203,0.19384766,-0.024780273,0.0032958984,-14.0992365,46.541985,200.19847,6
204,0.18499756,-0.022277832,0.008483887,-31.931297,23.389313,209.50381,6
205,0.17590332,-0.023071289,0.009399414,-43.08397,-7.1755724,217.29007,6
206,0.15856934,-0.028015137,0.0076904297,-40.48855,-36.839695,212.771,6
207,0.14691162,-0.032287598,0.013427734,-4.740458,-53.9771,203.48856,6
208,0.12677002,-0.032104492,0.019042969,39.687023,-60.992367,191.39694,6
209,0.107910156,-0.03894043,0.035095215,98.57252,-63.305344,180.03053,6
210,0.10876465,-0.03314209,0.029968262,144.0916,-54.900764,164.03053,6
211,0.10797119,-0.024353027,0.03955078,162.06107,-41.435116,146.19084,6
212,0.10675049,-0.013977051,0.022705078,166.54199,-24.984734,127.12977,6
213,0.08728027,-0.0040283203,0.05114746,148.26718,-10.656488,101.32825,6
214,0.076538086,0.0072021484,0.05480957,97.96947,-0.5114504,72.26717,6
215,0.077819824,0.010559082,0.05883789,28.351145,-1.9312977,34.82443,6
216,0.082458496,-0.0016479492,0.062683105,-19.755726,-9.022901,-3.7251909,6
217,0.08227539,-0.012207031,0.057250977,-45.839695,-12.59542,-54,6
218,0.10443115,-0.015075684,0.044311523,-65.53435,-16.480917,-97.38931,6
219,0.11236572,-0.016052246,0.035583496,-79.47328,-18.557251,-137.19084,6
220,0.124572754,-0.020629883,0.034729004,-89.900764,-26.396946,-181.2519,6
221,0.13110352,-0.030395508,0.05419922,-89.63359,-36.08397,-216.30534,6
222,0.13061523,-0.038208008,0.043518066,-71.68702,-44.572517,-247.31297,6
223,0.14056396,-0.047973633,0.042663574,-37.198475,-49.419846,-250.1374,6
224,0.1583252,-0.051696777,0.03173828,9.175572,-50.328243,-250.1374,6
225,0.1652832,-0.039367676,0.014892578,40.984734,-37.21374,-242.66412,6
226,0.1539917,-0.0256958,0.0099487305,28.57252,-15.954199,-184.54962,6
227,0.15057373,-0.0068969727,0.021240234,-15.854961,-13.763359,-119.29008,6
228,0.15563965,-0.0015258789,0.032348633,-66.83969,-25.221375,-54.007633,6
229,0.1560669,-0.010009766,0.036132812,-120.854965,-24.885496,-16.664122,6
230,0.15338135,-0.026550293,0.021850586,-153.32062,-23.57252,-3.465649,6
231,0.12792969,-0.04638672,0.023071289,-158.78625,-24.992367,-9.748092,6
232,0.11462402,-0.055114746,0.014892578,-120.862595,-19.145039,-31.167938,6
233,0.107055664,-0.0423584,0.026733398,-58.954197,-21.435114,-55.015266,6
234,0.103149414,-0.043762207,0.032470703,-18.862595,-27.51145,-54.61832,6
235,0.105651855,-0.039794922,0.03955078,10.977099,-28.91603,-67.84733,6
236,0.10168457,-0.0413208,0.046081543,24.480917,-37.9771,-85.53435,6
237,0.10229492,-0.055419922,0.061584473,63.190838,-47.770992,-94.08397,6
238,0.11639404,-0.061706543,0.07055664,123.65649,-55.79389,-109.26717,6
239,0.13659668,-0.051757812,0.06713867,168.63359,-63.20611,-116.824425,6
240,0.14422607,-0.03845215,0.0647583,174.74046,-52.67939,-112.03817,6
241,0.14434814,-0.026611328,0.06744385,136.12213,-27.633587,-104.51908,6
242,0.16143799,-0.012145996,0.062194824,84.10687,11.923664,-86.259544,6
243,0.15698242,-0.010864258,0.06677246,22.816793,47.15267,-47.08397,6
244,0.15826416,-0.012268066,0.053771973,-39.183205,84.259544,-2.0305343,6
245,0.1494751,-0.02166748,0.038085938,-102.01527,112.061066,61.862595,6
246,0.13580322,-0.028381348,0.029968262,-145.84734,120.67939,121.24428,6
247,0.14733887,-0.026062012,0.01574707,-163.47328,112.71756,174.81679,6
248,0.16394043,-0.032836914,0.010131836,-159.53435,102.98473,228.61832,6
249,0.19342041,-0.03643799,-0.0052490234,-142.26718,88.40458,250.12978,6
250,0.21173096,-0.03314209,-0.0044555664,-119.60305,65.175575,250.12978,6
251,0.21142578,-0.032043457,0.0006103516,-95.83969,32.50382,250.12978,6
252,0.21191406,-0.029174805,0.006225586,-84.183205,-5.2671757,250.12978,6
253,0.17199707,-0.027893066,0.022277832,-41.61832,-23.908398,250.12978,6
254,0.15008545,-0.03173828,0.029052734,-0.67175573,-42.9771,240.61832,6
255,0.101989746,-0.03930664,0.043762207,67.26717,-43.351147,229.44275,6
256,0.07836914,-0.0368042,0.04260254,137.1145,-48.35878,206.61069,6
257,0.09082031,-0.03253174,0.03552246,173.58015,-42.46565,160.9313,6
258,0.08239746,-0.022277832,0.03729248,198.73282,-19.984734,131.19084,6
259,0.07122803,-0.0034179688,0.032409668,201.0229,-1.1068702,102.854965,6
260,0.04901123,0.005554199,0.059265137,167.33588,-1.0229008,69.580154,6
261,0.045410156,0.008117676,0.060180664,105.08397,-3.351145,34.015266,6
262,0.049316406,0.0029907227,0.059570312,36.709923,-12.038168,-7.89313,6
263,0.06402588,-0.010131836,0.053527832,-10.603053,-21.786259,-54.778625,6
264,0.07208252,-0.011413574,0.04724121,-35.84733,-26.76336,-83.31298,6
265,0.09362793,-0.012878418,0.03161621,-60.74046,-30.984734,-132.27481,6
266,0.11651611,-0.010437012,0.022155762,-96.62595,-32.908398,-171.771,6
267,0.13677979,-0.014465332,0.015380859,-126.32061,-38.83206,-210.48856,6
268,0.15081787,-0.028381348,0.023864746,-136.25954,-51.79389,-245.31297,6
269,0.16033936,-0.04559326,0.035949707,-113.94656,-57.549618,-250.1374,6
270,0.17156982,-0.06201172,0.045898438,-44.458015,-71.05344,-250.1374,6
271,0.17907715,-0.06878662,0.028808594,45.748093,-79.73283,-250.1374,6
272,0.16973877,-0.05621338,-0.0048217773,121.53435,-92.541985,-250.1374,6
273,0.15246582,-0.0289917,0.005065918,144.74046,-53.671757,-206.26718,6
274,0.1529541,0.01171875,0.018127441,76.0229,-65.01527,-126.61069,6
275,0.17333984,0.004211426,0.022338867,13.442748,-73.53435,-53.007633,6
276,0.18115234,-0.013183594,0.021362305,-8.2213745,-62.389313,-19.770992,6
277,0.16381836,-0.034484863,0.03466797,-9.480916,-51.267174,-4.076336,6
278,0.13739014,-0.05279541,0.04119873,-2.1145039,-55.38168,-21.633587,6
279,0.11578369,-0.04071045,0.06072998,1.778626,-61.290077,-45.229008,6
280,0.10180664,-0.020446777,0.06945801,-20.694656,-74.35114,-54.801525,6
281,0.105285645,-0.013061523,0.060424805,-62.38168,-77.824425,-54.67939,6
282,0.11138916,-0.016174316,0.053222656,-96.73283,-70.79389,-54.480915,6
283,0.114746094,-0.026184082,0.051330566,-102.37405,-50.49618,-54.610687,6
284,0.117004395,-0.033935547,0.053710938,-86.32825,-27.862595,-54.687023,6
285,0.12615967,-0.042114258,0.056518555,-59.099236,-13.129771,-54.435116,6
286,0.13824463,-0.045043945,0.05407715,-24.23664,1.7480916,-53.48855,6
287,0.14404297,-0.047668457,0.057128906,13.351145,11.534351,-54.923664,6
288,0.14544678,-0.044067383,0.05895996,40.954197,21.824427,-36.0229,6
289,0.14556885,-0.040283203,0.059570312,46.87786,27.793894,-23.335878,6
290,0.14367676,-0.039245605,0.060180664,43.549618,44.709923,0.6870229,6
291,0.14611816,-0.03692627,0.05065918,36.068703,63.053436,28.816793,6
292,0.1459961,-0.026428223,0.0390625,19.312977,87.67939,67.12214,6
293,0.13671875,-0.016784668,0.032470703,-6.335878,102.816795,112.580154,6
294,0.1538086,-0.016235352,0.018920898,-31.450382,109.78626,148.68703,6
295,0.17230225,-0.02130127,0.013305664,-33,121.98473,178.76335,6
296,0.18963623,-0.026306152,0.0034179688,-33.83206,127.00764,196.47328,6
297,0.20019531,-0.02557373,0.003540039,-39.984734,121.091606,206.70229,6
298,0.19268799,-0.022583008,0.008666992,-60.549618,96.908394,213.66412,6
299,0.1831665,-0.018310547,0.009216309,-78.938934,62.931297,217.35878,6
300,0.1619873,-0.019226074,0.010681152,-79.07633,24.282442,222.25954,6
301,0.13763428,-0.024597168,0.00970459,-62.419846,-0.41221374,215.08397,6
302,0.110839844,-0.031982422,0.016540527,-16.366413,-15.396947,202.67175,6
303,0.09161377,-0.0368042,0.025817871,40.687023,-23.961832,187.44275,6
304,0.0914917,-0.030517578,0.027893066,90.52672,-28.045801,166.26718,6
305,0.092041016,-0.022705078,0.030090332,118.69466,-21.366413,145.67175,6
306,0.083740234,-0.016479492,0.033325195,123.07633,-11.076336,122.46565,6
307,0.070007324,-0.010253906,0.04046631,112.19084,-7.0229006,95.221375,6
308,0.06378174,-0.008972168,0.05041504,92.503815,-13.106871,64.0229,6
309,0.062072754,-0.0076293945,0.054870605,72.091606,-22.89313,25.610687,6
310,0.06591797,-0.0087890625,0.055419922,42.76336,-30.984734,-19.10687,6
311,0.06842041,-0.010803223,0.048706055,8.297709,-39.015266,-54.885498,6
312,0.08465576,-0.015014648,0.03894043,-17.862595,-53.44275,-110.55725,6
313,0.10058594,-0.012390137,0.037902832,-37.053436,-67.900764,-158.38931,6
314,0.12536621,-0.016418457,0.03289795,-50.580154,-81.54962,-208.8626,6
315,0.14483643,-0.02734375,0.03955078,-53.27481,-96.80916,-250.1374,6
316,0.1531372,-0.03656006,0.047180176,-36.251907,-104.43511,-250.1374,6
317,0.16473389,-0.04650879,0.049804688,1.0152671,-120.54962,-250.1374,6
318,0.17321777,-0.046691895,0.03753662,53.251907,-118.25191,-250.1374,6
319,0.17364502,-0.024658203,0.0095825195,73.33588,-92.25191,-250.1374,6
320,0.17279053,-0.0031738281,0.0026245117,29.496183,-59.14504,-189.23665,6
321,0.17053223,0.010009766,0.020080566,-41.50382,-46.61832,-107.69466,6
322,0.16766357,0.0052490234,0.034606934,-112.12214,-41.290077,-46.38168,6
323,0.15826416,-0.010925293,0.04071045,-176.45038,-38.40458,-1.610687,6
324,0.15026855,-0.039245605,0.03173828,-205.48091,-44.290077,8.015267,6
325,0.13543701,-0.062316895,0.02545166,-179.3435,-37.099236,-10.0992365,6
326,0.115600586,-0.063964844,0.03125,-103.56489,-31.42748,-28.358778,6
327,0.101623535,-0.05517578,0.03668213,-18.625954,-28.648855,-37.12214,6
328,0.0982666,-0.04107666,0.04296875,33.15267,-23.48855,-42.335876,6
329,0.09991455,-0.033447266,0.047424316,41.17557,-23.954199,-44.091602,6
330,0.10296631,-0.030029297,0.04925537,32.15267,-18.458015,-48.816795,6
331,0.10626221,-0.029785156,0.053955078,20.267176,-15.961832,-45.85496,6
332,0.11419678,-0.031188965,0.051330566,9.473283,-11.022901,-41.183205,6
333,0.13104248,-0.03289795,0.047424316,11.473283,-1.961832,-40.541985,6
334,0.14068604,-0.034423828,0.04296875,18.305344,3.557252,-30.541985,6
335,0.14398193,-0.03540039,0.04333496,31.946566,11.450381,-26.389313,6
336,0.14111328,-0.032958984,0.04663086,33.55725,17.610687,-18.61832,6
337,0.13903809,-0.031433105,0.043945312,26.213741,22.42748,-3.3664122,6
338,0.12805176,-0.035461426,0.049743652,17.053434,30.099237,17.259542,6
339,0.12390137,-0.034851074,0.04168701,9.946565,41.671757,36.64122,6
340,0.11218262,-0.029174805,0.034118652,6.2137403,55.396946,67.75572,6
341,0.115234375,-0.026306152,0.026428223,-1.648855,58.923664,90.061066,6
342,0.15020752,-0.026977539,-0.0048828125,-5.9694657,64.229004,111.8855,6
343,0.16546631,-0.034301758,0.015197754,8.9007635,71.618324,115.53435,6
344,0.18603516,-0.029907227,0.008728027,16.358778,83.39695,124.496185,6
345,0.18933105,-0.026184082,0.0032958984,10.458015,81.19847,140.72519,6
346,0.1786499,-0.021911621,0.004638672,9.59542,71.08397,157.39694,6
347,0.16394043,-0.002319336,0.0178833,-3.2748091,53.198475,185.99237,6
348,0.14727783,-0.012329102,0.024780273,-61.374046,16.633587,205.9313,6
349,0.13012695,-0.024963379,0.02142334,-69.19084,0.89312977,199.25954,6
350,0.11431885,-0.02709961,0.019714355,-43.923664,-15.908397,194.8626,6
351,0.10229492,-0.034851074,0.018127441,9.702291,-18.564886,183.45038,6
352,0.097717285,-0.033081055,0.025024414,65.503815,-20.603054,162.2519,6
353,0.09472656,-0.024353027,0.025390625,97.03053,-13.229008,139.42747,6
354,0.085754395,-0.018981934,0.032470703,105.8855,-6.4351144,112.16031,6
355,0.07611084,-0.015380859,0.04248047,100.19847,-5.8778625,81.79389,6
356,0.06726074,-0.01361084,0.046142578,91.84733,-10.664123,49.160305,6
357,0.06616211,-0.012023926,0.05090332,73.51145,-17.793894,13.687023,6
358,0.072753906,-0.0115356445,0.049804688,42.030533,-26.725191,-29.312977,6
359,0.08013916,-0.01159668,0.04345703,8.061069,-32.160305,-55.038166,6
360,0.097961426,-0.012207031,0.046142578,-22.06107,-41.84733,-112.061066,6
361,0.12005615,-0.015258789,0.031311035,-46.068703,-51.89313,-158.61832,6
362,0.14361572,-0.021606445,0.028686523,-61.374046,-67.00764,-204.0458,6
363,0.16656494,-0.03326416,0.036132812,-57.755726,-73.80916,-243.46565,6
364,0.16479492,-0.04888916,0.048583984,-21.167938,-82.67175,-250.1374,6
365,0.15667725,-0.053466797,0.047729492,41.076336,-91.824425,-250.1374,6
366,0.14434814,-0.040405273,0.034973145,82.98473,-90.30534,-244.54199,6
367,0.13800049,-0.022949219,0.017822266,78.89313,-74.28244,-195.27481,6
368,0.13964844,-0.0068359375,0.015808105,41.946564,-45.85496,-142,6
369,0.1517334,0.005126953,0.01965332,-11.297709,-30.022902,-77.580154,6
370,0.16119385,-0.0056762695,0.025024414,-64.24428,-14.870229,-36.717556,6
371,0.15447998,-0.016418457,0.033447266,-110.51145,-9.022901,1.6335878,6
372,0.1418457,-0.034851074,0.03765869,-143.71756,-15.893129,10.702291,6
373,0.12713623,-0.04925537,0.040100098,-139.22137,-18.48855,1.6793894,6
374,0.11224365,-0.05029297,0.040893555,-103.183205,-24.854961,-10.877863,6
375,0.09967041,-0.04638672,0.03857422,-50.908398,-24.076336,-11.725191,6
376,0.098083496,-0.038269043,0.04248047,-11.862596,-21.160305,-5.519084,6
377,0.10131836,-0.029174805,0.042663574,-2.4885497,-19.114504,-0.6793893,6
378,0.105651855,-0.024902344,0.041015625,-5.259542,-12.839695,7.038168,6
379,0.10949707,-0.026000977,0.045898438,-10.5801525,-5.3816795,12.549619,6
380,0.11376953,-0.027709961,0.047607422,-6.4961834,0.08396947,14.4198475,6
381,0.11645508,-0.02722168,0.049621582,-2.870229,5.3587785,8.145039,6
382,0.11376953,-0.028930664,0.047729492,2.0610688,5.1603055,1.7480916,6
383,0.11376953,-0.032409668,0.047424316,10.908397,3.0458016,-15.564885,6
384,0.120910645,-0.03729248,0.048217773,24.832062,2.6183207,-30.778625,6
385,0.123046875,-0.03704834,0.046081543,43,2.6335878,-55.412212,6
386,0.13226318,-0.0368042,0.042114258,54.335876,7.1755724,-54.305344,6
387,0.13537598,-0.0368042,0.045410156,57.366413,16.480917,-54.21374,6
388,0.1383667,-0.0357666,0.039123535,55.84733,29.91603,-54.53435,6
389,0.13415527,-0.03112793,0.034973145,39.65649,47.59542,-35.282444,6
390,0.124938965,-0.022949219,0.026123047,4.6564884,64.57252,-1.2748091,6
391,0.12561035,-0.02130127,0.01940918,-41.923664,66.60305,40.068703,6
392,0.14221191,-0.026428223,0.018432617,-69.938934,63.15267,83.26717,6
393,0.15386963,-0.03326416,0.010986328,-78.618324,62.20611,124.67175,6
394,0.15966797,-0.03363037,0.008728027,-72.96947,53.221375,154.80916,6
395,0.16448975,-0.028930664,0.004211426,-56.969467,35.67939,176.85497,6
396,0.1652832,-0.02960205,0.009460449,-33.49618,16.229008,194.01527,6
397,0.1586914,-0.027893066,0.0099487305,-6.374046,-0.66412216,198.18321,6
398,0.14691162,-0.026489258,0.015686035,20.541985,-9.648855,192.7939,6
399,0.12750244,-0.028747559,0.021484375,42.0229,-21.259542,181.46565,6
400,0.11016846,-0.029052734,0.026733398,64.98473,-25.648855,167.03053,6
401,0.097473145,-0.02722168,0.035888672,90.55725,-28.045801,150.12213,6
402,0.09289551,-0.024658203,0.034973145,105.70992,-22.480917,128.35878,6
403,0.087890625,-0.018310547,0.034179688,105.816795,-15.916031,105.229004,6
404,0.076416016,-0.015686035,0.039794922,90.10687,-8.763359,80.43511,6
405,0.06896973,-0.012573242,0.047546387,72.73283,-10.015267,56.32061,6
406,0.0725708,-0.012145996,0.047668457,49.748093,-15.541985,26.633587,6
407,0.08758545,-0.0095825195,0.023864746,27.274809,-21.61832,-3.557252,6
408,0.08532715,-0.016479492,0.048828125,11.114504,-26.450382,-48.25954,6
409,0.09399414,-0.019897461,0.042907715,-1.038168,-28.74809,-77.75572,6
410,0.10308838,-0.020080566,0.039245605,-11.549619,-31.213741,-113.20611,6
411,0.12854004,-0.017456055,0.031799316,-24.022902,-37.23664,-150.84734,6
412,0.14556885,-0.01763916,0.029724121,-44.862595,-41.435116,-176.61832,6
413,0.16394043,-0.022766113,0.027709961,-62.46565,-45.908398,-200.49619,6
414,0.16534424,-0.031433105,0.033569336,-75.618324,-48.61832,-213.90076,6
415,0.15246582,-0.03643799,0.036132812,-72.229004,-49.519085,-216.3435,6
416,0.13970947,-0.03491211,0.033081055,-73.08397,-40.16794,-198.10687,6
417,0.12554932,-0.03717041,0.028503418,-79.458015,-35.49618,-168.45801,6
418,0.12719727,-0.037597656,0.025878906,-74.99236,-29.580153,-127.74809,6
419,0.13684082,-0.03338623,0.020996094,-56.450382,-24.465649,-78.70992,6
420,0.14703369,-0.029724121,0.019104004,-52.458015,-16.641222,-54.14504,6
421,0.15447998,-0.029296875,0.020324707,-57.519085,-12.198473,-18.656488,6
422,0.15045166,-0.029907227,0.024536133,-62.671757,-9.625955,-2.2824428,6
423,0.13580322,-0.034118652,0.028076172,-62.389313,-11.824428,0.6183206,6
424,0.11633301,-0.040039062,0.034118652,-56.20611,-15.480916,-5.6412215,6
425,0.10229492,-0.04046631,0.0357666,-44.08397,-20.099237,-14.488549,6
426,0.09527588,-0.036987305,0.04345703,-18.954199,-17.664122,-12.916031,6
427,0.09362793,-0.02960205,0.047424316,-13.572519,-16.603054,-14.083969,6
428,0.093688965,-0.021362305,0.04296875,-30.114504,-5.3053436,-8.351145,6
429,0.099365234,-0.024291992,0.039001465,-57.34351,-0.26717559,-12.877863,6
430,0.10736084,-0.031982422,0.042175293,-59.770992,11.358779,-18.67939,6
431,0.111328125,-0.03491211,0.044006348,-47.862595,15.557252,-20.282442,6
432,0.11517334,-0.036621094,0.040649414,-33.335876,12.396947,-26.557251,6
433,0.123535156,-0.038330078,0.042175293,-17.343512,11.335877,-33.366413,6
434,0.12957764,-0.040100098,0.039978027,1.9160305,8.40458,-46.328243,6
435,0.13092041,-0.041015625,0.038269043,23.282442,5.0152674,-42.44275,6
436,0.1408081,-0.041748047,0.035217285,37.89313,-0.60305345,-47.015266,6
437,0.13989258,-0.04034424,0.03765869,48.587788,5.40458,-35.076336,6
438,0.13946533,-0.042785645,0.03375244,54.435116,8.267176,-24.503817,6
439,0.13214111,-0.041503906,0.031921387,53.328243,19.832062,0.099236645,6
440,0.1227417,-0.040405273,0.031311035,55.801525,29.08397,28.557251,6
441,0.11541748,-0.034484863,0.027648926,53.46565,30.931297,63.015266,6
442,0.13183594,-0.0335083,0.023132324,52.603054,32.52672,87.503815,6
443,0.1459961,-0.032287598,0.017456055,57.190838,40.79389,110.816795,6
444,0.1574707,-0.026184082,0.012451172,61.961834,49.12214,126.57252,6
445,0.16638184,-0.022521973,0.009216309,54.93893,50.251907,140.32825,6
446,0.16986084,-0.020568848,0.015319824,43.885498,46.068703,150.85497,6
447,0.1638794,-0.016479492,0.018981934,28.610687,36.603054,160.89313,6
448,0.14886475,-0.014709473,0.022644043,0.8778626,22.76336,169.67938,6
449,0.1317749,-0.02142334,0.02142334,-25.435114,12.229008,167.53435,6
450,0.113098145,-0.024291992,0.026977539,-17.221375,1.5114504,167.10687,6
451,0.103393555,-0.026611328,0.03173828,5.89313,-2.5267177,161.7939,6
452,0.10491943,-0.026000977,0.027282715,32.755726,-6.19084,150.27481,6
453,0.099731445,-0.02520752,0.026855469,52.778625,-2.6564887,131.74046,6
454,0.091552734,-0.021972656,0.030883789,65.9313,2.70229,114.07633,6
455,0.08251953,-0.019348145,0.036010742,73.27481,1.1984733,91.40458,6
456,0.08154297,-0.015563965,0.037475586,67.24428,-5.0916033,63.900764,6
457,0.08117676,-0.014404297,0.039245605,57.251907,-10.427481,32.10687,6
458,0.084106445,-0.013916016,0.038635254,38.38168,-15.526717,-7.8320613,6
459,0.08642578,-0.01550293,0.037597656,11.137404,-21.603054,-55.84733,6
460,0.10296631,-0.015930176,0.033081055,-9.412213,-30.404581,-90.29008,6
461,0.1105957,-0.01763916,0.029418945,-27.282442,-42.64122,-128.90076,6
462,0.12365723,-0.019470215,0.030273438,-38.93893,-49.290077,-171.73282,6
463,0.1281128,-0.023986816,0.028747559,-47.72519,-59.015266,-202.25954,6
464,0.12890625,-0.032348633,0.040283203,-38.183205,-67.51908,-223.58015,6
465,0.1338501,-0.036254883,0.04473877,-17.435114,-73.9771,-233.72519,6
466,0.14019775,-0.039123535,0.038513184,15.267176,-74.9771,-229.12978,6
467,0.15057373,-0.032043457,0.031188965,34.648853,-66.37405,-214.92366,6
468,0.16729736,-0.020019531,0.02368164,31.419847,-47.129772,-181.50381,6
469,0.1694336,-0.006652832,0.026550293,-12.7404585,-22.656488,-130.99237,6
470,0.16516113,-0.0022583008,0.031677246,-86.381676,-9.526717,-72.9542,6
471,0.16491699,-0.008605957,0.029968262,-151.46565,-7.2824426,-37.015266,6
472,0.1593628,-0.022460938,0.035949707,-193.0458,-6.816794,-5.0076337,6
473,0.13812256,-0.04071045,0.029968262,-196.3435,-8.343512,4.8244276,6
474,0.11254883,-0.04815674,0.026000977,-164.9771,-6.2366414,3.0458016,6
475,0.09527588,-0.049621582,0.02545166,-110.26717,-4.3511453,0.19847329,6
476,0.08880615,-0.04711914,0.028137207,-51.91603,-2.961832,-6.5343513,6
477,0.089782715,-0.044128418,0.032104492,-4.854962,-1.2366412,-16.732824,6
478,0.08905029,-0.037475586,0.03692627,18.931297,1.167939,-28.656488,6
479,0.09436035,-0.033447266,0.038635254,23.007633,1.7251909,-38.458015,6
480,0.101135254,-0.032104492,0.0413208,15.816793,0.22137405,-48.08397,6
481,0.11328125,-0.031555176,0.05267334,2.9694657,1.038168,-46.17557,6
482,0.1161499,-0.03765869,0.04144287,-2.1221373,-0.5114504,-54.458015,6
483,0.12176514,-0.042297363,0.04095459,6.3053436,-0.35114503,-54.717556,6
484,0.12719727,-0.043029785,0.041992188,16.51145,1.4656489,-47.61832,6
485,0.13952637,-0.039978027,0.037963867,24.717558,-1.1984733,-30.595419,6
486,0.1552124,-0.04095459,0.037109375,34.664124,3.3664122,-12.977099,6
487,0.1496582,-0.04107666,0.039245605,44.91603,6.0076337,12.053435,6
488,0.14465332,-0.035583496,0.036254883,45.221375,12.801527,36.29771,6
489,0.13519287,-0.033813477,0.031066895,49.27481,19.801527,63.137405,6
490,0.11828613,-0.029296875,0.026611328,41.51145,27.786259,92.63359,6
491,0.12426758,-0.030334473,0.019104004,39.21374,23.992367,107.740456,6
492,0.14337158,-0.03338623,0.017089844,56.83206,33.59542,117.72519,6
493,0.15216064,-0.033691406,0.014465332,80.900764,41.74046,120.12214,6
494,0.16168213,-0.024658203,0.008361816,79.96183,47.076336,118.62595,6
495,0.16040039,-0.018798828,0.010925293,65.83206,44.328243,126.19084,6
496,0.15325928,-0.016601562,0.01574707,43.21374,34.34351,134.61069,6
497,0.14257812,-0.018188477,0.024108887,20.221375,22.610687,142.41222,6
498,0.13256836,-0.0178833,0.021606445,-5.6564884,14.633588,145.90076,6
499,0.1182251,-0.023498535,0.021362305,-17.91603,6.5114503,147.9771,6
500,0.10455322,-0.030395508,0.026428223,0.35877863,0,143.41985,6
501,0.10595703,-0.025756836,0.025146484,20.374046,-2.3816793,136.40459,6
502,0.1026001,-0.024108887,0.023986816,38.305344,0.061068702,125.36641,6
503,0.09802246,-0.023376465,0.027893066,48.480915,4.0458016,110.70992,6
504,0.093566895,-0.019104004,0.03161621,54.610687,3.7328243,93.07633,6
505,0.095825195,-0.016479492,0.03289795,46.79389,1.2442749,66.48855,6
506,0.094177246,-0.016418457,0.03540039,34.923664,-2.053435,39.076336,6
507,0.0970459,-0.016906738,0.036315918,19.519083,-5.2061067,6.328244,6
508,0.10418701,-0.01586914,0.027770996,2.7251909,-9.854961,-33.412212,6
509,0.11773682,-0.017456055,0.024963379,-12.633588,-16.206106,-60.992367,6
510,0.1171875,-0.021362305,0.02722168,-19.977098,-23.641222,-101.27481,6
511,0.119384766,-0.024414062,0.033081055,-23.70229,-36.770992,-135.9542,6
512,0.109436035,-0.028564453,0.040405273,-22.442749,-45.38168,-160.22137,6
513,0.105285645,-0.03149414,0.0423584,-18.122137,-54.480915,-175.62596,6
514,0.109436035,-0.026855469,0.037841797,-20.312977,-53.412212,-173.06107,6
515,0.13116455,-0.023254395,0.029724121,-22.442749,-46.65649,-171.37404,6
516,0.14654541,-0.017150879,0.021484375,-29.557251,-30.923664,-151.771,6
517,0.15917969,-0.014099121,0.018432617,-51.198475,-19.412214,-127.26717,6
518,0.16973877,-0.019104004,0.020263672,-81.908394,-16.122137,-106.25191,6
519,0.17071533,-0.0256958,0.027648926,-102.419846,-13.671756,-89.29008,6
520,0.1583252,-0.033996582,0.030090332,-114.91603,-18.961832,-85.778625,6
521,0.13977051,-0.039978027,0.030944824,-110.76336,-27.625954,-91.15267,6
522,0.1194458,-0.045837402,0.026611328,-81.58778,-28.984734,-86.57252,6
523,0.107177734,-0.046813965,0.027893066,-37.65649,-28.877863,-81.9542,6
524,0.105529785,-0.04724121,0.031921387,4.3435116,-30.206106,-83.80916,6
525,0.108947754,-0.04333496,0.03363037,35.435116,-24.717558,-79.259544,6
526,0.109191895,-0.037231445,0.040527344,40.931297,-25.137405,-78.28244,6
527,0.11212158,-0.036193848,0.047912598,33.015266,-23.694656,-73.778625,6
528,0.117126465,-0.03729248,0.050842285,16.717558,-22.93893,-67.137405,6
529,0.12695312,-0.044006348,0.056274414,12.755725,-17.877863,-60.068703,6
530,0.13165283,-0.051696777,0.059753418,16.358778,-11.641221,-54.335876,6
531,0.13079834,-0.05206299,0.054748535,28.603054,-0.9312977,-54.633587,6
532,0.15264893,-0.046081543,0.044189453,37.648853,8.854961,-31.541985,6
533,0.15563965,-0.04107666,0.040222168,43.10687,32.46565,5.854962,6
534,0.1583252,-0.030273438,0.04144287,26.335878,50.541985,43.183205,6
535,0.15679932,-0.026184082,0.036254883,-4.587786,66.53435,89.32825,6
536,0.1317749,-0.024414062,0.03326416,-34.114502,77.16031,132.96184,6
537,0.12164307,-0.024230957,0.025634766,-50.030533,72.03817,169.72519,6
538,0.14569092,-0.026062012,0.016662598,-48.15267,62.038166,188.0916,6
539,0.1628418,-0.03375244,0.011474609,-19.053434,60.25954,199.60306,6
540,0.1763916,-0.036865234,0.0076293945,17.259542,62.183205,192.48856,6
541,0.18109131,-0.031311035,0.005432129,45.335876,53.946564,178.2061,6
542,0.17456055,-0.020568848,0.00970459,46.48855,43.732826,163.771,6
543,0.16448975,-0.015808105,0.011352539,29.030535,29.198473,157.73282,6
544,0.14660645,-0.014038086,0.017700195,6.4732823,12.435115,157.50381,6
545,0.12548828,-0.019226074,0.020019531,-12.969465,-0.24427481,157.67175,6
546,0.1083374,-0.019897461,0.032836914,-16.694656,-5.7480917,157.70229,6
547,0.08880615,-0.026855469,0.027648926,-1.5496184,-13.045801,153.09924,6
548,0.09136963,-0.027893066,0.025390625,24.839695,-16.160305,141.54199,6
549,0.08935547,-0.022033691,0.02508545,53.82443,-15.748092,133.33588,6
550,0.07684326,-0.00982666,0.031799316,67.32061,-13.061069,115.92367,6
551,0.06677246,0.0006103516,0.038208008,66.061066,-13.015267,83.96183,6
552,0.066711426,-0.0078125,0.046081543,53.48855,-18.229008,45.84733,6
553,0.07623291,-0.019226074,0.050720215,40.007633,-23.946566,-14.320611,6
554,0.0803833,-0.019958496,0.045532227,26.61832,-20.641222,-54.48855,6
555,0.09625244,-0.014587402,0.030822754,11.564885,-28.206106,-114.091606,6
556,0.12359619,-0.012207031,0.029418945,-14.366412,-30.480917,-155.7481,6
557,0.13812256,-0.01776123,0.023620605,-35.389313,-41.755726,-189.89313,6
558,0.15447998,-0.022521973,0.029296875,-47.93893,-50.564884,-219.70229,6
559,0.15148926,-0.036865234,0.03869629,-48.694656,-54.396946,-244.57253,6
560,0.14678955,-0.04473877,0.046447754,-23.931297,-66.37405,-250.1374,6
561,0.14123535,-0.0435791,0.03491211,1.3129771,-63.48855,-246.91603,6
562,0.14813232,-0.031311035,0.019897461,13.732824,-59.687023,-223.92366,6
563,0.15875244,-0.026245117,0.013549805,9.320611,-45.755726,-172.1374,6
564,0.1586914,-0.017333984,0.020141602,-10.312977,-26.603054,-113.51145,6
565,0.15985107,-0.008544922,0.03137207,-56.32061,-21.160305,-54.412212,6
566,0.16265869,-0.014099121,0.027038574,-109.580154,-12.648855,-20.366413,6
567,0.15686035,-0.022949219,0.027770996,-150.45801,-15.671756,-0.39694658,6
568,0.14691162,-0.036315918,0.024536133,-167.56488,-17.022902,-1.1908396,6
569,0.12402344,-0.042419434,0.033691406,-156.71756,-15.167939,-13.793893,6
570,0.086364746,-0.053833008,0.044189453,-118.770996,-9.328244,-20.992367,6
571,0.06506348,-0.058410645,0.051818848,-63.664124,-13.229008,-49.38168,6
572,0.08306885,-0.061401367,0.05126953,-5.2290077,-14.022901,-67.08397,6
573,0.097473145,-0.055480957,0.05090332,43.290077,-5.183206,-83.8855,6
574,0.105651855,-0.049194336,0.04815674,63.12214,6.2900763,-97.862595,6
575,0.12225342,-0.043151855,0.045776367,63.14504,14.664123,-97.778625,6
576,0.14117432,-0.03668213,0.046875,40.839695,23.687023,-78.32825,6
577,0.14581299,-0.037841797,0.048583984,10.992367,30.328245,-54.427483,6
578,0.14910889,-0.038085938,0.041931152,-13.526717,30.923664,-11.862596,6
579,0.16595459,-0.040405273,0.030456543,-26.290077,27.282442,33.87786,6
580,0.14819336,-0.04071045,0.036987305,-19.282442,27.175573,84.30534,6
581,0.15777588,-0.036865234,0.03540039,-18.335878,22.030535,112.41222,6
582,0.16296387,-0.03668213,0.02746582,-4.923664,25.839695,142.1374,6
583,0.13928223,-0.036193848,0.025512695,8.450381,39.27481,163.229,6
584,0.1329956,-0.026367188,6.1035156E-05,16.045801,36.84733,179.16794,6
585,0.14263916,-0.022399902,0.009216309,33.923664,39.412212,177.46565,6
586,0.14764404,-0.02545166,0.011230469,57.78626,45.290077,177.29007,6
587,0.15563965,-0.025146484,0.009887695,67.51908,46.15267,157.61069,6
588,0.15631104,-0.024780273,0.010803223,53.992367,42.755726,137,6
589,0.14953613,-0.018127441,0.010437012,23.175573,33.038166,119.48092,6
590,0.13763428,-0.013427734,0.01159668,-12.503817,16.328245,113.80153,6
591,0.11859131,-0.016357422,0.018005371,-37.480915,-4.2366414,112.87023,6
592,0.09942627,-0.028442383,0.021362305,-40.23664,-17.328245,107.70992,6
593,0.08337402,-0.03552246,0.030395508,-17.145039,-24.786259,103.9313,6
594,0.08251953,-0.03845215,0.030700684,26.458015,-33.717556,88.221375,6
595,0.085632324,-0.035583496,0.030944824,75.64886,-33.045803,78.53435,6
596,0.0848999,-0.030151367,0.033325195,112.36641,-29.38168,70.618324,6
597,0.084106445,-0.0211792,0.04095459,129.45038,-21.832062,57.290077,6
598,0.0847168,-0.014343262,0.049743652,124.67939,-14.015267,40.190838,6
599,0.08795166,-0.0061035156,0.05206299,94.67175,-9.984733,12.633588,6
600,0.09118652,-0.0044555664,0.050109863,44.419846,-9.572519,-23.664122,6
601,0.089904785,-0.008728027,0.047180176,-17.335878,-10.503817,-54.46565,6
602,0.11871338,-0.012573242,0.037109375,-59.82443,-17.70229,-99.24428,6
603,0.12896729,-0.018859863,0.03326416,-86.816795,-21.442749,-128.57253,6
604,0.13928223,-0.02557373,0.033996582,-97.72519,-28.664122,-167.90076,6
605,0.14117432,-0.03375244,0.034423828,-102.12977,-33.396946,-195.12213,6
606,0.13604736,-0.039978027,0.035827637,-87.80153,-34.549618,-211.38168,6
607,0.1274414,-0.042785645,0.035461426,-58.862595,-34.16794,-209.87022,6
608,0.12664795,-0.041625977,0.026550293,-33.15267,-32.694656,-192.98473,6
609,0.13830566,-0.035949707,0.02319336,-16.839695,-30.57252,-166.12978,6
610,0.15161133,-0.030456543,0.01940918,-15.0992365,-21.847328,-122.29771,6
611,0.15826416,-0.020019531,0.017456055,-33.305344,-14.832061,-77.62595,6
612,0.16711426,-0.022705078,0.018554688,-61.129772,-20.801527,-54.38168,6
613,0.17132568,-0.024719238,0.025024414,-81.00764,-21.740458,-22.931297,6
614,0.15258789,-0.03466797,0.02709961,-84.229004,-23.93893,-14.793893,6
615,0.12384033,-0.045532227,0.030273438,-71.458015,-28.366413,-23.503817,6
616,0.09411621,-0.047302246,0.034606934,-44.49618,-31.175573,-35.335876,6
617,0.08190918,-0.043701172,0.036010742,-7.4503818,-34.38168,-39.732826,6
618,0.0848999,-0.03930664,0.037841797,23.832062,-37.572517,-45.23664,6
619,0.09118652,-0.03265381,0.038391113,30.74809,-33.687023,-54.89313,6
620,0.0993042,-0.034423828,0.04168701,31.755726,-31.824427,-54.198475,6
621,0.10949707,-0.04034424,0.051330566,39.267174,-28.206106,-54.49618,6
622,0.11755371,-0.044067383,0.059020996,54.59542,-23.91603,-65.80916,6
623,0.12432861,-0.042663574,0.0602417,61.778625,-18.91603,-70.419846,6
624,0.13256836,-0.04119873,0.058654785,61.412212,-13.610687,-56.198475,6
625,0.1430664,-0.038330078,0.055114746,66.221375,-2.1374047,-54.32061,6
626,0.16186523,-0.033447266,0.04559326,66.43511,13.519084,-31.992367,6
627,0.16088867,-0.02520752,0.040893555,54.198475,44.419846,2.4732823,6
628,0.1593628,-0.021728516,0.03967285,27.908398,65.27481,36.70229,6
629,0.15148926,-0.020202637,0.03894043,-11.038168,81.75572,74.56489,6
630,0.13970947,-0.01977539,0.030700684,-47.06107,88.71756,109.40458,6
631,0.12426758,-0.01977539,0.024047852,-69.15267,92.61069,143.17557,6
632,0.14251709,-0.021484375,0.011413574,-83.23664,77.87023,161.32825,6
633,0.15496826,-0.030456543,0.01171875,-66.419846,70.58778,176.39694,6
634,0.16290283,-0.034118652,0.006286621,-33.099236,67.80916,171.90076,6
635,0.16308594,-0.031555176,0.0032348633,-7.259542,55.580154,163.63359,6
636,0.15960693,-0.02557373,0.0051879883,7.6946564,40.389313,149.91603,6
637,0.15118408,-0.020202637,0.007873535,8.442748,26.48855,142.83969,6
638,0.13543701,-0.020080566,0.008300781,-2.961832,8.0992365,134.45038,6
639,0.117004395,-0.023986816,0.009887695,-3.167939,-8.175572,129.21375,6
640,0.099731445,-0.028320312,0.012512207,14.106871,-18.740458,122.10687,6
641,0.0869751,-0.029296875,0.023925781,37.816795,-27.435114,118.05344,6
642,0.08618164,-0.032470703,0.030273438,70.42748,-24.984734,109.67939,6
643,0.090026855,-0.02178955,0.0234375,94.137405,-24.022902,102.94656,6
644,0.08654785,-0.014099121,0.02355957,93.36641,-15.648855,90.816795,6
645,0.08239746,-0.012084961,0.029296875,76.67939,-9.328244,67.70229,6
646,0.082336426,-0.009155273,0.03869629,51.923664,-8.152672,39.65649,6
647,0.08013916,-0.010803223,0.045654297,27.74809,-9.38168,3.7862597,6
648,0.075927734,-0.016845703,0.049987793,2.8244274,-15.847328,-43.91603,6
649,0.0848999,-0.011962891,0.02508545,-35.709923,-20.419847,-76.34351,6
650,0.103393555,-0.016113281,0.035217285,-56.694656,-29.770992,-126.31298,6
651,0.12017822,-0.019104004,0.030883789,-69.61069,-36.839695,-169.69466,6
652,0.1461792,-0.024414062,0.030761719,-73.51145,-44.961834,-214.30534,6
653,0.15490723,-0.034606934,0.03643799,-67.32825,-47.51145,-245.56488,6
654,0.15826416,-0.043395996,0.043273926,-43.08397,-53,-250.1374,6
655,0.15789795,-0.04473877,0.03881836,-13.038168,-54.816795,-250.1374,6
656,0.14971924,-0.040039062,0.030944824,-1.1908396,-50.23664,-245.07634,6
657,0.15075684,-0.03668213,0.019348145,-6.3587785,-38.46565,-200.58778,6
658,0.15618896,-0.036132812,0.026123047,-19.29771,-23.198473,-137.21375,6
659,0.15472412,-0.016479492,0.020019531,-38.23664,-15.435115,-63.53435,6
660,0.16229248,-0.016174316,0.023498535,-70,-13.274809,-8.083969,6
661,0.15948486,-0.023376465,0.026306152,-104.061066,-17.366413,26.900763,6
662,0.14196777,-0.039611816,0.028198242,-116.89313,-15.625955,39.312977,6
663,0.11706543,-0.053344727,0.029785156,-103.458015,-18.70229,28.725191,6
664,0.09503174,-0.05456543,0.03704834,-60.030533,-21.343512,14.122137,6
665,0.08050537,-0.04473877,0.03894043,-8.106871,-23.183207,10.152672,6
666,0.07678223,-0.034484863,0.041381836,15.320611,-22.496183,8.503817,6
667,0.08685303,-0.03149414,0.03527832,13.824428,-21.900763,0.061068702,6
668,0.093811035,-0.032470703,0.043762207,15.938931,-18.221375,-9.022901,6
669,0.106933594,-0.034240723,0.04534912,18.709923,-11.343512,-19.557251,6
670,0.11694336,-0.03527832,0.049438477,24.450382,-8.671756,-25.633587,6
671,0.12310791,-0.036376953,0.05407715,27.816793,-8,-28.694656,6
672,0.12841797,-0.04144287,0.056884766,36.27481,-9.267176,-31.694656,6
673,0.13348389,-0.044433594,0.055419922,57.480915,-7.2900763,-29.931297,6
674,0.14648438,-0.0413208,0.04864502,82.57252,-4.4656487,-21.687023,6
675,0.16296387,-0.03643799,0.04498291,103.94656,12.007633,-17.564886,6
676,0.16589355,-0.025512695,0.039367676,102.57252,31.76336,-3.8015268,6
677,0.16143799,-0.016418457,0.037963867,73.938934,56.34351,18.923664,6
678,0.1352539,-0.014221191,0.03692627,26.961832,79.43511,48.44275,6
679,0.10845947,-0.013244629,0.032409668,-22.48855,82.76336,83.24428,6
680,0.12207031,-0.01586914,0.023864746,-50.15267,77.98473,103.61069,6
681,0.13769531,-0.026000977,0.01977539,-53.099236,78.83206,118.854965,6
682,0.15075684,-0.034729004,0.010986328,-32.14504,81.71756,117.89313,6
683,0.15814209,-0.0345459,0.005126953,-16.404581,79.137405,111.145035,6
684,0.1515503,-0.025390625,0.003540039,-11.290076,70.854965,110.35878,6
685,0.14385986,-0.01776123,0.008666992,-31.74809,47.244274,111.84733,6
686,0.1326294,-0.018127441,0.014831543,-51.52672,22.89313,117.96947,6
687,0.11053467,-0.028381348,0.017333984,-50.64122,1.9312977,118.908394,6
688,0.093566895,-0.035339355,0.02166748,-22.160305,-18.503817,116.0229,6
689,0.07867432,-0.03967285,0.034057617,25.76336,-30.435114,111.19847,6
690,0.08935547,-0.039489746,0.034301758,84.12214,-38.9771,103.908394,6
691,0.0960083,-0.030700684,0.032287598,129.42747,-35.931297,98.94656,6
692,0.092285156,-0.021118164,0.031982422,139.69466,-24.076336,89.458015,6
693,0.08996582,-0.012634277,0.03778076,123.0458,-11.564885,68.19084,6
694,0.08935547,-0.00579834,0.047546387,95.05344,-2.5877862,43.27481,6
695,0.09350586,-0.0044555664,0.05114746,48.969467,-1.7709924,14.2595415,6
696,0.09295654,-0.0061035156,0.048583984,-4.5114503,-0.9541985,-21.89313,6
697,0.09765625,-0.010253906,0.03845215,-52.229008,-8.687023,-54.572517,6
698,0.122680664,-0.011291504,0.032958984,-85.580154,-15.175572,-87.091606,6
699,0.1270752,-0.018432617,0.030456543,-107.36641,-21.23664,-122.65649,6
700,0.13598633,-0.02734375,0.032958984,-113.70992,-26.42748,-161.67938,6
701,0.13427734,-0.03515625,0.035827637,-110.091606,-32.51145,-189.69466,6
702,0.12878418,-0.03869629,0.03894043,-90.10687,-34.65649,-206.23665,6
703,0.123168945,-0.037597656,0.03881836,-65.03053,-37.885498,-207.47328,6
704,0.123535156,-0.038024902,0.033203125,-37.16794,-33.85496,-194.93893,6
705,0.14013672,-0.0345459,0.027648926,-16.587786,-32.290077,-177.90076,6
706,0.16448975,-0.029418945,0.022033691,-15.931297,-23.801527,-144.06107,6
707,0.17529297,-0.021911621,0.017333984,-35.389313,-7.7862597,-101.35114,6
708,0.17456055,-0.020202637,0.027038574,-73.0687,-8.7404585,-52.87786,6
709,0.16461182,-0.028808594,0.030578613,-100.12214,-7.6106873,-46.198475,6
710,0.13848877,-0.03753662,0.0357666,-109.541985,-14.129771,-27.755726,6
711,0.11206055,-0.044677734,0.03479004,-100.65649,-19.122137,-19.656488,6
712,0.08679199,-0.04663086,0.03265381,-70.51145,-19.816793,-16.435114,6
713,0.080566406,-0.045776367,0.032287598,-28.458015,-20.908398,-13.068703,6
714,0.08935547,-0.038879395,0.015991211,1.8396946,-19.931297,-8.824428,6
715,0.08868408,-0.039245605,0.036071777,25.519083,-15.839695,-23.465649,6
716,0.09564209,-0.03643799,0.041809082,30.267176,-12.664123,-34.732826,6
717,0.1048584,-0.038330078,0.045166016,27.70229,-14.450381,-50.198475,6
718,0.11260986,-0.040161133,0.047058105,24.755726,-11.465649,-54.55725,6
719,0.1217041,-0.04345703,0.049072266,31.099237,-12.687023,-54.50382,6
720,0.13470459,-0.049194336,0.048461914,45.64122,-11.427481,-54.70229,6
721,0.14123535,-0.0491333,0.04864502,66.38931,-2.610687,-31.755726,6
722,0.15454102,-0.039794922,0.04284668,80.52672,2.923664,-11.251908,6
723,0.16583252,-0.027282715,0.03668213,77.770996,21.862595,22.229008,6
724,0.16253662,-0.022521973,0.038879395,59.290077,36.78626,57.25954,6
725,0.16320801,-0.016540527,0.03729248,23.198473,50.694656,87.221375,6
726,0.14099121,-0.020202637,0.036376953,-8.80916,62.251907,116.07633,6
727,0.11578369,-0.020874023,0.032165527,-29.824427,64.83206,142.69466,6
728,0.1182251,-0.021606445,0.023742676,-40.79389,55.16794,159.37404,6
729,0.13555908,-0.024475098,0.017028809,-36.55725,54.030533,162.19084,6
730,0.14648438,-0.03125,0.013122559,-5.7862597,52.32061,155.99237,6
731,0.15740967,-0.034423828,0.0076904297,27.534351,48.93893,135.30534,6
732,0.15600586,-0.030090332,0.008972168,51.580154,46.549618,111.32825,6
733,0.14428711,-0.018066406,0.012817383,38.030533,35.458015,94.94656,6
734,0.13311768,-0.016784668,0.015075684,7.625954,20.854961,90.46565,6
735,0.1161499,-0.017089844,0.017822266,-15.78626,5.1679387,88.16794,6
736,0.097961426,-0.029174805,0.020141602,-18.183207,-7.6488547,90.83969,6
737,0.08294678,-0.035461426,0.030822754,8.59542,-17.564886,85.83969,6
738,0.08312988,-0.03778076,0.03137207,48.748093,-24.610687,81.54962,6
739,0.08831787,-0.029724121,0.028930664,87.35878,-23.12977,77.541985,6
740,0.08538818,-0.022766113,0.028381348,106.70992,-21.076336,71.1145,6
741,0.08203125,-0.017211914,0.034118652,107.51145,-15.946565,56.732826,6
742,0.08544922,-0.012573242,0.041625977,91.00764,-15.7404585,34.40458,6
743,0.08947754,-0.010070801,0.044677734,62.29771,-16.610687,7.4503818,6
744,0.09436035,-0.01184082,0.04144287,20.221375,-19.412214,-29.183207,6
745,0.09838867,-0.01373291,0.038024902,-20.274809,-29.198473,-54.65649,6
746,0.12298584,-0.014709473,0.033447266,-44.221375,-39.541985,-95.29771,6
747,0.1362915,-0.015319824,0.02911377,-64.33588,-44.137405,-131.69466,6
748,0.14935303,-0.023132324,0.029663086,-79.0458,-52.587788,-170.99237,6
749,0.15197754,-0.03186035,0.03564453,-80.770996,-55.35878,-200.12978,6
750,0.14447021,-0.03869629,0.044189453,-66.900764,-57.34351,-218.7481,6
751,0.13378906,-0.037963867,0.043640137,-51.076336,-54.67939,-214.00763,6
752,0.1274414,-0.031921387,0.039794922,-46.251907,-42.923664,-192.48091,6
753,0.13952637,-0.025878906,0.030700684,-53.64122,-40.312977,-163.229,6
754,0.14801025,-0.026306152,0.015197754,-65.89313,-19.435114,-115.37405,6
755,0.15283203,-0.01977539,0.023254395,-77.56489,-1.8625954,-57.44275,6
756,0.15625,-0.02355957,0.021972656,-111.816795,3.221374,-26,6
757,0.15673828,-0.024353027,0.025817871,-135.48091,7.0839696,-0.46564886,6
758,0.14416504,-0.03173828,0.02154541,-150.0916,5.625954,14.038168,6
759,0.12561035,-0.038757324,0.02130127,-146.44275,2.8778627,10.923664,6
760,0.09979248,-0.045715332,0.023864746,-125.38931,-2.221374,1.259542,6
761,0.08312988,-0.048095703,0.027282715,-83.12977,-9.412213,-7.3206105,6
762,0.08154297,-0.04547119,0.025756836,-40.67939,-12.732824,-17.282442,6
763,0.083740234,-0.043640137,0.025817871,-2.2671757,-11.374045,-27.458015,6
764,0.08880615,-0.04156494,0.029846191,25.496183,-10.068703,-34.038166,6
765,0.09832764,-0.038146973,0.03314209,39.366413,-13.4198475,-48.778625,6
766,0.10839844,-0.04034424,0.040405273,49.366413,-14.351145,-54.419846,6
767,0.120788574,-0.04486084,0.0446167,57.603054,-17.351145,-54.427483,6
768,0.12884521,-0.048950195,0.04888916,74.01527,-17.030535,-54.435116,6
769,0.13415527,-0.047851562,0.045776367,91.099236,-14.526717,-54.305344,6
770,0.14874268,-0.037597656,0.04156494,100.40458,-11.236641,-31.396946,6
771,0.15374756,-0.028137207,0.03778076,93.458015,5.412214,-3.4580152,6
772,0.15454102,-0.023132324,0.03729248,73.938934,19.419847,28.557251,6
773,0.15588379,-0.020935059,0.03778076,38.480915,35.89313,55.08397,6
774,0.14782715,-0.022155762,0.035339355,6.4656487,51.870228,79.60305,6
775,0.122802734,-0.025024414,0.028564453,-16.305344,57.89313,104.80916,6
776,0.107299805,-0.024963379,0.024902344,-29.06107,55.099236,126.98473,6
777,0.12908936,-0.026062012,0.0154418945,-29,50.17557,133.7481,6
778,0.14471436,-0.03265381,0.011169434,-4.0992365,48.671757,137.45038,6
779,0.16015625,-0.036865234,0.0061035156,31.42748,50.419846,127.221375,6
780,0.16168213,-0.032104492,0.0078125,74.30534,50.10687,114.770996,6
781,0.15509033,-0.018859863,0.013000488,72.70229,42.076336,112.51908,6
782,0.13952637,-0.01574707,0.018127441,30.984734,27.862595,109.63359,6
783,0.12609863,-0.015380859,0.018066406,-4.4885497,13.671756,108.84733,6
784,0.10949707,-0.026123047,0.019042969,-16.824427,2.167939,114.137405,6
785,0.10015869,-0.026794434,0.025024414,-2.1984732,-3.572519,119.64886,6
786,0.095703125,-0.026611328,0.025512695,18.045801,-6.9847326,117.67175,6
787,0.089660645,-0.023986816,0.024780273,30.549618,-4.6412215,112.51145,6
788,0.099975586,-0.018920898,0.0041503906,40.549618,-1.7862595,102.900764,6
789,0.08416748,-0.019897461,0.035888672,52.732826,4.1679387,82.79389,6
790,0.077941895,-0.012573242,0.03869629,49.251907,6.3053436,56.458015,6
791,0.0736084,-0.011474609,0.0446167,26.366413,4.2442746,21.786259,6
792,0.07897949,-0.014465332,0.046203613,-2.8015268,2.519084,-19.969465,6
793,0.08905029,-0.018615723,0.04321289,-33.633587,1.4961832,-55.015266,6
794,0.10241699,-0.015380859,0.03253174,-57.23664,-1.908397,-102.419846,6
795,0.13104248,-0.015625,0.025512695,-77.740456,-6.89313,-144.9542,6
796,0.14709473,-0.019958496,0.021911621,-99.05344,-13.427481,-184.67175,6
797,0.16137695,-0.030761719,0.024291992,-112.73283,-18.450382,-222.73282,6
798,0.15740967,-0.041625977,0.03253174,-104.0458,-24.908398,-247.81679,6
799,0.14733887,-0.05517578,0.041503906,-61.38168,-30.099237,-250.1374,6
800,0.13104248,-0.06011963,0.037719727,-0.78625953,-34.85496,-250.1374,6
801,0.1282959,-0.05883789,0.028137207,52.671757,-41.267174,-221.8855,6
802,0.14526367,-0.047058105,0.008911133,84.12977,-37.35878,-179.53435,6
803,0.15667725,-0.023742676,0.008361816,85.770996,-20.595419,-108.12214,6
804,0.16809082,-0.006225586,0.012878418,43.70229,-11.465649,-54.091602,6
805,0.1663208,-0.013244629,0.027160645,-1.9923664,2.053435,-0.3816794,6
806,0.15020752,-0.019897461,0.05291748,-45.961834,-2.129771,25.778625,6
807,0.12042236,-0.038085938,0.043884277,-82.96183,-14.396947,33.53435,6
808,0.09820557,-0.04937744,0.044128418,-95.1145,-21.580153,23.053434,6
809,0.08532715,-0.04425049,0.04284668,-74.68702,-23.358778,18.145039,6
810,0.084350586,-0.038391113,0.038635254,-43.72519,-20.824427,22,6
811,0.08660889,-0.028564453,0.035705566,-34.587788,-12.290076,23.610687,6
812,0.093811035,-0.028869629,0.03479004,-39.633587,-3.946565,17.656488,6
813,0.10662842,-0.033996582,0.038635254,-36.335876,5.6412215,13.519084,6
814,0.1138916,-0.036315918,0.041259766,-23.038168,10.152672,6.778626,6
815,0.11566162,-0.040405273,0.05041504,-0.45801526,6.6488547,-1.7862595,6
816,0.115478516,-0.04852295,0.047058105,34.83206,-0.1908397,-13.801527,6
817,0.12042236,-0.05126953,0.04724121,85.175575,-7.4503818,-23.656488,6
818,0.13903809,-0.045410156,0.044921875,127.0458,-11.954199,-36.572517,6
819,0.16766357,-0.043823242,0.036987305,161.61832,-4.19084,-52.251907,6
820,0.16308594,-0.03845215,0.034240723,178.59541,18.305344,-42.801525,6
821,0.15509033,-0.02557373,0.034301758,165.47328,35.06107,-28.541985,6
822,0.14886475,-0.017944336,0.036193848,121.57252,61.374046,-7.6412215,6
823,0.1296997,-0.011779785,0.030029297,56.08397,87.89313,29.022902,6
824,0.12121582,-0.0107421875,0.020324707,-14.022901,88.07633,69.26717,6
825,0.1350708,-0.01586914,0.014709473,-53.267174,90.94656,104.79389,6
826,0.14654541,-0.021362305,0.009643555,-70.67939,88.01527,137.40459,6
827,0.15374756,-0.026428223,0.005065918,-77.66412,77.01527,152.72519,6
828,0.1515503,-0.027648926,0.0037231445,-78.83969,58.053436,162.52672,6
829,0.1473999,-0.025817871,0.0049438477,-73.89313,34.229008,164.38931,6
830,0.13928223,-0.02911377,0.00592041,-55.40458,13.068703,153.229,6
831,0.12347412,-0.033447266,0.00982666,-31.76336,-5.038168,140.30534,6
832,0.105651855,-0.032958984,0.0107421875,6.4503818,-17.29771,126.175575,6
833,0.0892334,-0.034423828,0.024353027,46.46565,-27.778625,112.63359,6
834,0.08465576,-0.03753662,0.03363037,95.41222,-32.160305,100.80153,6
835,0.08880615,-0.026672363,0.028625488,132.70993,-32.282444,90.80153,6
836,0.08502197,-0.018676758,0.03137207,131.77863,-24.25191,81.458015,6
837,0.08325195,-0.014770508,0.036010742,116.34351,-14.969465,63.114502,6
838,0.08532715,-0.008056641,0.04119873,85.76336,-7.8625956,40.931297,6
839,0.09289551,-0.005859375,0.04736328,47.160305,-6.854962,20.198473,6
840,0.099365234,-0.0068359375,0.047546387,8.053435,-3.3282442,-5.89313,6
841,0.09649658,-0.008850098,0.04449463,-35.038166,-2.816794,-33.190838,6
842,0.116882324,-0.0119018555,0.031982422,-68.12214,-9.709924,-62.099236,6
843,0.13043213,-0.014160156,0.028259277,-92.28244,-14.389313,-97.908394,6
844,0.13824463,-0.020263672,0.027893066,-108.68702,-22.984734,-137.71756,6
845,0.13867188,-0.032165527,0.035217285,-110.92367,-30.442749,-171.39694,6
846,0.13128662,-0.04119873,0.037963867,-89.80916,-37.25954,-197.09924,6
847,0.12072754,-0.046203613,0.041870117,-47.61832,-40.450382,-207.96184,6
848,0.12054443,-0.04260254,0.036499023,-4.068702,-47.091602,-202.26718,6
849,0.13623047,-0.033325195,0.025756836,26.290077,-44.59542,-184.38931,6
850,0.14685059,-0.022521973,0.014465332,33.312977,-35.053436,-153.05344,6
851,0.16064453,-0.010437012,0.019897461,3.7480917,-18.480917,-112.78626,6
852,0.17248535,-0.009155273,0.025939941,-55.251907,-12.320611,-71.66412,6
853,0.17938232,-0.016174316,0.0064086914,-111.908394,-4.4885497,-49.44275,6
854,0.14978027,-0.02923584,0.030456543,-146.00763,-8.603053,-46.244274,6
855,0.1227417,-0.04107666,0.032958984,-162.15266,-18.160305,-45.992367,6
856,0.104003906,-0.044006348,0.032226562,-144.45038,-21.793894,-46.954197,6
857,0.09387207,-0.044921875,0.030151367,-107.12214,-19.687023,-44.83206,6
858,0.09326172,-0.04699707,0.029907227,-69.458015,-18.389313,-47.53435,6
859,0.0970459,-0.046936035,0.030212402,-31.89313,-12.9007635,-54.48855,6
860,0.103637695,-0.048583984,0.036315918,6.0229006,-8.923664,-54.396946,6
861,0.11114502,-0.04473877,0.04522705,28.816793,-6.9541984,-54.267174,6
862,0.12042236,-0.046447754,0.049560547,40.190838,-5.625954,-60.15267,6
863,0.12402344,-0.050048828,0.055236816,48.366413,-12.068703,-54.396946,6
864,0.13305664,-0.052490234,0.05596924,62.84733,-9.328244,-54.64122,6
865,0.13970947,-0.047729492,0.050476074,74.16794,-6.4885497,-54.76336,6
866,0.1616211,-0.041503906,0.04296875,79.27481,6.557252,-25.977098,6
867,0.1560669,-0.032287598,0.04248047,72.496185,28.854961,12.297709,6
868,0.15802002,-0.026123047,0.043823242,50.129772,45.93893,44.519085,6
869,0.14916992,-0.023742676,0.039489746,21.290077,67.15267,88.19847,6
870,0.1270752,-0.025268555,0.024291992,-2.1374047,72.770996,120.69466,6
871,0.11553955,-0.024841309,0.023620605,-16.503817,62.53435,146.98473,6
872,0.13146973,-0.029724121,0.020141602,-10.251908,57.59542,154.72519,6
873,0.1496582,-0.03479004,0.015930176,18.93893,60.16794,160.35115,6
874,0.1665039,-0.035705566,0.0072021484,49.396946,62.038166,149.1374,6
875,0.17401123,-0.025634766,0.0026855469,60.435116,61.190838,136.61069,6
876,0.17089844,-0.018737793,0.008911133,41.65649,51.83206,135.89313,6
877,0.17053223,-0.0126953125,0.010009766,14.625955,34.91603,144.03816,6
878,0.15441895,-0.011474609,0.015136719,-18.610687,18.57252,153.37404,6
879,0.1340332,-0.015808105,0.017211914,-43.396946,2.2671757,164.83969,6
880,0.11437988,-0.02166748,0.015563965,-48.076336,-14.21374,171.26718,6
881,0.09643555,-0.031188965,0.026428223,-19.984734,-22.274809,172.82443,6
882,0.09094238,-0.03363037,0.036132812,30.587786,-32.59542,164.00763,6
883,0.09442139,-0.02923584,0.033325195,85.20611,-29.824427,152.94656,6
884,0.08685303,-0.024536133,0.03540039,118.73283,-20.587786,133.83206,6
885,0.07556152,-0.016418457,0.039733887,128.55725,-13.145039,104.56489,6
886,0.066101074,-0.007873535,0.051330566,116.91603,-8.793893,63.015266,6
887,0.059814453,-0.0068969727,0.058410645,85.36641,-12.427481,18.175573,6
888,0.059509277,-0.005493164,0.060058594,39.335876,-14.374045,-35.648853,6
889,0.06439209,-0.0056152344,0.05517578,-12.679389,-22.053434,-74.08397,6
890,0.09643555,-0.009399414,0.043518066,-50.671757,-32.809162,-132.87787,6
891,0.11468506,-0.011657715,0.035949707,-81.83969,-32.809162,-175.18321,6
892,0.13903809,-0.017700195,0.034606934,-98.770996,-39.50382,-219.7939,6
893,0.15460205,-0.03173828,0.037231445,-102.816795,-41.351147,-250.1374,6
894,0.15655518,-0.042053223,0.04168701,-83.580154,-40.992367,-250.1374,6
895,0.15454102,-0.044006348,0.040222168,-51.221375,-43.47328,-250.1374,6
896,0.16101074,-0.037841797,0.027893066,-26.793894,-39.64122,-250.1374,6
897,0.16705322,-0.032592773,0.011291504,-19.908398,-26.687023,-204.63359,6
898,0.15802002,-0.028869629,0.010864258,-26.57252,-15.732824,-140.45038,6
899,0.16113281,-0.0115356445,0.020751953,-55.221375,-18.32061,-71.12977,6
900,0.117370605,-0.053955078,0.020874023,-114.091606,-27.198473,-26.137405,6
901,0.09686279,-0.05328369,0.02746582,-69.96947,-25.923664,-54.44275,6
902,0.08337402,-0.044555664,0.03112793,-28.908398,-25.908398,-54.61832,6
903,0.08453369,-0.037902832,0.033447266,-11.832061,-27.38168,-54.541985,6
904,0.09033203,-0.042541504,0.03967285,-12.961832,-30.015266,-73.12977,6
905,0.10571289,-0.04449463,0.041809082,1.0763359,-26.068703,-87.03817,6
906,0.1237793,-0.04547119,0.044433594,18.282442,-19.465649,-86.15267,6
907,0.13171387,-0.05090332,0.057128906,32.045803,-17.25191,-83.16031,6
908,0.13537598,-0.055358887,0.06549072,47.335876,-16.625954,-75.48092,6
909,0.14196777,-0.055908203,0.061828613,62.374046,-10.992367,-53.694656,6
910,0.15509033,-0.046813965,0.052978516,79.92367,-4.7862597,-37.61832,6
911,0.17181396,-0.03765869,0.044311523,84.34351,22.816793,1.221374,6
912,0.16937256,-0.025939941,0.043151855,73.56489,48.038166,43.61832,6
913,0.16278076,-0.018920898,0.04248047,39.87786,73.35114,87.73283,6
914,0.13287354,-0.0178833,0.039855957,-3.648855,85.9542,132.44275,6
915,0.1171875,-0.017822266,0.031982422,-25.045801,84.0229,169.78625,6
916,0.13354492,-0.024414062,0.025939941,-31.213741,68.41222,182.03816,6
917,0.1506958,-0.028503418,0.012329102,-9.129771,68.42748,185.32062,6
918,0.16052246,-0.03656006,0.012145996,28.183207,75.23664,169.70993,6
919,0.1685791,-0.03302002,0.0072631836,63.78626,71.740456,143.44275,6
920,0.1609497,-0.0211792,0.009338379,66.9542,72.57252,124.67175,6
921,0.14929199,-0.013793945,0.009460449,38.816795,59.89313,115.41222,6
922,0.13922119,-0.009338379,0.013305664,1.6793894,40.59542,117.56489,6
923,0.12902832,-0.015808105,0.012451172,-30.633587,19.671755,123.51145,6
924,0.11773682,-0.023620605,0.022644043,-39.137405,7.1755724,132.43512,6
925,0.10321045,-0.026611328,0.01574707,-18.19084,-7.038168,132.25954,6
926,0.09307861,-0.026672363,0.026000977,4.671756,-16.10687,134.12978,6
927,0.09375,-0.028564453,0.029052734,34.290077,-22.221375,131.87022,6
928,0.09222412,-0.02142334,0.030761719,59.648853,-22.877863,124.74809,6
929,0.09039307,-0.018249512,0.03277588,65.12977,-20.89313,111.03053,6
930,0.09008789,-0.016784668,0.035827637,61.23664,-15.282443,87.76336,6
931,0.087524414,-0.017150879,0.04486084,52.610687,-15.396947,53.67939,6
932,0.07904053,-0.0138549805,0.05609131,47.35878,-15.5801525,14.519084,6
933,0.0836792,-0.009277344,0.048828125,29.580153,-20.496183,-24.931297,6
934,0.09942627,-0.0014038086,0.047424316,-12.78626,-20.274809,-73.854965,6
935,0.107299805,-0.004638672,0.043273926,-71.72519,-24.793894,-126.40458,6
936,0.121398926,-0.014099121,0.044067383,-106.99236,-27.778625,-173.229,6
937,0.11621094,-0.028137207,0.05529785,-119.52672,-31.12977,-209.38168,6
938,0.12030029,-0.032714844,0.054016113,-115.73283,-33.46565,-241.09924,6
939,0.13659668,-0.032043457,0.048034668,-102.10687,-42.65649,-250.1374,6
940,0.16021729,-0.042541504,0.0435791,-73.47328,-39.129772,-250.1374,6
941,0.18066406,-0.050720215,0.030395508,-18.038168,-27.793894,-246.29007,6
942,0.19311523,-0.039855957,0.018066406,17.732824,-15.755725,-208.17557,6
943,0.18792725,-0.022277832,0.026794434,13.045801,-10.396947,-143.9542,6
944,0.1765747,-0.004211426,0.033996582,-37.20611,-2.519084,-77.94656,6
945,0.15368652,-0.020996094,0.021362305,-99.46565,5.0152674,-41.374046,6
946,0.12780762,-0.03326416,0.024597168,-115.64122,5.5496182,-20.610687,6
947,0.10723877,-0.04437256,0.030639648,-98.32825,-4.4503818,-5.3893127,6
948,0.095947266,-0.05810547,0.032104492,-64.908394,-13.587787,-15.816793,6
949,0.09210205,-0.05456543,0.033325195,-15.343512,-16.778625,-32.946564,6
950,0.09222412,-0.04663086,0.030883789,27.343512,-18.038168,-55.007633,6
951,0.09289551,-0.045837402,0.03741455,54.328243,-16.740458,-54.603054,6
952,0.10076904,-0.04675293,0.049804688,67.63359,-21.358778,-69.94656,6
953,0.11395264,-0.0524292,0.057678223,77.70229,-23.274809,-81.503815,6
954,0.12359619,-0.052978516,0.060546875,87.69466,-18.931297,-86.76336,6
955,0.1361084,-0.051818848,0.057617188,91.48092,-11.694656,-87.9542,6
956,0.14416504,-0.03717041,0.047180176,74.43511,10.312977,-52.16794,6
957,0.1560669,-0.028930664,0.045715332,49.015266,20.435114,-30.656488,6
958,0.16333008,-0.02178955,0.04345703,17.961832,40.366413,21.877863,6
959,0.16381836,-0.025878906,0.04034424,-20.526718,57.0229,67.25191,6
960,0.1451416,-0.033203125,0.030212402,-43.244274,68.496185,110.32061,6
961,0.12194824,-0.030395508,0.028869629,-49.70229,66.099236,146.62596,6
962,0.122680664,-0.032348633,0.018432617,-49.16794,46.671757,166.17557,6
963,0.14465332,-0.034057617,0.019226074,-21.534351,33.709923,169.82443,6
964,0.15612793,-0.040405273,0.009887695,31.587786,45.282444,169.70229,6
965,0.17346191,-0.03845215,0.003967285,74.31298,38.79389,147.36641,6
966,0.1696167,-0.024169922,0.006225586,83.0687,40.091602,137.6565,6
967,0.16186523,-0.016723633,0.008178711,73.32825,34.908398,134.16031,6
968,0.15887451,-0.009887695,0.009216309,41.374046,18.145039,140.14503,6
969,0.14294434,-0.013549805,0.012878418,15.206107,2,148.80153,6
970,0.12536621,-0.018737793,0.017028809,-4.3816795,-13.519084,152.76335,6
971,0.10687256,-0.023071289,0.020263672,1.7557251,-18.954199,155.45038,6
972,0.09753418,-0.024108887,0.024047852,19.404581,-26.114504,155.58778,6
973,0.097717285,-0.02355957,0.027404785,45.809162,-27.404581,150.98473,6
974,0.0982666,-0.020446777,0.028869629,65.46565,-19.534351,140.03053,6
975,0.09423828,-0.015563965,0.03137207,74.458015,-14.480916,120.51908,6
976,0.08691406,-0.0146484375,0.040527344,73.770996,-9.770992,92.221375,6
977,0.07940674,-0.016235352,0.052001953,66.60305,-5.59542,59.572517,6
978,0.07281494,-0.012634277,0.061645508,55.580154,-8.694656,17.25191,6
979,0.076049805,-0.0053100586,0.05645752,23.099237,-13.312977,-26.900763,6
980,0.11090088,0.0024414062,0.023986816,-27.778625,-15.183207,-80,6
981,0.1138916,-0.0060424805,0.047790527,-72.900764,-17.442749,-130.2061,6
982,0.1274414,-0.017333984,0.047302246,-98.458015,-19.824427,-185.16031,6
983,0.1194458,-0.026123047,0.0513916,-112.145035,-22.42748,-222.30534,6
984,0.119628906,-0.03479004,0.05609131,-108.70229,-27.847328,-250.1374,6
985,0.1427002,-0.04522705,0.05718994,-77.05344,-39.44275,-250.1374,6
986,0.17382812,-0.056884766,0.03753662,-18.045801,-36.93893,-250.1374,6
987,0.17993164,-0.049621582,0.0071411133,31.625954,-5.89313,-248.31297,6
988,0.15802002,-0.03918457,0.0073242188,33.82443,11.351145,-183.35115,6
989,0.15704346,0.0006713867,0.0211792,-1.961832,5.40458,-101.381676,6
990,0.15930176,0.0041503906,0.02532959,-59.664124,-4.5496182,-24.045801,6
991,0.14758301,-0.008483887,0.026977539,-128.39694,-10.129771,15.984733,6
992,0.13092041,-0.03375244,0.021972656,-172.39694,-14.564885,34.70229,6
993,0.111694336,-0.057678223,0.021362305,-166.96947,-25.183207,17.022902,6
994,0.09814453,-0.06237793,0.028137207,-111.16031,-29.221375,-15.0992365,6
995,0.09075928,-0.053344727,0.030151367,-36.625954,-28.450382,-43.671757,6
996,0.08544922,-0.05029297,0.038513184,21.160305,-27.32061,-54.53435,6
997,0.08428955,-0.046142578,0.04333496,44.183205,-30.656488,-80.71756,6
998,0.09466553,-0.047729492,0.049072266,61.801525,-30.992367,-96.183205,6
999,0.10784912,-0.04888916,0.057434082,75.458015,-34.15267,-107.61069,6
1000,0.12438965,-0.04925537,0.061157227,82.62595,-32.870228,-111.65649,6
1001,0.14257812,-0.047851562,0.05871582,81.091606,-25.099237,-109.12214,6
1002,0.14697266,-0.04272461,0.056030273,73.98473,-5.2824426,-83.32061,6
1003,0.15673828,-0.037719727,0.05493164,66.52672,6.664122,-54.709923,6
1004,0.17596436,-0.032287598,0.049194336,54.48855,28.549618,-14.007633,6
1005,0.16271973,-0.031677246,0.046020508,35.633587,50.671757,39.251907,6
1006,0.15301514,-0.03186035,0.04046631,9.80916,61.67939,85.0687,6
1007,0.12884521,-0.02508545,0.03112793,-4.5648856,78.29771,131.15266,6
1008,0.13336182,-0.024475098,0.025512695,-14.167939,70.07633,157.25954,6
1009,0.15014648,-0.02947998,0.017089844,-11.755725,60.49618,170.7481,6
1010,0.16259766,-0.03387451,0.011413574,14.389313,73.87786,172.67175,6
1011,0.16986084,-0.031677246,0.009216309,34.374046,75.381676,165.48856,6
1012,0.16253662,-0.026367188,0.009521484,36.78626,68.75572,160.73282,6
1013,0.15618896,-0.015014648,0.013305664,15.549619,50.65649,154.229,6
1014,0.14849854,-0.015625,0.015014648,-10.694656,31.549618,154.51144,6
1015,0.13922119,-0.01953125,0.010864258,-25.534351,10.908397,155.77863,6
1016,0.12774658,-0.022583008,0.014404297,-23.328245,-1.2748091,152.8626,6
1017,0.11193848,-0.02355957,0.018005371,-8.854961,-11.229008,149.35115,6
1018,0.103271484,-0.026672363,0.024230957,9.068703,-15.992367,144.55725,6
1019,0.095947266,-0.028686523,0.032409668,42.61832,-18.12977,143.61832,6
1020,0.09448242,-0.024597168,0.03314209,68.65649,-13.717557,133.66412,6
1021,0.093566895,-0.01550293,0.03375244,76.1145,-6.5419846,117.89313,6
1022,0.09136963,-0.012268066,0.038757324,66.99236,0.84732825,93.71756,6
1023,0.086120605,-0.011779785,0.044677734,46.91603,8.251908,61.328243,6
1024,0.077819824,-0.010009766,0.055908203,24.099237,10.305344,24.137405,6
1025,0.07324219,-0.007873535,0.05328369,-1.8091604,6.442748,-14.549619,6
1026,0.092163086,-0.003112793,0.04626465,-49.129772,2.038168,-62.251907,6
1027,0.10241699,-0.013183594,0.034362793,-86.23664,-1.0229008,-118.63359,6
1028,0.11450195,-0.020629883,0.036987305,-101.496185,-6.9465647,-176.41222,6
1029,0.11376953,-0.035461426,0.04156494,-101.58778,-16.496183,-220.83969,6
1030,0.11669922,-0.03930664,0.04486084,-82.87023,-22.007633,-250.1374,6
1031,0.12506104,-0.04296875,0.04675293,-48.625954,-33.603054,-250.1374,6
1032,0.15325928,-0.048217773,0.040161133,9.198473,-47.412212,-250.1374,6
1033,0.17236328,-0.051330566,0.016418457,63.47328,-40.351147,-250.1374,6
1034,0.17932129,-0.032409668,-0.0020751953,75.175575,-21.053434,-217.44275,6
1035,0.17572021,-0.009460449,0.009521484,31.969465,-13.664123,-150.43512,6
1036,0.18933105,0.012145996,0.005859375,-41.427483,-13.198473,-69.503815,6
1037,0.16522217,-0.004333496,0.028564453,-116.36641,-17.076336,-25.839695,6
1038,0.14111328,-0.024169922,0.027404785,-170.07634,-31.793894,-4.2824426,6
1039,0.11853027,-0.049865723,0.0234375,-178.60306,-39.34351,-6.59542,6
1040,0.10394287,-0.064941406,0.026367188,-129.21375,-45.290077,-27.57252,6
1041,0.09527588,-0.062438965,0.028320312,-49.839695,-35.87786,-54.900764,6
1042,0.08886719,-0.053466797,0.030639648,21.198473,-30.557251,-61.366413,6
1043,0.091796875,-0.051452637,0.04345703,62.053436,-29.328245,-84.71756,6
1044,0.10144043,-0.05090332,0.051696777,83.87786,-27.87023,-100.458015,6
1045,0.12652588,-0.044555664,0.034606934,89.62595,-27.633587,-104.62595,6
1046,0.13214111,-0.041809082,0.06304932,73.40458,-23.534351,-97.67939,6
1047,0.1427002,-0.035095215,0.06060791,40.801525,-11.984733,-79.618324,6
1048,0.14733887,-0.035095215,0.05432129,9.488549,6.854962,-54.328243,6
1049,0.14056396,-0.03112793,0.053833008,-9.5801525,17.93893,-3.8854961,6
1050,0.16015625,-0.037902832,0.045166016,-2.8473282,30.412214,32.549618,6
1051,0.15997314,-0.042663574,0.04437256,2.7175572,41.076336,67.68702,6
1052,0.16064453,-0.04119873,0.036499023,17.847328,62.137405,87,6
1053,0.14074707,-0.033447266,0.033447266,25.19084,72.64122,117.05344,6
1054,0.12713623,-0.025268555,0.039855957,15.045801,71.34351,143.83206,6
1055,0.14056396,-0.028198242,0.027038574,14.251908,65.43511,153.12978,6
1056,0.15325928,-0.03149414,0.018432617,29.93893,68.52672,156.91603,6
1057,0.16479492,-0.034484863,0.010314941,56.82443,73.32825,148.64122,6
1058,0.17681885,-0.02734375,0.0060424805,66.19084,74.58778,137.2519,6
1059,0.17071533,-0.018005371,0.0087890625,53.549618,71.16794,138.0916,6
1060,0.16363525,-0.012878418,0.009643555,17.282442,56.114502,144.67175,6
1061,0.14990234,-0.008666992,0.012939453,-24.534351,32.9771,159.1145,6
1062,0.13531494,-0.01586914,0.014099121,-48.870228,12.335877,168.0916,6
1063,0.11999512,-0.021972656,0.012878418,-48.06107,-5.2748094,173.99237,6
1064,0.103149414,-0.025939941,0.019592285,-28.206106,-18.67939,173.96947,6
1065,0.09802246,-0.02911377,0.025634766,2.5419848,-24.007633,169.59541,6
1066,0.095214844,-0.028564453,0.028137207,42.076336,-26.213741,157.10687,6
1067,0.09082031,-0.024536133,0.029907227,74.71756,-21.450382,141.38931,6
1068,0.08477783,-0.019836426,0.035583496,88.65649,-15.396947,121.12977,6
1069,0.07940674,-0.013000488,0.044189453,90.84733,-7.4885497,88.37405,6
1070,0.072143555,-0.00592041,0.05255127,74.38931,-5.328244,47.748093,6
1071,0.06365967,-0.006225586,0.06109619,45.14504,-8.946565,7.587786,6
1072,0.069885254,-0.0020751953,0.049560547,6.0992365,-12.969465,-54.114502,6
1073,0.10345459,-0.0036010742,0.045898438,-48.14504,-18.89313,-110.061066,6
1074,0.11413574,-0.01550293,0.03765869,-78.87023,-24.351145,-166.2061,6
1075,0.12817383,-0.018737793,0.040283203,-95.96183,-30.10687,-223.27481,6
1076,0.13110352,-0.031982422,0.046325684,-105.56489,-33.93893,-250.1374,6
1077,0.13641357,-0.034973145,0.051330566,-103.28244,-40.007633,-250.1374,6
1078,0.15374756,-0.0390625,0.04638672,-87.67939,-45.61832,-250.1374,6
1079,0.17523193,-0.046142578,0.026428223,-51.9771,-40.14504,-250.1374,6
1080,0.16790771,-0.045654297,0.0138549805,-9.916031,-17.503817,-223.85497,6
1081,0.15979004,-0.029296875,0.014099121,-1.7862595,-8.519084,-152.69466,6
1082,0.1739502,0.005859375,0.024230957,-29.862595,-10.877863,-64.78626,6
1083,0.17608643,-0.0028686523,0.021728516,-96.1145,3.534351,-19.274809,6
1084,0.16607666,-0.015808105,0.015686035,-154.15266,4.0992365,8.763359,6
1085,0.14147949,-0.037963867,0.020080566,-182.69466,5.2061067,14.106871,6
1086,0.11224365,-0.05493164,0.024169922,-163.80153,0.7099237,-9.4198475,6
1087,0.0949707,-0.05126953,0.02758789,-126.08397,1.1374046,-37.17557,6
1088,0.08050537,-0.049194336,0.028686523,-87.89313,-2.7099237,-54.450382,6
1089,0.07940674,-0.04748535,0.030639648,-48.099236,0.015267176,-74.824425,6
1090,0.08648682,-0.047668457,0.029724121,-15.793893,-1.2900764,-97.87023,6
1091,0.10180664,-0.049621582,0.0368042,12.916031,0.8244275,-114.33588,6
1092,0.123413086,-0.05670166,0.04473877,35.694656,-4.6106873,-128.56488,6
1093,0.14178467,-0.066711426,0.051208496,61.519085,-8.465649,-133.00763,6
1094,0.14654541,-0.06555176,0.048034668,82.175575,-3.2900763,-117.34351,6
1095,0.14416504,-0.05090332,0.04498291,79.98473,-1.6870229,-78.78626,6
1096,0.16497803,-0.040222168,0.038391113,75.48092,-4.0152674,-34.74046,6
1097,0.15570068,-0.02758789,0.041259766,62.15267,14.824428,37.038166,6
1098,0.14898682,-0.026794434,0.041015625,27.305344,28.89313,86.68702,6
1099,0.1482544,-0.029907227,0.03173828,0.9389313,35.83206,126.19847,6
1100,0.13470459,-0.029541016,0.032348633,-6.7328243,51.076336,158.22137,6
1101,0.1262207,-0.028686523,0.027038574,-10.610687,43.251907,176.77863,6
1102,0.13720703,-0.031982422,0.022094727,-2.2900763,37.030533,182.35878,6
1103,0.14575195,-0.03656006,0.01953125,27.847328,34.770992,178.45038,6
1104,0.15637207,-0.039489746,0.014404297,67.12214,33.351147,158.2519,6
1105,0.16137695,-0.034240723,0.010986328,95.30534,34.61832,138.70229,6
1106,0.15594482,-0.02331543,0.010864258,97.39695,29.816793,124.80916,6
1107,0.15386963,-0.019348145,0.0119018555,89.16794,23.977098,117.9771,6
1108,0.15106201,-0.0154418945,0.012939453,73.580154,17.51145,119.938934,6
1109,0.13775635,-0.017211914,0.015563965,50.519085,12.7786255,127.00764,6
1110,0.12921143,-0.012145996,-0.00793457,26.374046,6.519084,136.05344,6
1111,0.09967041,-0.019226074,0.023803711,16.709923,-3.3282442,138.94656,6
1112,0.09008789,-0.026184082,0.031982422,22.442749,-8.801527,139.48856,6
1113,0.08758545,-0.025024414,0.037719727,44.610687,-15.870229,129.37404,6
1114,0.08288574,-0.02532959,0.03778076,65.84733,-14.519084,113.83206,6
1115,0.077819824,-0.024169922,0.04309082,76.099236,-12.549619,93.8855,6
1116,0.08154297,-0.019470215,0.044921875,84.35878,-10.40458,64.0458,6
1117,0.081726074,-0.014953613,0.04675293,73.42748,-7.145038,24.862595,6
1118,0.087402344,-0.0107421875,0.05218506,48.946564,-8.282443,-11.847328,6
1119,0.08453369,-0.008300781,0.05895996,17.633587,-11.38168,-43.85496,6
1120,0.09100342,-0.008117676,0.05908203,-12.0992365,-25.709923,-68.46565,6
1121,0.121032715,-0.0005493164,0.05090332,-59.76336,-28.778625,-108.20611,6
1122,0.1361084,-0.008666992,0.04168701,-100.061066,-28.435114,-147.78625,6
1123,0.14788818,-0.018310547,0.043701172,-123.96947,-29.801527,-183.15266,6
1124,0.14123535,-0.032165527,0.050109863,-128.47328,-30.12977,-214.8626,6
1125,0.13421631,-0.040161133,0.04699707,-114.67939,-27.213741,-231.82443,6
1126,0.13891602,-0.04107666,0.041931152,-90.99236,-27.19084,-232.70229,6
1127,0.15026855,-0.0446167,0.031433105,-51.045803,-19.160305,-215.32062,6
1128,0.15429688,-0.03845215,0.01776123,-9.366412,-4.2748094,-171.22137,6
1129,0.15618896,-0.023864746,0.016723633,-3.4503818,2.5648854,-119.72519,6
1130,0.15435791,-0.014282227,0.023620605,-26.709923,2.5801528,-52.427483,6
1131,0.14953613,-0.018737793,0.0234375,-63.27481,10.305344,-32.648853,6
1132,0.1385498,-0.022216797,0.022705078,-100.381676,6.4351144,-14.167939,6
1133,0.122924805,-0.03466797,0.020019531,-121.23664,-1.3053435,-4.740458,6
1134,0.10852051,-0.041503906,0.023132324,-116.21374,-9.5801525,-11.38168,6
1135,0.09576416,-0.04321289,0.02722168,-92.15267,-14.687023,-20.93893,6
1136,0.09197998,-0.03918457,0.026977539,-67.16031,-17.229008,-33.16794,6
1137,0.09655762,-0.03967285,0.02746582,-44.946564,-17.786259,-48.633587,6
1138,0.10119629,-0.036132812,0.032348633,-32.007633,-18.221375,-54.458015,6
1139,0.10681152,-0.03955078,0.040527344,-23.503817,-16.946566,-54.59542,6
1140,0.1138916,-0.045532227,0.045532227,-9.297709,-20.519083,-66.816795,6
1141,0.120910645,-0.0513916,0.05340576,11.954199,-23.664122,-75.74809,6
1142,0.13293457,-0.057739258,0.058410645,42.984734,-27.587786,-74.27481,6
1143,0.13543701,-0.052734375,0.055358887,74.74809,-22.526718,-60.038166,6
1144,0.14312744,-0.040405273,0.049926758,78.51145,-22.137405,-54.29771,6
1145,0.15649414,-0.03112793,0.049682617,73.35878,-0.3816794,-25.183207,6
1146,0.15649414,-0.02923584,0.04510498,51.70229,17.267176,9.625955,6
1147,0.14904785,-0.028137207,0.04168701,22.442749,38.671757,42.954197,6
1148,0.13079834,-0.031982422,0.040100098,6.59542,53.25954,82.54962,6
1149,0.118774414,-0.0289917,0.03375244,2.5267177,57.198475,113.56489,6
1150,0.12750244,-0.030090332,0.024353027,1.778626,57.10687,130.54962,6
1151,0.13861084,-0.034729004,0.02142334,24.503817,54.709923,137.2061,6
1152,0.15582275,-0.038513184,0.014465332,56.40458,61.29771,128.94656,6
1153,0.16156006,-0.03265381,0.012084961,74.67175,66.47328,122.62595,6
1154,0.15771484,-0.022521973,0.011352539,62.12214,57.580154,120.099236,6
1155,0.152771,-0.016967773,0.014892578,33.671757,44.435116,123.908394,6
1156,0.14202881,-0.015197754,0.018127441,4.259542,26.068703,134.75572,6
1157,0.12695312,-0.01776123,0.019470215,-19.442749,10.984733,147.58778,6
1158,0.111694336,-0.021118164,0.021850586,-30.25191,0.90839696,154.57253,6
1159,0.10394287,-0.023925781,0.025512695,-26.137405,-10.106871,158.85497,6
1160,0.105041504,-0.027954102,0.024536133,-6.4198475,-12.656488,153.58778,6
1161,0.10205078,-0.024230957,0.032470703,21.08397,-12.229008,149.77863,6
1162,0.0970459,-0.02545166,0.035705566,42.198475,-5.4656487,133.54962,6
1163,0.096069336,-0.015991211,0.036315918,53.35878,1.4351145,111.145035,6
1164,0.08795166,-0.015197754,0.04260254,42.70229,7.9847326,76.24428,6
1165,0.08215332,-0.013977051,0.047973633,23.374046,9.282443,34.580154,6
1166,0.07672119,-0.01361084,0.052978516,4.0305343,5.7099237,-7.2824426,6
1167,0.088012695,-0.013305664,0.049072266,-16.328245,-5.1603055,-54.82443,6
1168,0.109069824,-0.014953613,0.04663086,-40.34351,-6.9083967,-104.16031,6
1169,0.12591553,-0.021118164,0.038269043,-54.908398,-13.122137,-158.32825,6
1170,0.1260376,-0.026611328,0.0413208,-61.27481,-17.496183,-199.0458,6
1171,0.12017822,-0.034362793,0.047729492,-63.045803,-20.450382,-227.63359,6
1172,0.11932373,-0.03668213,0.049682617,-50.65649,-27.93893,-240.71756,6
1173,0.13427734,-0.04046631,0.04547119,-25.137405,-36.244274,-238.9542,6
1174,0.15222168,-0.04296875,0.030212402,8.832061,-26.12977,-219.71756,6
1175,0.1640625,-0.027282715,-0.011352539,14.480916,-8.916031,-176.32825,6
1176,0.15386963,-0.014099121,0.015930176,-9.709924,1.1145039,-121.89313,6
1177,0.15655518,-0.0087890625,0.025146484,-49.20611,-5.1603055,-52.70229,6
1178,0.1583252,-0.014831543,0.02709961,-89.29008,-3.091603,-28.480917,6
1179,0.14501953,-0.028015137,0.02911377,-120.091606,-12.687023,-8.458015,6
1180,0.12408447,-0.041809082,0.03137207,-127.503815,-21.877863,-12.7404585,6
1181,0.103027344,-0.044555664,0.032165527,-123.73283,-22.038168,-25.61832,6
1182,0.09094238,-0.04675293,0.03387451,-94.12214,-23.328245,-55.587788,6
1183,0.08874512,-0.049804688,0.03741455,-48.931297,-19.412214,-54.46565,6
1184,0.093566895,-0.048583984,0.047302246,-8.198473,-15.664123,-73.48855,6
1185,0.09820557,-0.049560547,0.044128418,19.709923,-14.877863,-92.0229,6
1186,0.11352539,-0.05078125,0.049682617,45.244274,-15.427481,-98.854965,6
1187,0.12799072,-0.052124023,0.055419922,61.34351,-14.374045,-99.56489,6
1188,0.13793945,-0.049804688,0.057128906,67.42748,-13.274809,-87.53435,6
1189,0.14489746,-0.048950195,0.05291748,67.00764,-10.083969,-65.67175,6
1190,0.15863037,-0.042541504,0.05053711,65.824425,-7.2061067,-47.35878,6
1191,0.17102051,-0.037902832,0.03918457,57.480915,16.137405,-4.1984735,6
1192,0.16369629,-0.035827637,0.040527344,48,29.29771,41.198475,6
1193,0.16033936,-0.032226562,0.036071777,36.44275,49.290077,81.80153,6
1194,0.12487793,-0.028015137,0.0345459,25.114504,59.84733,122.38931,6
1195,0.12145996,-0.024108887,0.030029297,12.122137,53.9771,150.58778,6
1196,0.13391113,-0.028564453,0.022705078,13.244275,55.183205,160.83969,6
1197,0.14221191,-0.033447266,0.016052246,37.755726,54.190838,164.29007,6
1198,0.15710449,-0.036499023,0.013916016,65.84733,59.51145,149.66412,6
1199,0.15545654,-0.03265381,0.010986328,82.458015,60.40458,136.39694,6
1200,0.14959717,-0.019958496,0.014343262,73.25191,56.732826,122.55725,6
1201,0.14703369,-0.015319824,0.014526367,38.396946,45.007633,121.31298,6
1202,0.14257812,-0.013916016,0.01361084,10.229008,28.450382,124.33588,6
1203,0.13317871,-0.022216797,0.015258789,-10.4198475,18.770992,127.70229,6
1204,0.1194458,-0.02178955,0.016967773,-15.763359,11.38168,131.58778,6
1205,0.10662842,-0.022705078,0.018066406,-14.244275,4.2900763,137.08397,6
1206,0.101989746,-0.02368164,0.022460938,-4.6793895,-2.8778627,138.0458,6
1207,0.09655762,-0.025634766,0.028869629,13.4198475,-4.328244,134.53435,6
1208,0.09472656,-0.022277832,0.03314209,36.610687,-8.503817,125.68702,6
1209,0.09423828,-0.018737793,0.03253174,44.79389,-4.2671757,106.541985,6
1210,0.0904541,-0.018493652,0.037109375,41.992367,-3.6946564,79.52672,6
1211,0.093933105,-0.0178833,0.039245605,35.21374,-2.9160306,42.328243,6
1212,0.08282471,-0.019714355,0.05078125,28.801527,-5.4503818,11.366412,6
1213,0.09527588,-0.014343262,0.05114746,18.015266,-12.564885,-38.427483,6
1214,0.09765625,-0.010925293,0.051574707,-7.1679387,-17.656488,-73.52672,6
1215,0.109680176,-0.011474609,0.049560547,-42.664124,-20.259542,-124.96947,6
1216,0.114990234,-0.017456055,0.052001953,-78.183205,-23.76336,-165.7481,6
1217,0.11553955,-0.023864746,0.052856445,-88.75572,-22.389313,-197.24428,6
1218,0.111206055,-0.029724121,0.053771973,-93.70229,-24.404581,-216.61832,6
1219,0.119140625,-0.029052734,0.04449463,-95.900764,-23.213741,-223.64885,6
1220,0.14123535,-0.034118652,0.035095215,-89.71756,-17.435114,-223.35878,6
1221,0.16418457,-0.0390625,0.02355957,-67.79389,-2.3664122,-201.3435,6
1222,0.17327881,-0.03387451,0.016784668,-56.78626,11.442748,-167.50381,6
1223,0.17755127,-0.028747559,0.018310547,-65.900764,10.725191,-121.34351,6
1224,0.18060303,-0.022216797,0.02319336,-79.23664,6.8244276,-73.83206,6
1225,0.1630249,-0.024719238,0.026489258,-110.15267,-1.5496184,-54.29771,6
1226,0.1326294,-0.033203125,0.02758789,-131.61832,-10.351145,-39.366413,6
1227,0.105773926,-0.039245605,0.025390625,-133.85497,-11.7404585,-38.251907,6
1228,0.09625244,-0.04486084,0.020751953,-121.00764,-10.122137,-54.9771,6
1229,0.091796875,-0.051086426,0.016662598,-86.42748,-5.3511453,-54.244274,6
1230,0.09088135,-0.057373047,0.01953125,-39.52672,-0.71755725,-82.0458,6
1231,0.101745605,-0.06719971,0.02923584,32.93893,-1.1526718,-103.87023,6
1232,0.109680176,-0.06530762,0.040100098,96.26717,-4.587786,-113.9771,6
1233,0.120666504,-0.058288574,0.041625977,125.19847,-10.770992,-107.9542,6
1234,0.12994385,-0.04864502,0.053344727,115.59542,-17.595419,-90.061066,6
1235,0.14025879,-0.047058105,0.056030273,90.580154,-20.954199,-53.16794,6
1236,0.14147949,-0.038208008,0.051879883,65.9542,-12.78626,-20.213741,6
1237,0.13970947,-0.029846191,0.047851562,41.53435,-4.3816795,26.648855,6
1238,0.16033936,-0.030334473,0.041015625,26.641222,10.832061,65.69466,6
1239,0.1538086,-0.03387451,0.039245605,24.89313,26.351145,97.541985,6
1240,0.15795898,-0.029968262,0.014587402,21.465649,41.633587,117.83969,6
1241,0.1381836,-0.034301758,0.039978027,21.91603,41.351147,128.96184,6
1242,0.13446045,-0.03112793,0.03753662,22.946566,42.25954,135.43512,6
1243,0.123413086,-0.030090332,0.030761719,25.25191,39.992367,141.36641,6
1244,0.12768555,-0.027770996,0.022583008,30.366413,31.404581,139.01527,6
1245,0.13616943,-0.03479004,0.020507812,53.755726,33.85496,131.99237,6
1246,0.15008545,-0.03942871,0.015991211,92.80153,36.587788,112.061066,6
1247,0.16296387,-0.031921387,0.009033203,119.9542,42.068703,90.938934,6
1248,0.16375732,-0.024902344,0.005859375,119.854965,45.335876,80.21374,6
1249,0.16778564,-0.018493652,0.015991211,99.84733,45.664124,84.37405,6
1250,0.15423584,-0.0119018555,0.010070801,66.92367,38.419846,96.175575,6
1251,0.13342285,-0.008361816,0.015197754,17.931297,27.213741,115.70229,6
1252,0.110961914,-0.008605957,0.01776123,-33.08397,12.885496,137.82443,6
1253,0.09234619,-0.017150879,0.024291992,-64.34351,-5.0839696,151.39694,6
1254,0.08984375,-0.02319336,0.022460938,-62.923664,-17.717558,158.0687,6
1255,0.09490967,-0.026550293,0.025878906,-36.72519,-22.137405,153.39694,6
1256,0.090270996,-0.021911621,0.033569336,-12.80916,-20.29771,141.94656,6
1257,0.07824707,-0.019592285,0.030639648,-3.961832,-9.603053,121.07633,6
1258,0.06640625,-0.01550293,0.031982422,-11.351145,0.33587787,91.79389,6
1259,0.05834961,-0.016906738,0.04119873,-25.740458,5.6106873,42.801525,6
1260,0.05810547,-0.018127441,0.04748535,-41.099236,3.8473282,-9.343512,6
1261,0.06359863,-0.023254395,0.048583984,-56.862595,2.610687,-54.65649,6
1262,0.074157715,-0.026123047,0.04840088,-60.84733,-2.648855,-111.60305,6
1263,0.10656738,-0.025878906,0.04260254,-55.366413,-11.053435,-173.94656,6
1264,0.14117432,-0.031433105,0.05078125,-40.198475,-19.030535,-225.99237,6
1265,0.17510986,-0.041015625,0.0546875,-11.083969,-32.374046,-250.1374,6
1266,0.20507812,-0.045837402,0.060546875,7.816794,-39.839695,-250.1374,6
1267,0.20281982,-0.049194336,0.036315918,-0.8244275,-21.29771,-250.1374,6
1268,0.16552734,-0.05847168,0.028747559,-36.671757,5.7709923,-250.1374,6
1269,0.12261963,-0.055847168,0.025024414,-47.900764,25.48855,-185.56488,6
1270,0.107055664,-0.006713867,0.031188965,-29.48855,26.625954,-59.748093,6
1271,0.12512207,-0.0072631836,0.014282227,-45.687023,10.59542,-9.2595415,6
1272,0.15203857,-0.009521484,0.0024414062,-83.740456,24.91603,44.954197,6
1273,0.1583252,-0.03704834,0.0037231445,-122.08397,40.183205,72.0229,6
1274,0.15966797,-0.051696777,0.010559082,-126.80916,40.480915,56.809162,6
1275,0.1449585,-0.054260254,0.021057129,-89.21374,31.145039,26.595419,6
1276,0.11138916,-0.045654297,0.028503418,-53.610687,17.610687,-13.687023,6
1277,0.09106445,-0.038879395,0.026123047,-35.633587,7.1374044,-37.47328,6
1278,0.07055664,-0.039245605,0.029907227,-22.587786,-2.5496182,-54.74046,6
1279,0.07470703,-0.03765869,0.031799316,-14.427481,-15.312977,-54.519085,6
1280,0.08135986,-0.033996582,0.03100586,-1.5419847,-19,-54.419846,6
1281,0.08947754,-0.033691406,0.026916504,8,-19.70229,-54.312977,6
1282,0.10437012,-0.036987305,0.030090332,16.603054,-17.419847,-54.389313,6
1283,0.11517334,-0.042419434,0.038269043,38.091602,-15.282443,-54.51145,6
1284,0.12390137,-0.04345703,0.045776367,58.20611,-14.687023,-54.50382,6
1285,0.13104248,-0.04547119,0.05340576,76.32825,-20.969465,-54.564884,6
1286,0.13464355,-0.04510498,0.053771973,97.96947,-24.213741,-54.52672,6
1287,0.14337158,-0.03753662,0.04083252,102.618324,-24.274809,-47.038166,6
1288,0.15020752,-0.030761719,0.046081543,94.36641,-14.732824,-37.10687,6
1289,0.14526367,-0.02758789,0.046813965,81.099236,0.061068702,-10.78626,6
1290,0.14355469,-0.026306152,0.04272461,66.57252,18.152672,10.396947,6
1291,0.12640381,-0.025390625,0.042175293,41.65649,35.114502,39.396946,6
1292,0.11907959,-0.027038574,0.036071777,24.290077,46.580154,66.70229,6
1293,0.107666016,-0.02709961,0.035888672,8.770992,48.427483,90.0458,6
1294,0.120910645,-0.027709961,0.025146484,1.2824427,47.32061,102.938934,6
1295,0.14727783,-0.031677246,0.013244629,6.40458,52.44275,109.07633,6
1296,0.15686035,-0.036071777,0.016052246,25.969465,57.458015,112.87786,6
1297,0.16137695,-0.032958984,0.010131836,38.984734,59.87786,107.05344,6
1298,0.15740967,-0.023498535,0.0099487305,25.770992,51.46565,112.84733,6
1299,0.15386963,-0.020385742,0.014831543,-3.3969467,35.32061,123.0229,6
1300,0.14776611,-0.017028809,0.018737793,-29.931297,13.931297,139.19084,6
1301,0.13555908,-0.023071289,0.016174316,-43.412212,-5.6106873,151.50381,6
1302,0.11932373,-0.026672363,0.018554688,-33.183205,-21.755726,156.49619,6
1303,0.10656738,-0.030212402,0.026245117,-8.4198475,-27.549618,157.64885,6
1304,0.099243164,-0.030822754,0.03125,25.267176,-34.244274,153.09924,6
1305,0.10571289,-0.024475098,0.005859375,57.305344,-30.030535,145.30534,6
1306,0.089782715,-0.027282715,0.037963867,81.58778,-24.557251,120.48092,6
1307,0.084106445,-0.026672363,0.0435791,102.83206,-17.732824,92.458015,6
1308,0.080078125,-0.020385742,0.04626465,110.64886,-12.312977,55.38168,6
1309,0.07763672,-0.014587402,0.05279541,99.419846,-5.2061067,14.648855,6
1310,0.075805664,-0.011291504,0.057678223,72.89313,-5.2061067,-23.961832,6
1311,0.07183838,-0.0071411133,0.057373047,21.732824,-2.7251909,-54.587788,6
1312,0.0836792,-0.006652832,0.047546387,-32.374046,-5.740458,-94.80153,6
1313,0.12133789,-0.011657715,0.041809082,-75.05344,-6.6412215,-140.64122,6
1314,0.14501953,-0.01550293,0.03125,-105.83206,-2.5801528,-174.81679,6
1315,0.16314697,-0.027832031,0.029541016,-124.96947,-2.908397,-207.28244,6
1316,0.1616211,-0.04034424,0.03112793,-134.43512,3.9770992,-224.10687,6
1317,0.14520264,-0.045410156,0.034301758,-124.78626,3.7175572,-222.29771,6
1318,0.124938965,-0.046081543,0.031066895,-98.900764,2.3206108,-199.8626,6
1319,0.11401367,-0.049804688,0.023376465,-67.16031,-5.4580154,-159.80916,6
1320,0.121032715,-0.04675293,0.013977051,-28.641222,-9.297709,-115.69466,6
1321,0.13543701,-0.035461426,0.009094238,2.053435,-6.6488547,-57.068703,6
1322,0.14190674,-0.029296875,0.014404297,3.7709923,-7.0076337,-37.564884,6
1323,0.15826416,-0.024658203,0.017028809,-6.816794,-13.068703,-12.40458,6
1324,0.15814209,-0.028625488,0.026428223,-16.793894,-20.38168,-4.412214,6
1325,0.1394043,-0.035827637,0.034423828,-27.045801,-26.137405,-12.847328,6
1326,0.11444092,-0.039245605,0.040771484,-37.48855,-31.847328,-28.221375,6
1327,0.093688965,-0.038330078,0.045837402,-38.816795,-35.79389,-39.389313,6
1328,0.08514404,-0.036132812,0.044189453,-32.045803,-37.38168,-48.76336,6
1329,0.08477783,-0.035827637,0.039123535,-26.244274,-30.404581,-54.580154,6
1330,0.091552734,-0.04156494,0.039794922,-15.038168,-23.70229,-54.59542,6
1331,0.10723877,-0.045166016,0.042175293,8.358779,-14.946565,-54.40458,6
1332,0.11755371,-0.043273926,0.04840088,30.687023,-7.328244,-54.14504,6
1333,0.12207031,-0.0413208,0.05316162,40.282444,-3.572519,-54.47328,6
1334,0.12780762,-0.040405273,0.056030273,38.49618,-3.9312978,-45.961834,6
1335,0.13317871,-0.03741455,0.05407715,32.335876,0.5496183,-31.396946,6
1336,0.13970947,-0.03942871,0.047302246,30.67939,2.6412213,-16.374046,6
1337,0.13848877,-0.037719727,0.041931152,36.412212,15.068703,5.7633586,6
1338,0.15118408,-0.038757324,0.037231445,42.625954,21.778625,19.832062,6
1339,0.15289307,-0.03704834,0.03704834,48.34351,32.603054,32.27481,6
1340,0.14788818,-0.035888672,0.036987305,49.671757,35.038166,43.190838,6
1341,0.14361572,-0.035827637,0.035949707,45.862595,41.79389,55.908398,6
1342,0.12512207,-0.03314209,0.034362793,40.839695,46.816795,77.44275,6
1343,0.11102295,-0.027648926,0.027526855,31.664122,43.984734,98.53435,6
1344,0.13067627,-0.030090332,0.017578125,31.526718,43.72519,106.96183,6
1345,0.14111328,-0.030944824,0.0146484375,49.76336,52.38168,112.938934,6
1346,0.15759277,-0.029174805,0.007385254,64.64122,57.587788,111.76336,6
1347,0.16546631,-0.02154541,0.007385254,54.27481,59.908398,114.67939,6
1348,0.15856934,-0.016113281,0.00982666,27.25191,53.32061,121.94656,6
1349,0.14874268,-0.011291504,0.014526367,-14.7786255,33.64122,132.64122,6
1350,0.13104248,-0.014892578,0.018249512,-50.06107,10.824428,144.93893,6
1351,0.114868164,-0.021728516,0.015686035,-65.60305,-8.0992365,149.19847,6
1352,0.093566895,-0.026611328,0.019165039,-59.29771,-25.19084,145.0229,6
1353,0.08679199,-0.03515625,0.025268555,-23.335878,-36.267174,136.81679,6
1354,0.085998535,-0.032592773,0.02923584,19.587786,-38.65649,123.740456,6
1355,0.084472656,-0.030944824,0.029541016,57.480915,-36.045803,103.67939,6
1356,0.0803833,-0.02709961,0.037475586,81.99236,-29.57252,81.74809,6
1357,0.076293945,-0.02142334,0.043395996,89.35114,-21.396946,52.458015,6
1358,0.07647705,-0.016662598,0.0513916,76.75572,-17.267176,17.007633,6
1359,0.07702637,-0.013000488,0.05633545,54.045803,-17.305344,-17.06107,6
1360,0.082214355,-0.010314941,0.056396484,15.5801525,-15.61832,-54.55725,6
1361,0.092163086,-0.010375977,0.03503418,-25.23664,-16.740458,-90.145035,6
1362,0.101989746,-0.017089844,0.053710938,-49.244274,-23.778625,-128.80153,6
1363,0.14923096,-0.020629883,0.044311523,-62.748093,-22.641222,-174.67938,6
1364,0.15118408,-0.028747559,0.04425049,-69.816795,-17.358778,-197.37404,6
1365,0.17449951,-0.030578613,0.038330078,-73.45038,-16.57252,-226.18321,6
1366,0.17034912,-0.03729248,0.039733887,-84.37405,-11.709924,-222.9771,6
1367,0.15026855,-0.037963867,0.040405273,-85.69466,-4.7709923,-207.12213,6
1368,0.1293335,-0.03765869,0.039611816,-92.19847,-1.4274809,-168.23665,6
1369,0.114990234,-0.043518066,0.032226562,-87.20611,0.9847328,-122.48855,6
1370,0.13183594,-0.03491211,-0.004760742,-79.80153,6.7251906,-82.29771,6
1371,0.13641357,-0.037597656,0.012268066,-70.05344,15.198473,-54.580154,6
1372,0.14440918,-0.036132812,0.012084961,-61.70229,22.358778,-25.480917,6
1373,0.15124512,-0.033691406,0.015075684,-55.15267,22.389313,-12.328244,6
1374,0.152771,-0.036376953,0.01776123,-60.335876,16.549618,-8.916031,6
1375,0.13647461,-0.040893555,0.023925781,-65.44275,8.175572,-16.93893,6
1376,0.11590576,-0.042541504,0.0289917,-62.21374,-4.0534353,-28.312977,6
1377,0.09588623,-0.04309082,0.026672363,-47.412212,-11.435115,-40.06107,6
1378,0.08306885,-0.044677734,0.02709961,-25.900763,-14.893129,-40.17557,6
1379,0.08331299,-0.045288086,0.027038574,-6.633588,-17.900763,-40.48855,6
1380,0.087402344,-0.046447754,0.029785156,17.854961,-17.549618,-37.045803,6
1381,0.1003418,-0.046081543,0.034606934,39.29771,-19.404581,-35.267174,6
1382,0.11022949,-0.04559326,0.037719727,61.76336,-13.7786255,-28.87023,6
1383,0.11395264,-0.04156494,0.04095459,68.778625,-13.664123,-22.404581,6
1384,0.12036133,-0.04095459,0.048034668,73.55725,-12.816793,-15.572519,6
1385,0.12677002,-0.04168701,0.05206299,68.770996,-12.19084,-7.89313,6
1386,0.13305664,-0.04034424,0.049438477,73.40458,-9.412213,2.221374,6
1387,0.1418457,-0.037109375,0.041931152,74.16794,-1.5267175,12.38168,6
1388,0.16375732,-0.036315918,0.03668213,80.59542,6.961832,17.992367,6
1389,0.15960693,-0.03161621,0.037231445,80.19084,25.908398,36.519085,6
1390,0.14349365,-0.02154541,0.039001465,64.19847,29.885496,57.801525,6
1391,0.13775635,-0.02142334,0.038208008,34.137405,28.93893,79.37405,6
1392,0.13122559,-0.02508545,0.033447266,23.709923,33.801525,98.03817,6
1393,0.119506836,-0.02709961,0.029541016,23.954199,32.480915,108.52672,6
1394,0.11273193,-0.026550293,0.02319336,31.496183,31.648855,114.70229,6
1395,0.12530518,-0.024536133,0.01727295,42.35878,32.328243,112.29008,6
1396,0.12799072,-0.02911377,0.017211914,57.335876,32.687023,100.47328,6
1397,0.13757324,-0.030334473,0.015014648,79.31298,29.534351,82.175575,6
1398,0.14001465,-0.026977539,0.016235352,85.229004,30.030535,64.57252,6
1399,0.13873291,-0.020751953,0.015136719,71.099236,23.480917,52.93893,6
1400,0.13647461,-0.020141602,0.016296387,49.15267,16.38168,51.93893,6
1401,0.11804199,-0.018920898,0.01776123,26.74809,5.114504,58.290077,6
1402,0.10266113,-0.0234375,0.018554688,18.206106,-4.5725193,69.33588,6
1403,0.09436035,-0.025939941,0.021362305,24.91603,-12.274809,78.01527,6
1404,0.09490967,-0.026245117,0.021972656,36.969467,-16.160305,81.32061,6
1405,0.09741211,-0.021911621,0.021362305,44.419846,-17.480917,80.12214,6
1406,0.09667969,-0.019592285,0.022644043,42.78626,-17.633587,71.70229,6
1407,0.092163086,-0.01953125,0.029663086,40.900764,-15.5801525,59.885498,6
1408,0.08880615,-0.019470215,0.03186035,29.51145,-13.923664,40.61832,6
1409,0.08520508,-0.018859863,0.0345459,16.480917,-14.832061,16.183207,6
1410,0.084228516,-0.018005371,0.03552246,-2.8244274,-16.213741,-12.519084,6
1411,0.08642578,-0.020202637,0.0390625,-26.358778,-20.832062,-49.992367,6
1412,0.091430664,-0.02508545,0.038024902,-37.85496,-22.045801,-74.91603,6
1413,0.115478516,-0.023132324,0.034484863,-42.687023,-26.122137,-113.824425,6
1414,0.13195801,-0.027404785,0.03253174,-46.351147,-27.854961,-147.53435,6
1415,0.1552124,-0.0368042,0.042663574,-30.992367,-39.427483,-181.82443,6
1416,0.15753174,-0.048583984,0.04925537,-1.5725191,-52.366413,-196.58778,6
1417,0.15289307,-0.051513672,0.06060791,40.068703,-63.137405,-199.59541,6
1418,0.1362915,-0.043395996,0.054626465,67.580154,-61.427483,-173.55725,6
1419,0.11779785,-0.02758789,0.049804688,67.16031,-53.687023,-127.9542,6
1420,0.11663818,-0.0234375,0.05029297,41.114502,-35.47328,-84.580154,6
1421,0.118774414,-0.018371582,0.046081543,-2.0076337,-13.7404585,-54.580154,6
1422,0.13800049,-0.0256958,0.042114258,-32.35878,1.4427481,-25.526718,6
1423,0.14355469,-0.030761719,0.044128418,-50.427483,11.4198475,1.0687023,6
1424,0.14245605,-0.038269043,0.048461914,-55.137405,10.816793,17.671755,6
1425,0.14447021,-0.044555664,0.047729492,-44.694656,-0.22900763,17.351145,6
1426,0.14074707,-0.046203613,0.022644043,-13.167939,-2.1526718,21.87023,6
1427,0.11022949,-0.045959473,0.04711914,30.412214,-6.374046,17.625954,6
1428,0.095336914,-0.042297363,0.04437256,66.63359,-6.4351144,22.977098,6
1429,0.09429932,-0.033081055,0.041503906,81.31298,-0.08396947,23.12977,6
1430,0.097839355,-0.029724121,0.039916992,83.778625,1.5648855,22.900763,6
1431,0.10321045,-0.030212402,0.037597656,83.29008,10.671756,18.175573,6
1432,0.10418701,-0.030395508,0.03845215,80.9771,13.351145,15.412213,6
1433,0.10357666,-0.031677246,0.037597656,82.12977,11.5801525,10.328244,6
1434,0.107910156,-0.03265381,0.036743164,80.01527,8.160305,9.877863,6
1435,0.11791992,-0.034179688,0.038391113,82.66412,3.7480917,8.977099,6
1436,0.13098145,-0.03656006,0.02709961,91.9542,-0.6259542,1.7938931,6
1437,0.14746094,-0.042175293,0.027526855,118.03817,0.9160305,-9.007633,6
1438,0.14447021,-0.037719727,0.027832031,143.0229,5.89313,-4.2671757,6
1439,0.14550781,-0.032287598,0.024963379,142.55725,7.152672,1.648855,6
1440,0.13000488,-0.02734375,0.026977539,129.19084,15.366412,21.412214,6
1441,0.11743164,-0.028442383,0.024353027,115.56489,15.122137,35.23664,6
1442,0.12756348,-0.03125,0.018493652,112.25191,20.404581,45.770992,6
1443,0.1359253,-0.030029297,0.015808105,117.39695,32.70229,46.709923,6
1444,0.14019775,-0.027526855,0.015380859,111.9313,41.809162,49.603054,6
1445,0.12756348,-0.021972656,0.009094238,96.32825,43.16794,52.450382,6
1446,0.1182251,-0.021362305,0.009033203,66.94656,41.20611,62.732826,6
1447,0.10821533,-0.018798828,0.009094238,37.717556,33.91603,74.496185,6
1448,0.099731445,-0.020385742,0.010620117,14.038168,19.93893,86.98473,6
1449,0.1026001,-0.026306152,0.007446289,5.10687,8.534351,90.48855,6
1450,0.10455322,-0.030639648,0.0031738281,20.48855,-1.3664122,81.900764,6
1451,0.117492676,-0.032836914,-0.0018920898,51.068703,-7.885496,64.70229,6
1452,0.123168945,-0.03466797,-0.0056762695,80.183205,-9.175572,41.52672,6
1453,0.1237793,-0.02722168,0.0022583008,96.87786,-10.931297,25.442749,6
1454,0.11553955,-0.022949219,-0.0021362305,91.56489,-17.152672,16.847328,6
1455,0.1149292,-0.02520752,0.0026855469,73.35878,-29.374046,8.877863,6
1456,0.11828613,-0.029052734,0.0036621094,61.946564,-37.870228,7.9694657,6
1457,0.11779785,-0.03387451,0.0006103516,62.587788,-41.20611,9.664123,6
1458,0.115234375,-0.031555176,-0.0005493164,73.67175,-46.46565,12.977099,6
1459,0.10992432,-0.029846191,-0.0012817383,81.80916,-50.137405,16.717558,6
1460,0.11053467,-0.029663086,0.0007324219,88.87786,-53.328243,19.12977,6
1461,0.11517334,-0.027954102,0.0045776367,90.87023,-62.427483,18.328245,6
1462,0.11895752,-0.030395508,0.0040893555,94.24428,-72.68702,12.679389,6
1463,0.117614746,-0.031433105,0.010498047,102.16031,-75.31298,5.259542,6
1464,0.11920166,-0.034179688,0.013671875,114.36641,-73.89313,-1.870229,6
1465,0.12133789,-0.036621094,0.018920898,131.19847,-74.29008,-10.480916,6
1466,0.12017822,-0.036376953,0.023376465,143.06107,-72.099236,-16.519083,6
1467,0.12017822,-0.03564453,0.028564453,152.0458,-69.0458,-17.549618,6
1468,0.12286377,-0.03326416,0.030273438,150,-64.72519,-18.671755,6
1469,0.12713623,-0.030883789,0.03527832,147.71756,-53.900764,-16.022902,6
1470,0.119384766,-0.022705078,0.03527832,133.32062,-47.053436,-4.3969464,6
1471,0.15142822,-0.012207031,0.028686523,99.145035,-40.129772,1.6335878,6
1472,0.16235352,-0.016113281,0.034423828,67.64886,-27.57252,15.7786255,6
1473,0.14361572,-0.020507812,0.047851562,51.53435,-19.908398,24.435114,6
1474,0.11450195,-0.02520752,0.052124023,37.312977,-24.755726,32.70229,6
1475,0.10534668,-0.025390625,0.051330566,36.305344,-24.877863,36.91603,6
1476,0.10284424,-0.026733398,0.048461914,40.610687,-17.93893,39.229008,6
1477,0.103271484,-0.02734375,0.041503906,51.427483,-8.030535,35.419846,6
1478,0.10760498,-0.02355957,0.04095459,55.72519,1.9312977,26.786259,6
1479,0.11517334,-0.019104004,0.03930664,49.32061,11.022901,14.465649,6
1480,0.120788574,-0.017700195,0.036376953,31.961832,14.839695,3.2442749,6
1481,0.123535156,-0.021911621,0.035217285,13.480916,15.793893,-5.5419846,6
1482,0.11907959,-0.02746582,0.04046631,2.9923663,9.59542,-15.679389,6
1483,0.11968994,-0.031555176,0.034057617,3.1450381,0.22137405,-22.404581,6
1484,0.11450195,-0.0345459,0.03643799,20.969465,-7.587786,-21.648855,6
1485,0.10852051,-0.035888672,0.03479004,48.328243,-11.2595415,-17.442749,6
1486,0.10595703,-0.029418945,0.03668213,67.94656,-14.954199,-12.21374,6
1487,0.10290527,-0.025634766,0.04046631,67.137405,-16.091602,-11.847328,6
1488,0.103393555,-0.023010254,0.041809082,55.87786,-16.038168,-12.862596,6
1489,0.10284424,-0.024658203,0.041809082,46.908398,-16.557251,-19.526718,6
1490,0.103881836,-0.027770996,0.041625977,42.93893,-17.503817,-28.885496,6
1491,0.10632324,-0.02935791,0.04284668,43.44275,-20.465649,-41.160305,6
1492,0.10595703,-0.02960205,0.046081543,44.229008,-19.343512,-54.48855,6
1493,0.107788086,-0.031555176,0.04345703,42.20611,-16.29771,-54.549618,6
1494,0.10522461,-0.032470703,0.042175293,45.14504,-16.229008,-54.49618,6
1495,0.10687256,-0.03326416,0.04296875,46.648853,-13.061069,-54.427483,6
1496,0.1126709,-0.0345459,0.042541504,49.389313,-12.473283,-54.38168,6
1497,0.11730957,-0.0335083,0.042236328,47.14504,-6.7557254,-54.435116,6
1498,0.11987305,-0.034362793,0.042114258,42.83206,-3.29771,-54.51145,6
1499,0.122680664,-0.03265381,0.03942871,33.08397,-1.2137405,-41.198475,6
1500,0.13317871,-0.028869629,0.016601562,21.854961,-0.52671754,-17.267176,6
1501,0.12420654,-0.028930664,0.037963867,12.854961,-3.534351,-1.7251909,6
1502,0.14440918,-0.033996582,0.035583496,9.053435,-5.3206105,7.145038,6
1503,0.13952637,-0.034301758,0.036987305,12.160305,0.4274809,14.022901,6
1504,0.13574219,-0.032104492,0.03564453,11.755725,-1.519084,14.946565,6
1505,0.1262207,-0.034301758,0.036315918,10.78626,-0.9236641,23.06107,6
1506,0.117248535,-0.035888672,0.038330078,18.29771,-1.9923664,29.717558,6
1507,0.104003906,-0.03503418,0.035583496,27,2.091603,41.480915,6
1508,0.10028076,-0.034851074,0.03253174,39.10687,2.8091602,50.549618,6
1509,0.12054443,-0.033447266,0.02154541,55.129772,3.7557251,57.068703,6
1510,0.123413086,-0.034606934,0.029724121,77.45038,5.9083967,56.221375,6
1511,0.12994385,-0.030090332,0.027160645,88.27481,8.656488,54.038166,6
1512,0.13934326,-0.024719238,0.022460938,83.496185,10.7404585,49.61832,6
1513,0.14025879,-0.02166748,0.022399902,72.63359,13.2213745,54.55725,6
1514,0.13378906,-0.018310547,0.024291992,45.20611,12.519084,61.396946,6
1515,0.1227417,-0.019165039,0.024230957,13.511451,8.557252,67.419846,6
1516,0.11126709,-0.025512695,0.023925781,1.3664122,3,75.07633,6
1517,0.103515625,-0.02746582,0.024475098,4.3816795,-3.6183207,77.30534,6
1518,0.09820557,-0.028076172,0.022338867,18.38168,-6.3969464,74.37405,6
1519,0.09967041,-0.026123047,0.027404785,30.770992,-9.305344,69.80153,6
1520,0.09802246,-0.023498535,0.030944824,35.038166,-9.145039,58.27481,6
1521,0.09503174,-0.023498535,0.034118652,37.603054,-7.7633586,47.21374,6
1522,0.0947876,-0.023986816,0.03881836,38.778625,-9.435115,30.045801,6
1523,0.098083496,-0.021911621,0.040283203,34.045803,-5.6412215,8.564885,6
1524,0.10638428,-0.022399902,0.0413208,23.732824,-1.8625954,-12.351145,6
1525,0.11303711,-0.020507812,0.040527344,5.3816795,5.412214,-34.633587,6
1526,0.10784912,-0.018188477,0.043273926,-17.29771,8.114504,-56.045803,6
1527,0.1083374,-0.018371582,0.039794922,-41.770992,3.1526718,-54.267174,6
1528,0.14221191,-0.025268555,0.039978027,-56.366413,-0.022900764,-72.9771,6
1529,0.13928223,-0.0289917,0.039123535,-52.671757,-1.9389313,-88.25191,6
1530,0.14746094,-0.029296875,0.036499023,-55.25954,-1.5648855,-102.34351,6
1531,0.1362915,-0.031188965,0.036621094,-60.755726,-2.0839694,-104.091606,6
1532,0.12011719,-0.03112793,0.0423584,-66.091606,-0.55725193,-97.16031,6
1533,0.105041504,-0.031188965,0.04168701,-75.10687,0.39694658,-79.0229,6
1534,0.1003418,-0.03375244,0.0368042,-81.503815,1.4961832,-53.83206,6
1535,0.10223389,-0.03704834,0.03149414,-80.47328,8.435115,-54.427483,6
1536,0.10876465,-0.03967285,0.024841309,-67.83969,14.198473,-44.23664,6
1537,0.12030029,-0.036376953,0.021606445,-50.870228,18.480917,-29.793894,6
1538,0.12872314,-0.03326416,0.024108887,-44.84733,12.938931,-21.793894,6
1539,0.14154053,-0.03253174,0.02331543,-45.480915,7.80916,-13.984733,6
1540,0.14471436,-0.035217285,0.02960205,-44.396946,-1.6946565,-13.396947,6
1541,0.12701416,-0.036254883,0.029724121,-36.748093,-13.038168,-12.862596,6
1542,0.10583496,-0.03778076,0.039611816,-25.328245,-18.305344,-11.908397,6
1543,0.09136963,-0.038757324,0.0435791,-5.2519083,-20.992367,-6.854962,6
1544,0.08526611,-0.034362793,0.04486084,6.633588,-19.839695,-8.923664,6
1545,0.08514404,-0.031433105,0.03857422,12.931297,-16.793894,-11.488549,6
1546,0.095336914,-0.03326416,0.04260254,18.122137,-13.435115,-20.267176,6
1547,0.10418701,-0.03289795,0.047790527,18.496183,-9.465649,-28.038168,6
1548,0.11022949,-0.03302002,0.04937744,21.229008,-8.145039,-34.12214,6
1549,0.11376953,-0.032470703,0.049194336,12.435115,-6.961832,-33.328243,6
1550,0.11834717,-0.035705566,0.049072266,11.145039,-9.175572,-30.167938,6
1551,0.122680664,-0.03930664,0.047607422,20.854961,-6.259542,-26.89313,6
1552,0.12689209,-0.038024902,0.04711914,37.633587,-1.3358779,-27.351145,6
1553,0.12927246,-0.034118652,0.04559326,40.55725,4.2290077,-22.824427,6
1554,0.13079834,-0.029174805,0.042114258,31.045801,6.335878,-10.297709,6
1555,0.14324951,-0.034484863,0.040893555,21.442749,8.282443,-4.7557254,6
1556,0.13122559,-0.038085938,0.039489746,24.587786,8.5801525,5.3893127,6
1557,0.13903809,-0.038879395,0.035949707,31.305344,7.3816795,8.916031,6
1558,0.12890625,-0.039123535,0.03491211,44.328243,12.78626,17.122137,6
1559,0.113342285,-0.034973145,0.03918457,47.52672,18.183207,35.229008,6
1560,0.09411621,-0.03265381,0.034973145,45.91603,18.198473,55.412212,6
1561,0.11212158,-0.029846191,0.028259277,49.51145,16.610687,64.419846,6
1562,0.13134766,-0.034973145,0.026000977,58.587788,26.717558,64.66412,6
1563,0.13977051,-0.029663086,0.020751953,74.44275,33.450382,65.091606,6
1564,0.1449585,-0.022338867,0.018676758,67.099236,34.12214,64.541985,6
1565,0.14801025,-0.016235352,-0.0034179688,44.48855,29.625954,73.618324,6
1566,0.137146,-0.020141602,0.02130127,23.74809,18.450382,77.25191,6
1567,0.12536621,-0.026245117,0.022827148,18.641222,8.450381,82.39695,6
1568,0.11114502,-0.027770996,0.0211792,22.503817,-0.9847328,77.99236,6
1569,0.099487305,-0.02911377,0.021362305,35.61832,-7.885496,78.19847,6
1570,0.09375,-0.028442383,0.022705078,52.992367,-13.687023,75.76336,6
1571,0.09375,-0.023864746,0.023376465,58.51145,-14.7786255,69.59542,6
1572,0.09082031,-0.02368164,0.028320312,58.34351,-16.259542,60.732826,6
1573,0.09075928,-0.021972656,0.030883789,56.198475,-15.564885,46.25954,6
1574,0.095336914,-0.020629883,0.046813965,46.419846,-13.396947,29.80916,6
1575,0.09350586,-0.02166748,0.03491211,36.984734,-13.343512,8.473283,6
1576,0.09698486,-0.01928711,0.03540039,18.770992,-10.938931,-13.732824,6
1577,0.101867676,-0.020080566,0.036865234,-0.1908397,-12.893129,-31.32061,6
1578,0.110961914,-0.02520752,0.039489746,-14.198473,-13.80916,-54.541985,6
1579,0.10687256,-0.028808594,0.040100098,-18.007633,-17.503817,-54.29771,6
1580,0.1159668,-0.028442383,0.039489746,-13.732824,-27.67939,-77.938934,6
1581,0.14123535,-0.032043457,0.042907715,-7.7251906,-29,-94.32825,6
1582,0.13195801,-0.035217285,0.047973633,9.931297,-37.10687,-100.19084,6
1583,0.14385986,-0.030395508,0.046691895,12.7404585,-38.29771,-103.770996,6
1584,0.14019775,-0.026489258,0.049316406,5.9465647,-39.305344,-98.60305,6
1585,0.13269043,-0.02508545,0.051574707,-14.679389,-31.022902,-90.770996,6
1586,0.11505127,-0.030639648,0.053771973,-34.48855,-23.633587,-69.01527,6
1587,0.10681152,-0.032714844,0.048950195,-40.801525,-9.702291,-54.49618,6
1588,0.10876465,-0.033081055,0.046203613,-44.49618,-2.4122138,-54.816795,6
1589,0.11303711,-0.03338623,0.04284668,-44.65649,8.473283,-36.9771,6
1590,0.11480713,-0.03363037,0.03942871,-47.625954,16.007633,-26.328245,6
1591,0.117614746,-0.035217285,0.034301758,-52.32061,17.824427,-13.801527,6
1592,0.12036133,-0.03955078,0.03302002,-49.61832,16.717558,-5.4274807,6
1593,0.1251831,-0.037963867,0.03253174,-38,12.725191,4.4351144,6
1594,0.1282959,-0.035217285,0.03173828,-25.709923,5.854962,15.541985,6
1595,0.1303711,-0.036010742,0.031921387,-15.435115,-1.9541985,23.740458,6
1596,0.123413086,-0.034729004,0.037597656,-1.610687,-5.9465647,31.267176,6
1597,0.111206055,-0.032043457,0.038269043,9.7786255,-6.9770994,37.282444,6
1598,0.1003418,-0.030944824,0.03881836,14.732824,-9.282443,38.137405,6
1599,0.096191406,-0.029846191,0.040222168,19.38168,-7.3053436,32.160305,6
1600,0.095336914,-0.030212402,0.039123535,23.48855,-4.5648856,22.61832,6
1601,0.098083496,-0.028442383,0.039733887,26.587786,-5.442748,9.923664,6
1602,0.09838867,-0.029846191,0.041625977,27.91603,-5.8778625,-2.687023,6
1603,0.09802246,-0.030273438,0.040283203,28.007633,-9.694656,-11.984733,6
1604,0.099853516,-0.034179688,0.040527344,35.14504,-14.122137,-21.23664,6
1605,0.11090088,-0.036132812,0.039489746,44.068703,-14.38168,-32.671757,6
1606,0.11853027,-0.036193848,0.041503906,56.610687,-13,-42.70229,6
1607,0.12756348,-0.03387451,0.038269043,60.183205,-10.007633,-47.32061,6
1608,0.12915039,-0.03375244,0.03918457,60.435116,-11.763359,-44.198475,6
1609,0.14782715,-0.034301758,0.038024902,54.59542,-14.4198475,-35.366413,6
1610,0.14508057,-0.03765869,0.037963867,53.389313,-9.19084,-21.847328,6
1611,0.13287354,-0.036621094,0.03515625,55.0229,-6.9007635,-6.2442746,6
1612,0.14489746,-0.032287598,0.008728027,55.541985,-5.5648856,14.427481,6
1613,0.11981201,-0.03503418,0.036315918,63.335876,-4.0916033,26.198473,6
1614,0.11505127,-0.034301758,0.034851074,61.51145,-4.5419846,35.87786,6
1615,0.10656738,-0.033935547,0.035095215,67.72519,0.7251908,44.045803,6
1616,0.10040283,-0.030212402,0.032165527,67.099236,3.1755726,50.648853,6
1617,0.10736084,-0.028808594,0.029968262,64.29008,3.7709923,52.61832,6
1618,0.11663818,-0.032104492,0.0256958,67.900764,7.9694657,46.312977,6
1619,0.12426758,-0.033447266,0.022705078,79.65649,12.908397,35.55725,6
1620,0.13189697,-0.031677246,0.014526367,95.099236,16.87023,24.770992,6
1621,0.13421631,-0.025756836,0.013061523,92.099236,20.38168,18.61832,6
1622,0.13012695,-0.024353027,0.017822266,72.816795,19.358778,19.610687,6
1623,0.12335205,-0.023742676,0.016296387,43.450382,17.099237,27.709923,6
1624,0.109558105,-0.026184082,0.016174316,24.89313,12.282443,40.06107,6
1625,0.103759766,-0.027526855,0.013183594,16.473282,4.4198475,50.732826,6
1626,0.10131836,-0.028015137,0.014404297,15.473283,1.2061069,52.984734,6
1627,0.10272217,-0.029663086,0.015136719,22.641222,-4.2519083,53.183205,6
1628,0.103515625,-0.028747559,0.015380859,34.412212,-7.4885497,46.801525,6
1629,0.10205078,-0.026245117,0.017456055,39.541985,-9.358779,34.648853,6
1630,0.10675049,-0.022338867,0.0010986328,27.839695,-11.854961,25.152672,6
1631,0.10015869,-0.026977539,0.024780273,22.137405,-13.938931,8.045801,6
1632,0.10345459,-0.027893066,0.023254395,18.778625,-13.236641,-3.7633588,6
1633,0.109802246,-0.030273438,0.02520752,17.122137,-15,-21.152672,6
1634,0.11627197,-0.033447266,0.026428223,16.030535,-14.328244,-31.847328,6
1635,0.110839844,-0.029541016,0.027709961,12.633588,-16.564886,-41.900764,6
1636,0.12634277,-0.029724121,0.0256958,3.8625953,-26.793894,-54.732826,6
1637,0.14050293,-0.030639648,0.032470703,-4.19084,-33.85496,-54.587788,6
1638,0.14355469,-0.036987305,0.036254883,7.1755724,-39.59542,-54.64122,6
1639,0.14428711,-0.03704834,0.03869629,19.801527,-44.27481,-54.480915,6
1640,0.13269043,-0.034301758,0.048217773,33.229008,-40.91603,-54.55725,6
1641,0.10986328,-0.03100586,0.057495117,31.007633,-38.65649,-44.816795,6
1642,0.09838867,-0.025939941,0.0592041,14.7786255,-32.244274,-27.961832,6
1643,0.101623535,-0.023254395,0.055847168,-8.992367,-17.259542,-18.633587,6
1644,0.105529785,-0.028076172,0.04840088,-19.519083,-2.8473282,-16.519083,6
1645,0.11187744,-0.030517578,0.04437256,-23.732824,13.396947,-15.2595415,6
1646,0.11328125,-0.031677246,0.044006348,-22.42748,23.839695,-12.21374,6
1647,0.118774414,-0.032226562,0.04437256,-20.122137,20.38168,-6.6870227,6
1648,0.12841797,-0.034301758,0.05493164,-17.961832,16.801527,0.19847329,6
1649,0.12866211,-0.03515625,0.04333496,-13.19084,10.641221,6.1984735,6
1650,0.13500977,-0.030822754,0.041625977,-9.022901,6.152672,13.59542,6
1651,0.1338501,-0.029052734,0.041992188,-5.7251906,2.8396947,19.778625,6
1652,0.118896484,-0.03100586,0.046081543,2.9312978,3.4198472,21.709923,6
1653,0.10284424,-0.030456543,0.04864502,10.061069,6.0610685,21.687023,6
1654,0.09301758,-0.02923584,0.04724121,14.038168,4.1603055,16.053434,6
1655,0.08734131,-0.03100586,0.046691895,17.664122,8.702291,6.9007635,6
