measurement,Acc_X,Acc_Y,Acc_Z,Gyr_X,Gyr_Y,Gyr_Z,Label
0,0.090148926,-0.08459473,0.05230713,27.10687,-89.03053,-27.221375,14
1,0.099365234,-0.04046631,0.056518555,-7.0534353,-93.07633,-32.12214,14
2,0.10809326,-0.04901123,0.05053711,-14.977099,-41.25954,-39.16794,14
3,0.09674072,-0.02545166,0.06555176,6.1755724,4.5419846,-64.84733,14
4,0.08929443,-0.01373291,0.0513916,-0.8854962,6.2519083,-105.64886,14
5,0.09686279,-0.030212402,0.041259766,-11.954199,13.748092,-149.19084,14
6,0.08062744,-0.09802246,0.01550293,-13.106871,70.1145,-159.24428,14
7,0.05633545,-0.18811035,-0.028076172,13.961832,49.229008,-165.83206,14
8,0.06695557,-0.4345703,-0.074401855,64.73283,32.64122,-141.96947,14
9,-0.103637695,-0.48516846,-0.026306152,71.32825,161.29007,-175.71756,14
10,-0.07928467,-0.45874023,-0.042907715,42.198475,99.15267,-250.1374,14
11,-0.16033936,-0.33239746,-0.107177734,63.46565,93.29771,-250.1374,14
12,-0.14215088,-0.15539551,-0.08947754,95.47328,90.900764,-223.10687,14
13,-0.11364746,-0.05029297,-0.060424805,-18.152672,132.41985,-142.39694,14
14,-0.08050537,0.016906738,-0.013427734,36.27481,187.1145,-98.78626,14
15,-0.09674072,0.06982422,-0.030639648,56.16794,226.83969,-40.16794,14
16,-0.14208984,0.10546875,-0.039123535,15.59542,198.70993,44.755726,14
17,-0.12884521,0.13903809,-0.022827148,-85.618324,160.33588,106.67939,14
18,-0.13110352,0.1015625,-7.93E-04,-152.00763,102.32825,150.0687,14
19,-0.13690186,0.037475586,-0.011169434,-131.89313,5.29771,180.69466,14
20,-0.14355469,0.009948731,-0.012817383,-79.83206,-77.08397,198.93893,14
21,-0.17553711,-0.07965088,-0.020874023,-92.05344,-120.03053,219.82443,14
22,-0.23626709,-0.35760498,-0.088012695,-250.1374,-173.96184,250.12978,14
23,-0.21490479,-0.4440918,-0.17797852,-250.1374,-250.1374,154.06107,14
24,-0.12963867,-0.44622803,-0.14208984,-250.1374,-250.1374,49.9771,14
25,-0.034057617,-0.3671875,-0.10229492,-30.961832,-178.23665,-5.19084,14
26,0.014343262,-0.19616699,-0.02545166,-49.14504,-152.59541,-1.3435115,14
27,0.03125,-0.19256592,-0.05444336,-21.404581,-98.16031,-11.106871,14
28,0.06518555,-0.119262695,-0.009033203,12.38168,-70.778625,-12.229008,14
29,0.08972168,-0.107177734,-0.002380371,9.0992365,-86.87786,-4.2824426,14
30,0.113586426,-0.07965088,0.026794434,11.450381,-35.572517,-0.65648854,14
31,0.10479736,-0.05303955,0.040100098,-23.244274,-2.2519083,-0.8167939,14
32,0.10333252,-0.069885254,0.035827637,-56.732826,15.091603,-16.007633,14
33,0.10601807,-0.084106445,0.011352539,-47.83206,65.41222,-48.030533,14
34,0.08886719,-0.08758545,0.007507324,6.183206,143.54199,-96.16031,14
35,0.045776367,-0.11743164,-0.024108887,64.496185,172.7939,-115.29771,14
36,0.026428223,-0.1675415,-0.075683594,98.908394,112.54962,-161.80153,14
37,0.050598145,-0.30480957,-0.14575195,97.58778,3.1374047,-135.9313,14
38,-0.036743164,-0.45916748,-0.25842285,-54.328243,250.12978,-106.64122,14
39,-0.20452881,-0.37438965,-0.15716553,105.35878,37.40458,-189.35115,14
40,-0.08581543,-0.28503418,-0.18676758,105.21374,186.77863,-199.50381,14
41,-0.15405273,-0.14117432,-0.1048584,148.18321,170.45801,-190.3435,14
42,-0.13562012,-0.037597656,-0.07824707,66.40458,138.12213,-123.16794,14
43,-0.08251953,0.012634277,-0.020812988,103.21374,170.31297,-72.854965,14
44,-0.10510254,0.07104492,-0.041870117,148.9771,217.12213,-15.564885,14
45,-0.14672852,0.12719727,-0.025756836,131.21375,166.82443,60.84733,14
46,-0.13201904,0.17114258,-0.005615234,18.526718,120.61069,111.580154,14
47,-0.14685059,0.12438965,-0.026794434,-91.37405,56.91603,162.93893,14
48,-0.14849854,0.06555176,-0.032043457,-115.175575,-59.82443,189.07634,14
49,-0.15771484,-0.01361084,-0.012084961,-136.87022,-127.21374,219.41985,14
50,-0.25054932,-0.40454102,-0.16290283,-250.1374,-234.45038,236.03053,14
51,-0.19085693,-0.46142578,-0.16296387,-250.1374,-250.1374,96.46565,14
52,-0.06463623,-0.4356079,-0.16455078,-189,-184.64885,57.70229,14
53,-0.013244629,-0.26776123,-0.03540039,-25.160305,-130.91603,8.137404,14
54,0.017028809,-0.22479248,-0.068481445,-73.908394,-149.87022,36.290077,14
55,0.06036377,-0.14819336,-0.014770508,2.0687022,-67.63359,18.465649,14
56,0.07067871,-0.12109375,-0.002624512,9.083969,-107.99236,26.526718,14
57,0.10058594,-0.1038208,0.014953613,9.442748,-91.03817,16.954199,14
58,0.07928467,-0.0770874,0.04510498,-0.53435117,44.351147,9.320611,14
59,0.061645508,-0.055236816,0.06304932,27.557251,62.74046,19.351145,14
60,0.07775879,-0.045166016,0.078186035,72.03817,11.977099,0.46564886,14
61,0.10211182,-0.040527344,0.055541992,60.21374,-31.633587,-64.580154,14
62,0.11871338,-0.043395996,0.024658203,28.496183,45.93893,-77.29771,14
63,0.093444824,-0.12445068,-0.027954102,-37.030533,125.57252,-82.12214,14
64,0.05822754,-0.322937,-0.115234375,-29.87023,139.15266,-108.19084,14
65,-0.010192871,-0.50616455,-0.25317383,63.755726,165.67175,-53.16794,14
66,-0.1897583,-0.35040283,-0.29522705,200.1374,101.183205,-225.87787,14
67,-0.16149902,-0.16796875,-0.16345215,200.8626,236.53435,-196.70993,14
68,-0.15106201,-0.059509277,-0.14013672,97.60305,92.48855,-149.6565,14
69,-0.1026001,0.003662109,-0.05279541,16.961832,152.61832,-94.259544,14
70,-0.08428955,0.035583496,-0.053955078,115.183205,187.71756,-33.72519,14
71,-0.1281128,0.13574219,-0.027770996,133.96184,166.82443,20.198473,14
72,-0.113586426,0.1616211,-0.028198242,9.633588,96.10687,57.732826,14
73,-0.105773926,0.15222168,-0.022521973,-61.305344,43.839695,98.55725,14
74,-0.12158203,0.10119629,-0.026794434,-132.21375,-15.59542,145.29007,14
75,-0.13903809,0.044311523,-0.02746582,-133.75572,-101.76336,162.68703,14
76,-0.16845703,-0.057006836,-0.023071289,-135.16794,-155.76335,177.67938,14
77,-0.2144165,-0.25457764,-0.12451172,-174.14503,-203.9542,174.49619,14
78,-0.24682617,-0.41571045,-0.21472168,-222.3435,-250.1374,164.70993,14
79,-0.14233398,-0.43725586,-0.13824463,-250.1374,-189.56488,78.15267,14
80,-0.09814453,-0.35333252,-0.12298584,-217.59541,-144.51144,25.755726,14
81,-0.014038086,-0.2617798,-0.053771973,-56.870228,-157.62596,-1.2290076,14
82,0.031311035,-0.17944336,-0.047424316,-60.15267,-105.8855,14.206107,14
83,0.047058105,-0.16052246,0.00769043,38.648853,-54.648853,8.40458,14
84,0.05645752,-0.119506836,0.013427734,117.099236,-51.290077,56.778625,14
85,0.08959961,-0.08807373,0.048034668,142.30534,-87.03817,22.152672,14
86,0.106933594,-0.032287598,0.033996582,82.20611,-99.53435,-31.404581,14
87,0.123535156,-0.033203125,0.047424316,-18.664122,-6.038168,-15.114504,14
88,0.109375,-0.05456543,0.053833008,-50.12214,60.625954,-50.267174,14
89,0.08795166,-0.05822754,0.04437256,-17.160305,88.91603,-100.36641,14
90,0.06732178,-0.08581543,0.031188965,-18.068703,112.778625,-118.75572,14
91,0.042053223,-0.18536377,-0.046447754,-15.427481,118.68702,-117.0458,14
92,0.023254395,-0.36816406,-0.12286377,41.435116,101.0458,-100.099236,14
93,-0.1706543,-0.4958496,-0.19470215,78.71756,242.1374,-81.419846,14
94,-0.2154541,-0.38879395,-0.20825195,223.61069,62.969467,-175.15266,14
95,-0.1515503,-0.24603271,-0.17443848,109.8855,189.22137,-206.03816,14
96,-0.17193604,-0.10217285,-0.16796875,77.740456,129.70993,-172.54199,14
97,-0.096069336,0.001953125,-0.071777344,-70.23664,57.267174,-149.2061,14
98,-0.07104492,-0.008239746,0.003234863,-67.80153,144.55725,-40.16794,14
99,-0.08581543,0.064208984,-0.016479492,128.78625,215.45038,-13,14
100,-0.1251831,0.15081787,-0.028747559,121.229004,148.42747,39.450382,14
101,-0.09967041,0.17510986,-0.020751953,-20.717558,87.92367,81.16031,14
102,-0.09490967,0.12145996,-0.015686035,-97,29.045801,113.145035,14
103,-0.11804199,0.09124756,-0.046691895,-134.22137,-44.20611,144.31297,14
104,-0.14056396,0.0501709,-0.044128418,-205.61832,-138.80916,162.61832,14
105,-0.19696045,-0.112854004,-0.1048584,-250.1374,-155.98473,195.80153,14
106,-0.32922363,-0.3684082,-0.27770996,-250.1374,-250.1374,215.37404,14
107,-0.2041626,-0.40167236,-0.21386719,-69.36641,-230.80153,65.34351,14
108,-0.1282959,-0.39282227,-0.17480469,-250.1374,-40.305344,69.44275,14
109,-0.09655762,-0.2946167,-0.12573242,2.832061,-116.25191,-25.694656,14
110,0.003051758,-0.20227051,-0.06488037,-43.664124,-163.9771,10.5801525,14
111,0.035827637,-0.1854248,-0.051208496,3.3816793,-75.259544,1.1603054,14
112,0.04486084,-0.14477539,0.0178833,77.175575,-80.40458,6.2748094,14
113,0.07128906,-0.09057617,0.048706055,63.35878,-95.0687,0.14503817,14
114,0.1005249,-0.07055664,0.04522705,1.3740458,-68.9313,-28.549618,14
115,0.10089111,-0.07800293,0.05078125,24.12977,24.51145,-13.870229,14
116,0.085632324,-0.067871094,0.07476807,41.87786,55.603054,-46.007633,14
117,0.073791504,-0.052734375,0.05822754,56.61832,53.458015,-79.28244,14
118,0.059326172,-0.071899414,0.044555664,34.931297,66.58778,-108.381676,14
119,0.032348633,-0.17010498,-0.037841797,-6.5496182,90.27481,-121.58778,14
120,-0.003540039,-0.31207275,-0.09887695,31.755726,119.854965,-108.8855,14
121,-0.06945801,-0.4202881,-0.23620605,77.23664,1.0763359,-82.68702,14
122,-0.10437012,-0.4081421,-0.2753296,119.25191,219.53435,-142.00763,14
123,-0.21704102,-0.27294922,-0.2538452,205.38931,250.12978,-177.51909,14
124,-0.1850586,-0.083618164,-0.11846924,198.62596,188.3435,-173.62596,14
125,-0.11352539,-0.012695313,-0.1027832,-55.40458,170.0229,-94.48092,14
126,-0.09649658,0.011901856,-0.057128906,74.28244,155.30534,-43.007633,14
127,-0.092041016,0.09063721,-0.031799316,76.137405,125.56489,17.541985,14
128,-0.109802246,0.13134766,-0.016052246,2.3435113,98.47328,68.87786,14
129,-0.10437012,0.15234375,-0.013183594,-48.900764,74.56489,74.65649,14
130,-0.10839844,0.12915039,-0.018615723,-126.70229,14.519084,84.79389,14
131,-0.10845947,0.08441162,-0.029663086,-157.61832,-57.67939,107.19084,14
132,-0.1508789,0.0413208,-0.049621582,-170.69466,-139.50381,129.53435,14
133,-0.16955566,-0.03326416,-0.0725708,-162.38931,-195.1374,139.19084,14
134,-0.29016113,-0.22857666,-0.2197876,-250.1374,-239.45801,161.7939,14
135,-0.3046875,-0.3955078,-0.34210205,-214.36641,-250.1374,122.9313,14
136,-0.14300537,-0.35565186,-0.14105225,-199.80916,-125.099236,11.4198475,14
137,-0.16998291,-0.28070068,-0.15795898,-250.1374,-98.80916,17.32061,14
138,-0.05340576,-0.19714355,-0.06793213,-86.56489,-163.94656,-10.977099,14
139,-0.017333984,-0.14935303,-0.103515625,-128.57253,-143.7481,8.160305,14
140,0.022033691,-0.16485596,-0.05126953,-56.12214,-87.42748,-19.015266,14
141,0.026855469,-0.1305542,-0.014892578,-17.595419,-126.221375,-10.854961,14
142,0.06854248,-0.079833984,0.018981934,-52.732826,-135.8855,-35.305344,14
143,0.0848999,-0.08666992,0.002441406,-106.29771,-129.9084,-47.35878,14
144,0.083618164,-0.08709717,0.008239746,-44.954197,-28.099237,-46.053436,14
145,0.08831787,-0.055664062,0.03942871,9.916031,5.366412,-46.923664,14
146,0.08557129,-0.056274414,0.066467285,44.099236,3.7709923,-49.48855,14
147,0.10296631,-0.039367676,0.088378906,69.48855,65.12977,-85.33588,14
148,0.075927734,-0.07879639,0.06298828,39.969467,147.16031,-93.9542,14
149,0.03253174,-0.13995361,0.025634766,-23.946566,195.62596,-128.31297,14
150,0.014892578,-0.28363037,-0.09106445,-110.32061,42.76336,-123.23664,14
151,-0.060058594,-0.59350586,-0.4216919,-34.129772,-13.931297,-9.511451,14
152,-0.12585449,-0.41766357,-0.25531006,250.12978,250.12978,-250.1374,14
153,-0.1784668,-0.4159546,-0.18469238,3.183206,143.73282,-190.0229,14
154,-0.20477295,-0.32824707,-0.3741455,250.12978,234.61832,-215.32062,14
155,-0.19958496,-0.08721924,-0.18322754,250.12978,250.12978,-207.8626,14
156,-0.17132568,-0.012695313,-0.15588379,-44.778625,150.62596,-106.05344,14
157,-0.08721924,-0.024169922,-0.060424805,61.70229,161.9771,-83.37405,14
158,-0.103027344,0.05810547,-0.029052734,72.9313,250.12978,-16.687023,14
159,-0.13702393,0.08856201,-0.051452637,19.198473,205.33588,20.862595,14
160,-0.1295166,0.12695312,-0.035095215,-19.648855,142.68703,45.984734,14
161,-0.1083374,0.15600586,-0.051513672,-83.70229,78.67175,37.335876,14
162,-0.101135254,0.13494873,-0.064697266,-205.31297,-36.709923,38.47328,14
163,-0.09173584,0.08465576,-0.061340332,-230.9771,-131.99237,54.709923,14
164,-0.077819824,0.019958496,0.001037598,-220.70993,-199.1374,105.52672,14
165,-0.05303955,-0.022460938,0.031555176,-119.75572,-176.43512,173.6565,14
166,-0.08117676,0.014892578,0.036865234,-4.6946564,-75.27481,219.7939,14
167,-0.15319824,0.014343262,-0.01739502,5.5801525,-30.580153,222.9084,14
168,-0.36791992,-0.29333496,-0.24267578,-250.1374,-224.3435,190.43512,14
169,-0.2947998,-0.4802246,-0.4025879,-250.1374,-250.1374,145.26718,14
170,-0.1531372,-0.5165405,-0.42736816,-250.1374,-250.1374,-3.961832,14
171,-0.09851074,-0.36413574,-0.24139404,-96.36641,-194.93893,-97.59542,14
172,-0.004150391,-0.21282959,-0.09887695,-34.007633,-142.8626,-72.32825,14
173,0.018432617,-0.159729,-0.068603516,-42.17557,-28.305344,-37.64122,14
174,0.042541504,-0.113586426,-0.0289917,65.1145,-30.770992,-56.55725,14
175,0.08380127,-0.077697754,-0.008728027,61.053436,-63.007633,-19.770992,14
176,0.14337158,-0.08074951,0.009033203,27.76336,-76.31298,-61.572517,14
177,0.14459229,-0.07720947,0.016296387,9.328244,122.94656,-28.229008,14
178,0.09118652,-0.072143555,0.04748535,25.687023,186.72519,-54.541985,14
179,0.06530762,-0.068725586,0.04083252,66.67939,163,-41.67939,14
180,0.061645508,-0.10858154,-0.008361816,60.65649,90.42748,-101.64886,14
181,0.032348633,-0.17999268,-0.0949707,75.900764,154.69466,-95.27481,14
182,0.00970459,-0.25524902,-0.1519165,140.3435,151.30534,-139.21375,14
183,-0.04840088,-0.4484253,-0.31152344,89.061066,105.0229,-107.900764,14
184,-0.1260376,-0.35760498,-0.369812,250.12978,164.96184,-250.1374,14
185,-0.22021484,-0.21569824,-0.24017334,49.450382,174.1145,-235.66412,14
186,-0.14611816,-0.13220215,-0.23236084,35.519085,24.366413,-198.41985,14
187,-0.12640381,-0.02734375,-0.09631348,41.49618,250.12978,-149.80916,14
188,-0.11004639,-0.00201416,-0.002807617,29.145039,250.12978,-13.129771,14
189,-0.07836914,0.0256958,0.015930176,132.6565,250.12978,47.251907,14
190,-0.10614014,0.11193848,-0.033081055,168.96184,250.12978,153.21375,14
191,-0.1605835,0.20355225,-0.02331543,6.5801525,250.12978,151.18321,14
192,-0.13085938,0.15814209,-0.002136231,-246.37404,199.98473,162.66412,14
193,-0.12860107,0.10601807,-0.019042969,-250.1374,125.908394,148.3435,14
194,-0.15557861,0.064208984,-0.059020996,-250.1374,6.8396945,121.19084,14
195,-0.20440674,-0.047790527,-0.15368652,-250.1374,-112.938934,84.824425,14
196,-0.32226562,-0.2678833,-0.35827637,-250.1374,-250.1374,59.053436,14
197,-0.19525146,-0.3922119,-0.35144043,-4.847328,-250.1374,19,14
198,-0.095703125,-0.3760376,-0.20898438,-135.83206,7.1679387,70.31298,14
199,-0.1348877,-0.27166748,-0.15893555,29.671755,-95.099236,-26.580153,14
200,-0.015808105,-0.1506958,-0.08331299,18.862595,-228.30534,-35.61832,14
201,0.070251465,-0.128479,-0.0657959,-94.29008,-137.35878,-17.145039,14
202,0.097961426,-0.16699219,-0.0524292,-60.85496,-74.20611,-64.938934,14
203,0.07733154,-0.12042236,0.016906738,43.12214,97.35878,-67.0229,14
204,0.017150879,-0.08544922,0.08544922,41.17557,28.076336,-64.66412,14
205,0.04864502,-0.07763672,0.027954102,74.099236,-61.48855,-67.25191,14
206,0.05810547,-0.057739258,0.0256958,91.64886,-5.80916,-81.48855,14
207,0.035827637,-0.04425049,0.008300781,52.48855,52.389313,-99.98473,14
208,0.026733398,-0.07055664,-0.006103516,31.404581,63.267174,-137.41985,14
209,0.011901856,-0.14147949,-0.041625977,-12.511451,113.71756,-169.96184,14
210,-0.002807617,-0.21704102,-0.070007324,-1.4580153,129.23665,-189.39694,14
211,0.02154541,-0.31311035,-0.18304443,-45.312977,-40.85496,-147.25954,14
212,-0.01776123,-0.36950684,-0.35150146,57.633587,156.10687,-67.03817,14
213,-0.14160156,-0.2869873,-0.24047852,195.41985,250.12978,-92.061066,14
214,-0.20397949,-0.12573242,-0.17663574,165.68703,141.32062,-46.664124,14
215,-0.057250977,-0.008728027,-0.11413574,-15.022901,37.717556,-117.74809,14
216,-0.024230957,0.01776123,-0.053771973,-107.35114,229.87787,3.610687,14
217,-0.10461426,0.046936035,-0.003112793,31.91603,250.12978,9.007633,14
218,-0.1295166,0.119506836,-0.025878906,-17.229008,90.0229,60.67939,14
219,-0.08959961,0.10083008,0.002929688,-75.51145,37.06107,94.740456,14
220,-0.099853516,0.07269287,0.020080566,-81.62595,31.38168,151.08397,14
221,-0.109069824,0.044006348,-0.007263184,-78.01527,-26.244274,171.18321,14
222,-0.121398926,0.021728516,-0.04272461,-66.78626,-82.54962,164.07634,14
223,-0.15246582,-0.05596924,-0.07141113,-56.015266,-208.9313,100.62595,14
224,-0.18585205,-0.2144165,-0.14666748,-82.854965,-250.1374,71.56489,14
225,-0.23797607,-0.43450928,-0.25164795,-69.12214,-250.1374,59.15267,14
226,-0.0847168,-0.37841797,-0.13867188,-1.3587786,-235.2519,-17.022902,14
227,-0.083618164,-0.27453613,-0.08215332,-175.9771,-238.80153,-45.64122,14
228,0.024230957,-0.23712158,-0.10668945,-93.37405,-250.1374,-43.305344,14
229,0.08117676,-0.14074707,-0.001586914,-152.70229,-128.41222,-40.87786,14
230,0.033813477,-0.15783691,-0.018798828,-165.55725,-92.46565,-24.824427,14
231,0.05859375,-0.10522461,0.004333496,-56.305344,-83.26717,-48.51145,14
232,0.07342529,-0.050720215,0.011047363,-8.549619,-53.969467,-39.221375,14
233,0.092041016,-0.011352539,0.018249512,2.6564887,-37.85496,-48.770992,14
234,0.10046387,-0.026367188,0.01928711,-38.030533,-9.045801,-34.961834,14
235,0.113586426,-0.05517578,-0.005249023,-21.412214,55.839695,-46.46565,14
236,0.10180664,-0.08679199,2.44E-04,21.183207,141.24428,-84.54962,14
237,0.06933594,-0.18811035,0.004150391,26.12977,247.32062,-91.66412,14
238,0.018066406,-0.31695557,-0.08911133,-38.244274,136.75572,-133.8626,14
239,0.031799316,-0.43218994,-0.28601074,127.72519,-149.35115,-157.33588,14
240,0.0647583,-0.38848877,-0.33306885,244.75572,250.12978,-214.27481,14
241,-0.14929199,-0.4163208,-0.19110107,104.68702,250.12978,-130.64885,14
242,-0.21905518,-0.246521,-0.2835083,250.12978,99.61069,-81.9542,14
243,-0.07122803,0.026000977,-0.21221924,250.12978,152.08397,-225.87787,14
244,-0.09069824,0.09411621,-0.063964844,-230.06107,250.12978,-95.56489,14
245,-0.10888672,0.013061523,-0.08514404,-121.37405,188.66412,-29.854961,14
246,-0.12237549,0.11077881,-0.018066406,6.9465647,190.83206,38.51145,14
247,-0.14855957,0.1383667,-0.007507324,-91.60305,114.28244,95.221375,14
248,-0.11505127,0.10418701,0.00390625,-108.29771,66.67175,138.66412,14
249,-0.113098145,0.07672119,0.009460449,-139.99237,4.3587785,185.12978,14
250,-0.11199951,0.055541992,-0.018432617,-157.61069,-73.72519,203.03816,14
251,-0.15075684,0.04058838,-0.034606934,-152.9542,-144.83206,191.2061,14
252,-0.22351074,-0.21313477,-0.12719727,-250.1374,-250.1374,154.42747,14
253,-0.2843628,-0.4616089,-0.3209839,-250.1374,-250.1374,158.24428,14
254,-0.10479736,-0.52282715,-0.3085327,-180.48856,-229.28244,19.755726,14
255,-0.14550781,-0.36279297,-0.1696167,-120.66412,84.79389,-26.435114,14
256,-0.0625,-0.1897583,-0.08117676,-3.557252,-210.51909,-122.35114,14
257,0.043945312,-0.1194458,-0.05505371,-103.68702,-185.0687,-87.15267,14
258,0.05657959,-0.08972168,-0.059631348,-61.267174,-80.458015,-75.54962,14
259,0.057128906,-0.06604004,-0.006347656,-37.114502,-123.36641,-76.59542,14
260,0.07006836,-0.044677734,-0.019042969,-10.160305,-122.862595,-65.79389,14
261,0.09460449,-0.039123535,0.009033203,-13.671756,-116.94656,-50.61832,14
262,0.110839844,-0.052734375,0.01965332,-31.045801,-71.32825,-46.312977,14
263,0.12591553,-0.05029297,0.034240723,-15.496183,-17.931297,-66.83969,14
264,0.12963867,-0.059570312,0.002502441,-39.900764,27.755726,-83.183205,14
265,0.09674072,-0.13366699,-0.06542969,-53.045803,85.21374,-81.23664,14
266,0.049560547,-0.23925781,-0.14178467,-55.53435,163.10687,-128.2519,14
267,0.024963379,-0.33355713,-0.22302246,61.244274,202.96184,-150.96947,14
268,-0.007629395,-0.42132568,-0.36608887,98.87786,127.54962,-153.36641,14
269,-0.03869629,-0.36645508,-0.32159424,250.12978,250.12978,-165.09924,14
270,-0.20062256,-0.20654297,-0.22216797,215.42747,250.12978,-147.51144,14
271,-0.14508057,1.83E-04,-0.17388916,184.32825,21.526718,-155.7481,14
272,-0.008911133,0.04937744,-0.07330322,-140.03816,143.0916,-61.25954,14
273,-0.071899414,-0.002746582,-0.003601074,-88.60305,250.12978,16.305344,14
274,-0.08532715,0.048095703,-0.040161133,-16.694656,250.12978,103.0687,14
275,-0.1071167,0.09838867,-0.026855469,-36.49618,246.43512,168.0916,14
276,-0.12219238,0.09118652,0.006103516,-73.458015,87.458015,163.90076,14
277,-0.107299805,0.06573486,-0.004821777,-74.900764,8.5801525,148.55725,14
278,-0.11602783,0.058410645,-0.03540039,-133.58778,-70.32061,164.01527,14
279,-0.14794922,-0.010681152,-0.044189453,-165.1145,-167.40459,142.27481,14
280,-0.22631836,-0.33081055,-0.15563965,-250.1374,-250.1374,129.58015,14
281,-0.23181152,-0.53790283,-0.34698486,-181.32825,-250.1374,133.07634,14
282,-0.1005249,-0.26843262,-0.14447021,-121.9542,-38.89313,-118.42748,14
283,-0.002197266,-0.175354,-0.056396484,-105.618324,-168.90076,-146.57253,14
284,0.06536865,-0.11694336,-0.071777344,-81.83206,-152.66412,-143.22137,14
285,0.077697754,-0.064453125,-0.013671875,-66.27481,-15.206107,-120.28244,14
286,0.060668945,-0.052978516,0.008728027,-53.396946,-107.99236,-112.15267,14
287,0.08294678,-0.046936035,0.006530762,24.496183,-90.824425,-99.29008,14
288,0.092163086,-0.02923584,0.033996582,60.954197,-49.091602,-73.32825,14
289,0.105651855,-0.03552246,0.03729248,40.74046,-77.091606,-63.137405,14
290,0.14208984,-0.04046631,0.009765625,27.42748,-112.80916,-114.458015,14
291,0.175354,-0.04815674,-0.06225586,-47.435116,-109.458015,-152.2061,14
292,0.14691162,-0.21655273,-0.18890381,-130.0916,180.0458,-135.54199,14
293,0.042663574,-0.30322266,-0.21746826,70.9313,250.12978,-210.7939,14
294,0.026000977,-0.35412598,-0.25024414,25.816793,143.28244,-198.09924,14
295,0.07409668,-0.3895874,-0.4524536,68.47328,225.22137,-186.3435,14
296,-0.02923584,-0.29022217,-0.31695557,248.38168,250.12978,-145.07634,14
297,-0.082336426,-0.12005615,-0.24627686,226.90076,250.12978,-93.12977,14
298,-0.16845703,0.056274414,-0.1126709,105.34351,250.12978,-88.70992,14
299,-0.087646484,0.036132812,-0.10430908,-154.08397,143.29771,31.480917,14
300,-0.10498047,0.061340332,-5.49E-04,-46.541985,229.19847,89.76336,14
301,-0.19189453,0.0914917,-0.005126953,-103.1145,162.8855,153.6565,14
302,-0.16491699,-0.002319336,0.031066895,-43.091602,0.4427481,140.23665,14
303,-0.113342285,-0.018188477,0.015258789,98.70229,-39.65649,178.21375,14
304,-0.095581055,0.03387451,0.001464844,81.496185,-101.091606,192.33588,14
305,-0.07507324,0.06945801,-0.0256958,-46.38168,-127.26717,206.25954,14
306,-0.1149292,0.038024902,-0.049621582,-245.54199,-182.48091,169.42747,14
307,-0.15423584,-0.11621094,-0.09100342,-250.1374,-250.1374,124.15267,14
308,-0.1930542,-0.37243652,-0.21826172,-250.1374,-250.1374,185.0229,14
309,-0.1828003,-0.5994873,-0.5020752,-181.55725,-250.1374,43.541985,14
310,0.010375977,-0.44537354,-0.20446777,62.839695,-143.75572,-55.839695,14
311,0.009155273,-0.26623535,-0.118652344,-9.358779,-160.9084,-75.98473,14
312,0.070617676,-0.16845703,-0.088012695,15.038168,-160.12978,-94.16794,14
313,0.072631836,-0.07739258,-0.014343262,21.25191,-77.221375,-87.740456,14
314,0.07495117,-0.028747559,0.005554199,-21.89313,-140.62596,-60.48855,14
315,0.0826416,0.010070801,-0.028198242,-62.687023,-130.49619,-55.328243,14
316,0.11529541,0.058898926,-0.016845703,-205.0687,-119.35114,-95.94656,14
317,0.15020752,-0.009216309,-0.018737793,-250.1374,-34.290077,-55.74046,14
318,0.14752197,-0.11779785,-0.01953125,-149.91603,40.053436,-95.541985,14
319,0.14562988,-0.08105469,-0.00958252,0.71755725,108.0687,-110.62595,14
320,0.12670898,-0.10601807,-0.078063965,11.229008,121.10687,-111.51908,14
321,0.10015869,-0.19940186,-0.21575928,-82.70229,131.36641,-109.29771,14
322,0.083618164,-0.31134033,-0.3930664,65.221375,250.12978,-112.9542,14
323,0.012390137,-0.32226562,-0.33984375,133.06107,250.12978,-71.44275,14
324,-0.06567383,-0.19207764,-0.3215332,250.12978,250.12978,-89.72519,14
325,-0.10662842,0.016662598,-0.20422363,195.12213,250.12978,-79.38931,14
326,-0.14984131,0.08728027,-0.13916016,-156.9542,188.42747,7.7328243,14
327,-0.08013916,0.05316162,-0.12310791,-112.39695,249.51909,80.66412,14
328,-0.19146729,0.12097168,-0.051879883,-101.51908,250.12978,184,14
329,-0.18792725,0.10040283,-0.006774902,-101.75572,232.19847,241.70229,14
330,-0.15039062,0.10467529,0.019348145,-40.969467,217.17557,250.12978,14
331,-0.15393066,0.08666992,0.005126953,-54.16794,96.541985,250.12978,14
332,-0.13092041,0.034973145,-0.018798828,-97.19847,-58.946564,237.69466,14
333,-0.17376709,-0.022399902,0.070129395,-250.1374,-179.70229,143.92366,14
334,-0.20532227,-0.35864258,-0.13616943,-250.1374,-250.1374,169.07634,14
335,-0.22961426,-0.5028076,-0.31347656,14.122137,-250.1374,136.57253,14
336,-0.12799072,-0.44335938,-0.21228027,-250.1374,-250.1374,50.51145,14
337,-0.15441895,-0.30078125,-0.09661865,-249.45038,-211.58015,-30.541985,14
338,-0.040649414,-0.22241211,-0.10058594,-35.50382,-138.229,-112.55725,14
339,0.041137695,-0.11621094,-0.024230957,14.21374,-127.32825,-79.59542,14
340,0.044799805,-0.07312012,-0.003051758,-38.29771,-90.9313,-33.923664,14
341,0.059692383,-0.06317139,-0.013000488,-27.725191,-74.740456,-18.580153,14
342,0.07861328,-0.060668945,0.041809082,39.65649,-18.335878,-7.8702292,14
343,0.05114746,-0.07244873,0.0848999,109.64122,44.099236,-7.8015265,14
344,0.05718994,-0.055419922,0.10205078,143.40459,-75.061066,-18.740458,14
345,0.15142822,-0.09259033,0.009948731,-10.923664,-102.83206,-110.48092,14
346,0.11578369,-0.258667,-0.045532227,-50.954197,118.03817,-134.03816,14
347,-1.22E-04,-0.40460205,-0.083862305,86.51145,225.9771,-234.50381,14
348,-0.024047852,-0.44659424,-0.101257324,110.9771,-98.21374,-250.1374,14
349,0.0390625,-0.3796997,-0.17376709,137.16031,98.175575,-250.1374,14
350,-0.05847168,-0.32684326,-0.1194458,55.67939,168.48856,-250.1374,14
351,-0.07434082,-0.19171143,-0.087524414,54.15267,115.137405,-250.1374,14
352,-0.043823242,-0.058044434,-0.040771484,-38.35878,132.78625,-217.68703,14
353,-0.053100586,-0.002929688,-0.04925537,-198.36641,180.78625,-124.62595,14
354,-0.08227539,0.010559082,-0.038879395,-195.41222,151.9084,-71.46565,14
355,-0.15734863,0.03161621,-0.050598145,-104.15267,124.35114,44.396946,14
356,-0.1928711,0.10266113,-0.03125,-3.038168,42.15267,46.572517,14
357,-0.14605713,0.097351074,-0.014648438,-80.64122,24.847328,107.47328,14
358,-0.13830566,0.067993164,-0.011230469,-36.610687,9.839695,167.73282,14
359,-0.13641357,0.064453125,-0.028381348,-82.51145,-10.961832,232.8626,14
360,-0.14709473,0.001159668,-0.030212402,-162.24428,-84.580154,242.60306,14
361,-0.1828003,-0.24102783,-0.109802246,-241.92366,-216.10687,221.80153,14
362,-0.19537354,-0.47277832,-0.27667236,-109.30534,-250.1374,232.93893,14
363,-0.002624512,-0.4527588,-0.19250488,-43.64122,-147.09924,139.96947,14
364,-0.10699463,-0.4039917,-0.04071045,-223.09924,-107.28244,80.87786,14
365,-0.007568359,-0.29760742,-0.10583496,-88.29771,-180.80153,33.862595,14
366,0.033325195,-0.16949463,-0.049560547,-59.694656,-117.64886,23.961832,14
367,0.031555176,-0.09454346,0.004272461,-86.419846,-97.908394,15.877863,14
368,0.041748047,-0.06262207,-0.006225586,-138.38168,-170.32062,-14.045801,14
369,0.07684326,-0.08862305,-0.006652832,-117.51908,-182.61069,-5.9541984,14
370,0.11407471,-0.105651855,-0.006469727,-44.64122,-153.49619,-66.19084,14
371,0.13861084,-0.105895996,0.010375977,6.40458,-67.0458,-58.72519,14
372,0.13775635,-0.107177734,0.045898438,19.06107,13.503817,-71.98473,14
373,0.12609863,-0.13562012,0.036010742,91.43511,88.75572,-86.58778,14
374,0.08935547,-0.13049316,0.039001465,193.78625,147.14503,-121.541985,14
375,0.052856445,-0.11895752,0.012756348,133.22137,103.30534,-136.96184,14
376,0.055236816,-0.324646,-0.137146,-28.580153,54.160305,-33.89313,14
377,-0.10668945,-0.57458496,-0.35046387,116.19084,184.38168,53.908398,14
378,-0.2041626,-0.4432373,-0.19195557,250.12978,250.12978,-201.29007,14
379,-0.20568848,-0.23687744,-0.22576904,58.29771,222.38168,-153.8626,14
380,-0.13018799,-0.09307861,-0.15673828,-107.05344,128.45038,-250.1374,14
381,-0.08758545,-0.030944824,-0.11553955,-250.1374,124.80153,-153.54962,14
382,-0.10070801,-0.084472656,-0.024291992,-250.1374,93.54962,-63.541985,14
383,-0.09246826,-0.037353516,-0.00189209,-97.35114,128.87787,1.8396946,14
384,-0.1071167,0.018066406,0.006774902,-53.35878,127.778625,50.79389,14
385,-0.113098145,0.046142578,-0.002929688,55.305344,140.45801,84.12977,14
386,-0.097595215,0.10217285,0.005004883,175.2519,102.183205,58.366413,14
387,-0.083618164,0.13018799,-0.03704834,119.45038,4.29771,42.59542,14
388,-0.1149292,0.11260986,-0.011413574,-54.572517,-117.84733,68.541985,14
389,-0.11755371,0.058166504,-0.006408691,-121.9771,-209.31297,90.816795,14
390,-0.13555908,-0.035888672,-0.08306885,-190.0229,-218.58015,117.84733,14
391,-0.21801758,-0.2607422,-0.3024292,-250.1374,-250.1374,160.59541,14
392,-0.14019775,-0.42993164,-0.52246094,-127.496185,-250.1374,3.1755726,14
393,-0.003967285,-0.37017822,-0.25897217,-250.1374,-112.08397,-57.885498,14
394,0.02154541,-0.30633545,-0.19110107,-236.87787,-88.29771,-141.38931,14
395,0.075683594,-0.1743164,-0.101745605,-48.045803,-86.61069,-198.45801,14
396,0.07733154,-0.11663818,-0.052856445,-13.931297,5.40458,-139.53435,14
397,0.038513184,-0.08062744,-0.005493164,118.938934,1.9312977,-141.28244,14
398,0.033813477,-0.022155762,-5.49E-04,154.54962,-85.87023,-109.16031,14
399,0.049438477,0.020446777,0.017089844,161.81679,-89.52672,-94.92367,14
400,0.08355713,0.064575195,0.003173828,139.83206,-107.23664,-103.03817,14
401,0.11968994,0.074401855,0.016845703,40.748093,-56.664124,-118.61069,14
402,0.16931152,0.08929443,0.023132324,-3.8778627,-64.96183,-112.54962,14
403,0.17150879,0.032104492,-0.017150879,-54.328243,113.05344,-64.67175,14
404,0.09460449,-0.043701172,-0.015014648,-96.42748,250.12978,-14.549619,14
405,0.085510254,-0.2678833,-0.13482666,-250.1374,-3.1450381,120.51908,14
406,0.024719238,-0.5355835,-0.7161255,-32.183205,-180.35115,-29.984734,14
407,-0.008422852,-0.3665161,-0.46575928,250.12978,250.12978,-41.38168,14
408,-0.23431396,-0.35760498,-0.30737305,-10.587787,250.12978,-18.610687,14
409,-0.1607666,-0.08795166,-0.18133545,250.12978,143.18321,-150.45038,14
410,-0.001525879,0.044128418,-0.05340576,-76.83969,225.44275,-73.56489,14
411,-0.06585693,-0.023376465,-0.018188477,-85.01527,250.12978,38.282444,14
412,-0.10736084,0.045898438,-0.025024414,47.969467,239.64885,70.20611,14
413,-0.118896484,0.16290283,-0.04296875,24.366413,202.83969,110.05344,14
414,-0.22833252,0.17944336,0.005310059,-72.53435,84.900764,98.541985,14
415,-0.15722656,0.12640381,0.0368042,-53.450382,-63.816795,98.83206,14
416,-0.14849854,0.10479736,0.004455566,-92.0458,-87.61069,190.17557,14
417,-0.18005371,0.06994629,-0.031677246,-126.74809,-194.06107,205.93893,14
418,-0.20892334,-0.07232666,-0.04486084,-194.98473,-250.1374,226.71756,14
419,-0.30926514,-0.38616943,-0.33392334,-250.1374,-250.1374,250.12978,14
420,-0.22247314,-0.5192261,-0.54522705,159.8626,-250.1374,106.30534,14
421,-0.028198242,-0.49597168,-0.1975708,-146.98473,59.870228,247.30534,14
422,-0.07867432,-0.27404785,-0.11755371,228.12213,-85.15267,-48.778625,14
423,0.07385254,-0.128479,-0.033325195,-123.9313,-123.44275,7.70229,14
424,0.06976318,-0.1251831,0.004882813,-137.58015,-106.70992,-78.57252,14
425,0.043518066,-0.081726074,0.041503906,-25.435114,-94.87023,-94.91603,14
426,0.072387695,-0.03704834,0.04888916,-14.648855,-149.93893,-109.64122,14
427,-0.2218628,-0.15588379,-0.10437012,160.15266,250.12978,-149.47328,14
428,-0.08862305,-0.020324707,-0.11645508,60.862595,147.00763,-122.34351,14
429,-0.03955078,0.018005371,-0.045654297,-63.160305,250.12978,-18.068703,14
430,-0.17211914,0.13201904,-0.043945312,186.14503,209.74046,202,14
431,-0.16308594,0.1975708,-0.0234375,50.770992,85.76336,158.05344,14
432,-0.12689209,0.13598633,-0.030944824,-130.38931,-17.274809,171.84734,14
433,-0.12701416,0.07556152,-0.055480957,-196.51909,-95.908394,205.17557,14
434,-0.1459961,0.045532227,-0.056884766,-247.72519,-159.229,218.27481,14
435,-0.21954346,-0.12982178,-0.024597168,-250.1374,-220.90076,159.84734,14
436,-0.35009766,-0.47680664,-0.4194336,-250.1374,-250.1374,250.12978,14
437,-0.19555664,-0.56817627,-0.541687,-171.17557,-250.1374,-129.9542,14
438,-0.052490234,-0.4208374,-0.23730469,-244.77863,-87.0458,-19.641222,14
439,0.017150879,-0.23059082,-0.07348633,57.809162,-94.64122,-167.99237,14
440,0.07348633,-0.096191406,-0.017578125,-36.351147,-151.05344,-88.60305,14
441,0.08856201,-0.0803833,-0.02923584,-71.175575,-118.503815,-53.82443,14
442,0.09313965,-0.059387207,0.004333496,-28.213741,-76.0229,-49.21374,14
443,0.086242676,-0.026306152,0.04144287,-13.679389,-19.015266,-39.427483,14
444,0.034606934,-0.30560303,-0.23712158,69.80916,250.12978,-98.0458,14
445,0.008728027,-0.3768921,-0.30914307,91.00764,177.12978,-147.03053,14
446,-0.025146484,-0.38165283,-0.46447754,90.00764,250.12978,-121.75572,14
447,-0.15393066,-0.35516357,-0.2814331,179.58778,250.12978,-85.20611,14
448,-0.2243042,-0.12548828,-0.21142578,250.12978,250.12978,-31.496183,14
449,-0.08404541,0.028076172,-0.08984375,161.58778,105.00764,-108.67175,14
450,-0.036132812,0.06530762,-0.08770752,-81.20611,245.07634,16.793894,14
451,-0.10784912,0.00177002,-0.010131836,88.73283,198.51909,81.58778,14
452,-0.10449219,0.10736084,-0.026733398,216.85497,178.98473,136.72519,14
453,-0.114746094,0.16680908,-0.03845215,75.854965,204.48856,157.64885,14
454,-0.13061523,0.124694824,-0.049072266,-44.633587,82.65649,150.78625,14
455,-0.09814453,0.09625244,-0.043273926,-121.60305,-9.267176,168.90076,14
456,-0.12310791,0.05609131,-0.040405273,-219.62596,-43.78626,188.47328,14
457,-0.16656494,-0.041748047,-0.029663086,-250.1374,-114.61069,140.32062,14
458,-0.2526245,-0.307312,-0.09790039,-250.1374,-250.1374,113.33588,14
459,-0.23553467,-0.46069336,-0.31585693,-42.687023,-250.1374,112.259544,14
460,-0.11816406,-0.5288696,-0.12976074,-202.31297,-207.50381,79.03053,14
461,-0.12072754,-0.36193848,-0.15264893,60.305344,-120.87786,36.038166,14
462,-0.046447754,-0.16668701,-0.0390625,84.00764,-226,-3.610687,14
463,0.04321289,-0.121154785,-0.02709961,-122.23664,-250.1374,41.900764,14
464,0.08166504,-0.10217285,-0.028747559,-37.603054,-118.778625,6.5038166,14
465,0.024230957,-0.07165527,0.07904053,-67.061066,-94.854965,-14.603053,14
466,0.05609131,-0.05328369,0.060180664,-72.79389,-148.93893,-32.15267,14
467,0.10223389,-0.064453125,0.05230713,-19.801527,-143.35115,-45.610687,14
468,0.1418457,-0.061706543,0.056030273,-31.603054,-80.84733,-68.381676,14
469,0.14874268,-0.086364746,0.018920898,-10.160305,-89.43511,-72.36641,14
470,0.14849854,-0.08660889,-0.026733398,20.015266,-50.12214,-143.40459,14
471,0.11694336,-0.17553711,-0.08062744,-87.80916,68.580154,-189.57253,14
472,0.03955078,-0.3922119,-0.13287354,-115.137405,250.12978,-193.42747,14
473,-0.07116699,-0.5469971,-0.20129395,93.9313,143.61069,-161.23665,14
474,-0.07800293,-0.42041016,-0.18121338,250.12978,213.31297,-228.6565,14
475,-0.125,-0.28607178,-0.23632812,250.12978,250.12978,-203.41985,14
476,-0.17364502,-0.09509277,-0.15039062,178.18321,250.12978,-165.77863,14
477,-0.17102051,0.0413208,-0.07165527,-115.9542,110.83206,-214.38931,14
478,-0.07141113,-0.011352539,-0.021911621,-250.1374,59.160305,-87.83969,14
479,-0.0713501,-0.05328369,-0.10723877,-121.83969,202.96947,44.67939,14
480,-0.14807129,0.058898926,-0.027282715,108.07633,170.07634,58.229008,14
481,-0.084350586,0.09680176,0.009948731,-93.80916,103.73283,114.8855,14
482,-0.06463623,0.07019043,-0.01348877,-18.259542,139.41222,129.22137,14
483,-0.077697754,0.09777832,-0.016540527,-37.931297,65.824425,148.54962,14
484,-0.085998535,0.07067871,-0.048034668,-178.1374,-31.847328,177.48856,14
485,-0.13366699,0.018066406,-0.005493164,-201.771,-94.36641,165.87787,14
486,-0.18426514,-0.113586426,-0.039001465,-250.1374,-155.39694,135.58015,14
487,-0.333313,-0.38500977,-0.21160889,-250.1374,-250.1374,205.48856,14
488,-0.30633545,-0.6119995,-0.3970337,-175.8626,-250.1374,221.55725,14
489,-0.14685059,-0.31274414,-0.11828613,223.9084,-112.32061,96,14
490,-0.13043213,-0.12310791,-0.07501221,72.83206,-104.53435,50.450382,14
491,-0.04119873,-0.0949707,-0.08795166,-140.30534,-250.1374,-40.17557,14
492,0.09716797,-0.12805176,-0.06713867,-155.62596,-250.1374,-27.587786,14
493,0.14837646,-0.11834717,-0.097473145,-101.183205,-129.2061,-32.137405,14
494,0.12695312,-0.07556152,0.022521973,-40.84733,48.671757,-70.96183,14
495,0.0871582,-0.08892822,0.07098389,-75.01527,-7.3816795,-82.08397,14
496,0.11230469,-0.08190918,0.05316162,-71.15267,-91.33588,-109.099236,14
497,0.15222168,-0.052246094,0.024658203,-74.32061,-64.221375,-135.94656,14
498,0.15093994,-0.13208008,-0.039367676,-166.7481,110.63359,-118.35114,14
499,0.05731201,-0.3366089,-0.13140869,-117.16031,250.12978,-128.00763,14
500,-0.06604004,-0.32641602,-0.14257812,250.12978,250.12978,-250.1374,14
501,-0.018371582,-0.36297607,-0.15710449,97.778625,-39.366413,-218.94656,14
502,0.001281738,-0.4385376,-0.37878418,16.053434,174.0687,-194.48091,14
503,-0.10583496,-0.30340576,-0.29296875,250.12978,250.12978,-250.1374,14
504,-0.17871094,-0.10308838,-0.22564697,140.40459,250.12978,-230.9542,14
505,-0.13452148,0.01550293,-0.13885498,-43.549618,190.7481,-191.06107,14
506,-0.068725586,0.01727295,-0.055480957,-98.47328,164.229,-79.145035,14
507,-0.14398193,0.08911133,-0.07788086,34.21374,250.12978,30.244274,14
508,-0.22106934,0.16540527,-0.010070801,32.47328,177.24428,79.72519,14
509,-0.12695312,0.1774292,0.012329102,-34.946564,110.28244,160.63359,14
510,-0.1708374,0.15545654,0.0256958,-154.70229,101.52672,250.12978,14
511,-0.16308594,0.0748291,0.030273438,-202.12978,-4.5343513,250.12978,14
512,-0.17407227,0.042907715,-0.03845215,-179.0687,-80.71756,250.12978,14
513,-0.24310303,-0.08868408,-0.05529785,-250.1374,-219.8626,143.24428,14
514,-0.31225586,-0.4312744,-0.27490234,-250.1374,-250.1374,195.54962,14
515,-0.25305176,-0.5180664,-0.4741211,-154.40459,-250.1374,34.76336,14
516,-0.07458496,-0.40350342,-0.26715088,-250.1374,-105.76336,-25.068703,14
517,-0.0501709,-0.27929688,-0.1741333,-188.87022,-113.32825,-174.70993,14
518,0.007202148,-0.15234375,-0.09094238,-57.23664,-124.99236,-158.61832,14
519,0.052001953,-0.10015869,-0.05432129,-63.244274,-122.419846,-110.05344,14
520,0.066101074,-0.08154297,-0.020629883,-25.290077,-95.15267,-99.9313,14
521,0.044921875,-0.06237793,0.008850098,34.900764,-76.42748,-91.07633,14
522,0.052612305,-0.032714844,0.008361816,68.39695,-98.96947,-78.84733,14
523,0.07684326,-0.0256958,0.01953125,19.900763,-96.23664,-63.27481,14
524,0.12286377,-0.020874023,0.03186035,-14.755725,-126.61069,-81.32061,14
525,0.17669678,-0.04650879,-0.014038086,-83.19084,-100.64886,-90.48855,14
526,0.17388916,-0.13317871,-0.057922363,-129.12978,143.41222,-83.39695,14
527,0.080566406,-0.27539062,-0.12976074,-101.96183,250.12978,-88.137405,14
528,0.019714355,-0.34857178,-0.21734619,105.68702,228.96184,-207.61069,14
529,-4.88E-04,-0.3602295,-0.42175293,55.954197,-100,-214.54199,14
530,0.043884277,-0.27313232,-0.45788574,75.19847,250.12978,-194.60306,14
531,-0.09851074,-0.25457764,-0.33007812,-22.099237,250.12978,-107.03053,14
532,-0.24975586,-0.10522461,-0.20251465,235.92366,249.22137,-53.633587,14
533,-0.048461914,0.059143066,-0.10455322,182.25954,162.32062,-91.00764,14
534,-0.05999756,0.07208252,-0.093444824,-59.396946,250.12978,75.24428,14
535,-0.1706543,0.07647705,-0.07269287,65.98473,250.12978,109.59542,14
536,-0.115356445,0.15368652,0.012695313,-3.427481,189.0229,154.82443,14
537,-0.13092041,0.13842773,0.011962891,-121.51908,203.87787,185.8855,14
538,-0.16259766,0.089904785,0.012573242,-110.54962,82.19084,176.85497,14
539,-0.12750244,0.06225586,-0.00958252,-81.53435,-28.595419,172.0458,14
540,-0.15527344,0.02130127,-0.05255127,-91.89313,-121.9313,163.64122,14
541,-0.15594482,-0.099609375,-0.049926758,-201.80153,-223.03816,108.175575,14
542,-0.19732666,-0.37231445,-0.15795898,-250.1374,-250.1374,154.81679,14
543,-0.18823242,-0.4418335,-0.35235596,-47.64122,-250.1374,88.45038,14
544,-0.022338867,-0.42010498,-0.20043945,-176.1145,-188.80916,39,14
545,-0.08068848,-0.2869873,-0.13098145,-144.00763,-49.35878,-36.64122,14
546,-0.03314209,-0.15142822,-0.056884766,-103.07633,-172.69466,-86.862595,14
547,0.055847168,-0.085876465,-0.06738281,-209.71756,-243.71756,-110.1145,14
548,0.07714844,-0.09515381,-0.07354736,-193.54199,-54.732826,-73.541985,14
549,0.025268555,-0.062072754,-0.020080566,-106.62595,-37.51145,-106.51145,14
550,0.10998535,-0.057250977,-0.029663086,-39.572517,-86.69466,-88.87023,14
551,0.13549805,-0.08087158,0.01574707,52.17557,-67.0229,-77.824425,14
552,0.16601562,-0.06652832,-0.002990723,62.64122,-23.23664,-77.175575,14
553,0.15197754,-0.10772705,-0.04864502,16.412214,43.48855,-66.541985,14
554,0.107910156,-0.20367432,-0.14440918,3.2290077,159.64122,-95.221375,14
555,0.06842041,-0.2387085,-0.18292236,118.01527,209.39694,-174.61832,14
556,0.06567383,-0.27789307,-0.28625488,-33.427483,54.14504,-111.9313,14
557,0.03765869,-0.32531738,-0.41497803,33,238.43512,-69.76336,14
558,-0.054382324,-0.23718262,-0.30041504,190.7939,250.12978,-115.770996,14
559,-0.13104248,-0.09887695,-0.22064209,96.15267,250.12978,-71.32825,14
560,-0.11993408,-0.017944336,-0.08428955,43.366413,183.6565,-41.603054,14
561,-0.07702637,0.015930176,-0.08068848,27.687023,154.84734,50.305344,14
562,-0.12036133,0.036193848,0.01171875,76.19084,242.18321,118.80153,14
563,-0.15161133,0.09503174,-0.005859375,65.05344,191.36641,155.03816,14
564,-0.13830566,0.117492676,-0.009887695,38.25954,157.73282,147.39694,14
565,-0.12945557,0.121154785,-0.004821777,-3.0076337,66.137405,127.07633,14
566,-0.115234375,0.08306885,-0.040161133,-67.78626,-19.389313,135.85497,14
567,-0.12585449,0.051818848,-0.048034668,-125.96183,-102.46565,136.54962,14
568,-0.1449585,-0.063964844,-0.016845703,-239.36641,-187.96184,120.28244,14
569,-0.17736816,-0.29467773,-0.13970947,-250.1374,-250.1374,169.9313,14
570,-0.20935059,-0.46618652,-0.40130615,-198.12978,-250.1374,145.9542,14
571,-0.046447754,-0.40203857,-0.21490479,-84.08397,-100.67175,22.854961,14
572,-0.09008789,-0.2800293,-0.15740967,-186.18321,-74.34351,-20.755726,14
573,-0.044067383,-0.2185669,-0.09008789,-86.80916,-138.99237,-78.23664,14
574,0.032348633,-0.1437378,-0.08746338,-42.351147,-193.771,-82.37405,14
575,0.05102539,-0.089782715,-0.046203613,-39.25954,-58.923664,-68.75572,14
576,0.042175293,-0.055725098,-0.018554688,-54.549618,-90.03817,-77.43511,14
577,0.06402588,-0.034057617,-0.022338867,-20.854961,-190.83206,-103.770996,14
578,0.10864258,-0.02923584,-0.030029297,-1.870229,-222.45038,-95.35114,14
579,0.19110107,-0.032043457,-0.047302246,-46.10687,-241.81679,-105.48855,14
580,0.2376709,-0.07366943,-0.03314209,-131.61069,71.73283,-50.251907,14
581,0.12530518,-0.14282227,0.004760742,-62.038166,250.12978,-69.10687,14
582,0.022583008,-0.20819092,-0.082214355,-71.67175,250.12978,-74.580154,14
583,0.037109375,-0.23529053,-0.16485596,159.45801,130.45801,-166.2061,14
584,0.09136963,-0.28302002,-0.28100586,33.053436,-8.61832,-137.29771,14
585,0.06512451,-0.3284912,-0.42175293,63.694656,250.12978,-39.87786,14
586,-0.11932373,-0.2939453,-0.35998535,161.96947,250.12978,-53.946564,14
587,-0.20227051,-0.08465576,-0.15856934,197.27481,250.12978,-38.450382,14
588,-0.064819336,0.02178955,-0.123291016,78.23664,68.52672,-79.862595,14
589,-0.035827637,0.025146484,-0.060302734,-52.671757,250.12978,41.35878,14
590,-0.115356445,0.04345703,-0.04522705,65.67939,215.19847,89.16031,14
591,-0.1427002,0.12023926,0.004882813,26.343512,153.49619,173.87022,14
592,-0.10101318,0.15777588,0.027832031,-45.900764,87.099236,171,14
593,-0.103271484,0.13024902,0.018188477,-142.15266,22.51145,153.77863,14
594,-0.10632324,0.0848999,-0.012939453,-174.83969,-82.87786,143.89313,14
595,-0.122924805,0.054992676,-0.034606934,-166.41985,-173.03053,121.51908,14
596,-0.15020752,0.005004883,-0.03704834,-157.64122,-214.56488,92.84733,14
597,-0.22210693,-0.23071289,-0.20690918,-250.1374,-235.9313,117.94656,14
598,-0.33190918,-0.42163086,-0.5414429,-153.92366,-250.1374,90.24428,14
599,-0.0256958,-0.46569824,-0.26727295,-150.62596,-127.79389,-33.84733,14
600,-0.1060791,-0.31140137,-0.25634766,-71.57252,27.114504,-74.824425,14
601,-0.010681152,-0.16638184,-0.054992676,79.03817,-121.099236,-121.71756,14
602,0.039916992,-0.088134766,-0.0869751,-94.46565,-171.56488,-59.809162,14
603,0.08050537,-0.103271484,-0.053833008,-39.12214,-169.03053,-89.21374,14
604,0.07702637,-0.057006836,-0.038391113,7.7175574,-36.35878,-98.778625,14
605,0.056884766,-0.027954102,0.034973145,41.29771,-45.648853,-88.34351,14
606,0.057495117,-0.033935547,0.033203125,-1.0229008,-113.10687,-71.0458,14
607,0.093933105,-0.043395996,0.04260254,23.977098,-120.94656,-77.61069,14
608,0.15899658,-0.046142578,0.026733398,18.793894,-83.87023,-101.83969,14
609,0.14990234,-0.076660156,-0.007629395,-14.106871,80.92367,-94.69466,14
610,0.1005249,-0.16674805,-0.024963379,-36.580154,186.21375,-145.98473,14
611,0.05126953,-0.26971436,-0.1619873,-76.54962,160.9771,-192.45801,14
612,0.12445068,-0.30236816,-0.21087646,68.259544,0.70229006,-250.1374,14
613,0.11810303,-0.38391113,-0.48876953,-93.61069,250.12978,-147.60306,14
614,-0.031311035,-0.3803711,-0.33587646,211.1145,250.12978,-143.90076,14
615,-0.13446045,-0.21179199,-0.20251465,250.12978,250.12978,-119.908394,14
616,-0.1026001,-0.004577637,-0.15789795,205.82443,127.816795,-206.76335,14
617,-0.022705078,0.053955078,-0.058410645,-213.12213,204.63359,-48.992367,14
618,-0.07946777,-0.01361084,-0.04046631,-99.854965,250.12978,19.694656,14
619,-0.13214111,0.082092285,-0.018432617,-13.885496,226.61832,103.31298,14
620,-0.16949463,0.12768555,-0.007324219,-68.70229,147.99237,127.01527,14
621,-0.1642456,0.12963867,0.0335083,-75.89313,44.21374,103.24428,14
622,-0.16644287,0.06707764,0.03265381,-98.24428,-55.305344,151.9542,14
623,-0.17645264,0.050048828,-0.020935059,-66.496185,-174.92366,185.41985,14
624,-0.15637207,0.004577637,-0.049682617,-73.54962,-250.1374,168.30534,14
625,-0.18170166,-0.2664795,-0.14929199,-250.1374,-250.1374,172.7481,14
626,-0.1873169,-0.46081543,-0.45043945,-218.56488,-250.1374,200.27481,14
627,-0.018310547,-0.45404053,-0.3968506,-250.1374,-190.90076,64.16031,14
628,-0.046203613,-0.39337158,-0.2894287,-205.00763,-17.267176,-11.396947,14
629,0.013244629,-0.24108887,-0.05871582,87.08397,-71.28244,-68.42748,14
630,0.049926758,-0.12860107,-0.06567383,11.0992365,-157.8855,-25.038168,14
631,0.053100586,-0.11450195,-0.028625488,56.862595,-89.64122,-12.251908,14
632,0.04901123,-0.045654297,-0.015441895,83.854965,-144.01527,-27.946566,14
633,0.08093262,-0.016845703,0.046447754,-23.526718,-144.96184,-41.862595,14
634,0.10296631,-0.029846191,0.021484375,-20.732824,-160.87787,-52.610687,14
635,0.15209961,-0.030883789,0.028137207,-54.9771,-92.419846,-79.03053,14
636,0.15917969,-0.056030273,0.018737793,-77.63359,-12.717557,-95.42748,14
637,0.14733887,-0.09069824,-0.002441406,-79.229004,75.71756,-92.39695,14
638,0.10632324,-0.17767334,-0.051940918,-23.80916,148.81679,-99.39695,14
639,0.069885254,-0.23498535,-0.16394043,31.74809,97.908394,-165.00763,14
640,0.109375,-0.3017578,-0.30908203,-108.76336,4.3969464,-129.1145,14
641,0.08477783,-0.41809082,-0.55895996,-189.12978,250.12978,-4.0992365,14
642,-0.07495117,-0.36224365,-0.49523926,224.28244,250.12978,-92.41222,14
643,-0.10845947,-0.12713623,-0.30560303,250.12978,250.12978,-125.36641,14
644,-0.15197754,0.041809082,-0.20092773,172.03816,250.12978,-83.541985,14
645,-0.13769531,0.06500244,-0.005004883,-19.152672,213.14503,-51.709923,14
646,-0.09234619,0.05822754,-0.09576416,-44.23664,242.53435,78.46565,14
647,-0.17608643,0.13446045,-0.025817871,48.08397,233.07634,123.87786,14
648,-0.17401123,0.15704346,-0.003417969,-60.328243,89.229004,126.419846,14
649,-0.1381836,0.10418701,0.00402832,-102.28244,14.854961,138,14
650,-0.12207031,0.08880615,3.05E-04,-93.01527,-79.099236,148.03053,14
651,-0.11804199,0.06390381,-0.04437256,-135.89313,-152.87787,155.85497,14
652,-0.13824463,0.016784668,-0.066345215,-170.26718,-212.58015,143.23665,14
653,-0.14416504,-0.175354,-0.10406494,-250.1374,-250.1374,114.36641,14
654,-0.16601562,-0.36169434,-0.28637695,-250.1374,-250.1374,162.87022,14
655,-0.11437988,-0.39141846,-0.46813965,-117.54962,-250.1374,67.53435,14
656,-0.044921875,-0.40966797,-0.23522949,-250.1374,-121.580154,46.83206,14
657,-0.05834961,-0.2727661,-0.19042969,-94.19847,-121.900764,-132.39694,14
658,0.029541016,-0.17449951,-0.06427002,-117.96947,-196.58015,-86.42748,14
659,0.04699707,-0.14556885,-0.101623535,-60.007633,-133.25954,-45.40458,14
660,0.030578613,-0.12445068,-0.027954102,25.534351,-62.732826,-46.160305,14
661,0.043518066,-0.06640625,-0.007324219,134.24428,-143.8626,-54.748093,14
662,0.10864258,-0.037597656,0.017822266,60.312977,-168.49619,-42.53435,14
663,0.15386963,-0.079589844,-0.018249512,-3.8778627,-111.00764,-43.183205,14
664,0.16131592,-0.093811035,0.020874023,13.770992,114.54962,-59.450382,14
665,0.12182617,-0.13739014,0.013366699,-6.6183205,173.12978,-61.70229,14
666,0.10083008,-0.23529053,-0.07836914,55.06107,142.82443,-65.27481,14
667,0.08862305,-0.2672119,-0.16088867,234.23665,196.2061,-149.70993,14
668,0.09094238,-0.28259277,-0.19940186,218.84734,93.938934,-139.48091,14
669,0.009094238,-0.31933594,-0.31671143,138.41222,250.12978,-69.24428,14
670,-0.053100586,-0.2788086,-0.20587158,250.12978,250.12978,-152.87022,14
671,-0.09686279,-0.15509033,-0.18182373,106.145035,230.9084,-184.8626,14
672,-0.07623291,-0.04522705,-0.17303467,-26.793894,187.45038,-160.61069,14
673,-0.08972168,3.66E-04,-0.08898926,-124.70992,250.12978,-96.32825,14
674,-0.1305542,-0.011047363,-0.105895996,-23.778625,156.91603,-0.96183205,14
675,-0.15899658,0.016662598,-0.039733887,178.15266,137.10687,57.778625,14
676,-0.14141846,0.15637207,-0.026428223,246.31297,173,60.27481,14
677,-0.1572876,0.1776123,-0.055847168,31.29771,50.244274,54.23664,14
678,-0.13439941,0.07775879,-0.057250977,-129.1145,-87.259544,96.59542,14
679,-0.13342285,-0.023254395,-0.06982422,-219.8855,-188.30534,137.41222,14
680,-0.13494873,-0.19616699,-0.09326172,-250.1374,-250.1374,142.771,14
681,-0.083618164,-0.35510254,-0.16784668,-250.1374,-250.1374,109.68702,14
682,-0.056152344,-0.40545654,-0.32659912,-215.99237,-250.1374,65.496185,14
683,0.015686035,-0.40118408,-0.2010498,-235.81679,-165.70993,42.0229,14
684,0.012145996,-0.32537842,-0.10583496,-119.42748,-188.23665,-72.47328,14
685,0.044799805,-0.20336914,-0.081726074,-3.5419848,-225.66412,-91.541985,14
686,0.055358887,-0.12658691,-0.045898438,0.114503816,-183.1374,-65.816795,14
687,0.047546387,-0.084228516,-0.054260254,51.89313,-225.82443,-84.60305,14
688,0.08190918,-0.043701172,-0.07476807,128.78625,-243.9542,-139.48856,14
689,0.15289307,0.016052246,-0.009216309,-49.633587,-123.419846,-132.84734,14
690,0.11071777,-0.095214844,0.01574707,-110.51908,-24.832062,-107.53435,14
691,0.12109375,-0.043395996,0.07495117,98.503815,23.015266,-106.45038,14
692,0.16253662,0.01586914,0.07476807,4.5419846,9.755725,-109.53435,14
693,0.121276855,-0.06304932,-0.010559082,-29.717558,157.77863,-80.80916,14
694,0.078125,-0.08062744,-0.023986816,28.366413,199.62596,-138.54962,14
695,0.12438965,-0.18450928,-0.046875,-77.56489,112.54962,-79.259544,14
696,0.17572021,-0.48571777,-0.31256104,-195.47328,-68.60305,-13.2213745,14
697,0.08856201,-0.5001831,-0.49047852,190.87022,250.12978,-48.312977,14
698,-0.11639404,-0.37774658,-0.19989014,223.29007,250.12978,-144.73282,14
699,-0.0892334,-0.09173584,-0.22161865,250.12978,183.19084,-97.56489,14
700,-0.025024414,0.053222656,-0.09680176,-43.91603,250.12978,-96.740456,14
701,-0.103271484,0.014343262,0.010070801,-149.78625,222.9771,36.351147,14
702,-0.10192871,0.054016113,-0.06488037,-52.72519,239.71756,91.862595,14
703,-0.119506836,0.13897705,-0.03161621,-65.54962,187.87787,119.76336,14
704,-0.1352539,0.09814453,-0.016967773,-120.43511,98.0458,116.64122,14
705,-0.10900879,0.07952881,-0.001831055,-61.12214,29.977098,125.96183,14
706,-0.09906006,0.06213379,-0.026916504,-86.618324,-51.89313,156.64122,14
707,-0.10858154,0.045288086,-0.047912598,-141.01527,-123.27481,174.53435,14
708,-0.13598633,-0.024169922,-0.043823242,-192.43512,-168.64885,140.33588,14
709,-0.19592285,-0.3201294,-0.1083374,-250.1374,-250.1374,63.16794,14
710,-0.15960693,-0.50006104,-0.3369751,-123.12214,-250.1374,109.61069,14
711,-0.08703613,-0.5014038,-0.33740234,-151.83969,-183.33588,-36.564884,14
712,-0.10644531,-0.41027832,-0.10888672,-58.50382,-55.885498,-88.78626,14
713,-0.02178955,-0.1609497,-0.05505371,141,-151.92366,-138.58778,14
714,0.05633545,-0.04534912,-0.006591797,-121.854965,-206.7481,-61.76336,14
715,0.06677246,-0.0914917,-0.012207031,-84.65649,-100.41222,-27.740458,14
716,0.026672363,-0.05090332,0.024169922,-2.4198472,-137.53435,-15.038168,14
717,0.04852295,-0.010925293,-0.013305664,19.824427,-174.55725,-21.541985,14
718,0.08117676,0.004638672,-0.012329102,10.091603,-146.58015,-10.091603,14
719,0.11767578,-0.026306152,-0.022766113,-1.3969465,-127.137405,-18.954199,14
720,0.13745117,-0.06036377,-0.017578125,14.053435,-38.229008,-20.885496,14
721,0.15966797,-0.059387207,-0.015441895,20.969465,10.366412,-46.129772,14
722,0.11975098,-0.086120605,-0.023376465,-7.0916033,196.0687,-39.84733,14
723,0.06323242,-0.16821289,-0.07220459,-5.931298,222.26718,-63.114502,14
724,0.0647583,-0.25927734,-0.15386963,-18.770992,156.82443,-122.900764,14
725,0.1081543,-0.40130615,-0.33459473,-90.53435,-100.54962,-77.40458,14
726,-0.030334473,-0.43884277,-0.524292,51.633587,250.12978,82.44275,14
727,-0.28851318,-0.23522949,-0.121154785,194.07634,250.12978,-190.1145,14
728,-0.16186523,-0.04852295,-0.1843872,117.35878,80.80153,-107.91603,14
729,0.012939453,-0.013427734,-0.022766113,-88.00764,230.35878,-4.633588,14
730,-0.07342529,0.007446289,-0.059814453,2.9007633,250.12978,28.404581,14
731,-0.081970215,0.053527832,-0.036743164,2.0229008,178.10687,111.381676,14
732,-0.114868164,0.10418701,-0.053649902,49.21374,236.58015,169.10687,14
733,-0.1730957,0.1552124,-3.66E-04,50.374046,117.778625,141.30534,14
734,-0.101989746,0.13574219,0.014587402,-1.351145,-16.549618,76.8855,14
735,-0.092285156,0.12536621,-0.055236816,-93.75572,-45.366413,93.03817,14
736,-0.13769531,0.08355713,-0.030517578,-176.48091,-134.47328,90.70992,14
737,-0.14239502,-0.036499023,-0.03930664,-250.1374,-224.9771,86.778625,14
738,-0.22650146,-0.24353027,-0.26574707,-250.1374,-250.1374,101.41222,14
739,-0.22467041,-0.3895874,-0.619812,-250.1374,-250.1374,-0.83206105,14
740,0.009338379,-0.37963867,-0.26306152,-250.1374,-59.839695,-37.541985,14
741,-0.055664062,-0.27044678,-0.2614746,-125.35114,21.595419,-179.19084,14
742,0.025634766,-0.1262207,-0.10858154,-14.549619,-225.45038,-190.87787,14
743,0.0814209,-0.08728027,-0.12896729,-99.64122,-85.16794,-84.38931,14
744,0.04437256,-0.09741211,-0.058654785,-11.503817,-53,-113.816795,14
745,0.06121826,-0.06225586,-0.015258789,74.938934,-82.419846,-92.28244,14
746,0.081970215,-0.041809082,-0.007263184,107.29008,-100.01527,-79.73283,14
747,0.09399414,-0.015319824,0.018615723,109.21374,-51,-54.50382,14
748,0.13085938,-0.01763916,0.013854981,48.732826,-101.03817,-65.75572,14
749,0.16986084,-0.061035156,-0.026794434,-20.328245,32.82443,-42.862595,14
750,0.11627197,-0.112976074,-0.059143066,3.2748091,169.52672,-48.129772,14
751,0.053527832,-0.16674805,-0.107177734,-2.648855,229.12978,-46.67939,14
752,0.035461426,-0.21185303,-0.17224121,118.824425,179.2519,-109.64122,14
753,0.08258057,-0.25720215,-0.3106079,43.969467,-67.83206,-96.938934,14
754,0.037841797,-0.29815674,-0.50842285,-1.6641221,250.12978,46.687023,14
755,-0.10699463,-0.22363281,-0.38153076,237.87787,250.12978,-20.122137,14
756,-0.19836426,-0.040161133,-0.22589111,157.2061,250.12978,-53.717556,14
757,-0.10095215,0.005737305,-0.07122803,-75.98473,86.32061,-31.213741,14
758,-0.005065918,-0.019470215,-0.07489014,-101.854965,154.38168,55.14504,14
759,-0.0657959,-0.010986328,-0.06109619,43.21374,250.12978,155.61069,14
760,-0.1795044,0.03643799,-0.06512451,200.49619,136.58015,197.03053,14
761,-0.10076904,0.117492676,0.004577637,250.12978,1.6183206,131.64122,14
762,-0.057006836,0.16333008,0.015625,146.17557,20.854961,90.57252,14
763,-0.07489014,0.12945557,-0.006042481,-65.29771,-14.206107,114.21374,14
764,-0.1081543,0.10089111,-0.024169922,-181.36641,-67.862595,131.50381,14
765,-0.13201904,0.066345215,-0.029296875,-250.1374,-90.75572,85.29008,14
766,-0.26513672,-0.22814941,-0.26507568,-250.1374,-250.1374,26.213741,14
767,-0.32141113,-0.5220337,-0.6201172,-250.1374,-250.1374,-43.23664,14
768,-0.043640137,-0.3815918,-0.26123047,64.05344,-197.76335,-180.91603,14
769,-0.051696777,-0.21807861,-0.18652344,-164.23665,-129.82443,-90.35114,14
770,0.034057617,-0.16827393,-0.09857178,-17.519083,-247.35115,-133.57253,14
771,0.07940674,-0.07562256,-0.13922119,49.114502,-230.54199,-90.67939,14
772,0.11895752,-0.05596924,-0.068237305,17.923664,-176.68703,-48.0229,14
773,0.10296631,-0.032104492,-0.03881836,21.259542,-29.328245,-24.961832,14
774,0.08868408,-0.028686523,0.03265381,58.61832,-40.78626,-28.335878,14
775,0.12176514,-0.016113281,0.04449463,44.49618,-121.54962,-38.32061,14
776,0.15118408,-0.0357666,0.007263184,-39.038166,-67.32825,-18.923664,14
777,0.13946533,-0.08734131,-0.008239746,-24.694656,60.14504,-42.61832,14
778,0.08325195,-0.13232422,-0.039123535,-15.5801525,138.23665,-81.57252,14
779,0.03668213,-0.20495605,-0.115356445,-36.72519,170.47328,-109.30534,14
780,0.050109863,-0.25201416,-0.13098145,29.007633,184.91603,-137.51909,14
781,0.02722168,-0.39141846,-0.34350586,-84.1145,-34.85496,-22.93893,14
782,-0.13189697,-0.14691162,-0.24694824,237.83206,250.12978,-167.45038,14
783,-0.12237549,-0.021972656,-0.15844727,-123.21374,250.12978,-98.25191,14
784,-0.024047852,-0.051635742,-0.061462402,-104.71756,162.90076,3.9312978,14
785,-0.03289795,4.88E-04,-0.06744385,79.48092,250.12978,48.374046,14
786,-0.105041504,0.04498291,0.048461914,30.23664,250.12978,143.33588,14
787,-0.1182251,0.0859375,-0.006103516,59.89313,160.89313,163,14
788,-0.10394287,0.14068604,0.008483887,38.572517,125.221375,118.16031,14
789,-0.14892578,0.11816406,0.009094238,-95.091606,-0.8015267,100.51145,14
790,-0.1307373,0.09075928,-0.02368164,-111.9771,-134.83969,81.92367,14
791,-0.12976074,0.0803833,-0.044189453,-156.67175,-188.70993,78.99236,14
792,-0.17480469,-0.050842285,-0.036865234,-207,-250.1374,58.755726,14
793,-0.23474121,-0.30548096,-0.29071045,-250.1374,-250.1374,138.43512,14
794,-0.17303467,-0.3392334,-0.5409546,178.61069,-250.1374,6.3206105,14
795,-0.013244629,-0.39764404,-0.29052734,-250.1374,-85.099236,52.35878,14
796,-0.11053467,-0.35803223,-0.25042725,-61.076336,40.816795,-138.55725,14
797,0.002807617,-0.13330078,-0.007995606,168.01527,-202.0687,-145.229,14
798,0.06536865,-0.075927734,-0.05206299,-122.1145,-186.6565,-37.694656,14
799,0.060546875,-0.113342285,-0.03289795,3.312977,-104.229004,-63.87786,14
800,0.059814453,-0.04309082,-0.002685547,80.67175,-140.45038,-96.80916,14
801,0.09625244,-0.01928711,0.031555176,42.984734,-151.24428,-73.70992,14
802,0.12762451,-0.021606445,0.026000977,14.19084,-139.19084,-71.80916,14
803,0.15985107,-0.03503418,0.017150879,-37.129772,-43.61832,-73.20611,14
804,0.17956543,-0.057373047,-0.005859375,-49.51145,6.0992365,-83.52672,14
805,0.15911865,-0.10089111,-0.051452637,-46.816795,115.69466,-76.8855,14
806,0.088378906,-0.21466064,-0.14758301,-59.79389,250.12978,-57.35878,14
807,0.033203125,-0.29510498,-0.21929932,110.70992,250.12978,-114.70229,14
808,-4.88E-04,-0.3637085,-0.32086182,88.08397,10.061069,-81.53435,14
809,-0.030151367,-0.34057617,-0.4633789,80.71756,250.12978,34.816795,14
810,-0.152771,-0.1697998,-0.296875,250.12978,250.12978,-131.06107,14
811,-0.21246338,-0.010681152,-0.14880371,30.503817,250.12978,-49.900764,14
812,-0.07836914,-0.03326416,-0.121276855,-142.70229,66.9771,72.44275,14
813,-0.047912598,0.005065918,-0.06524658,155.42747,250.12978,124.78626,14
814,-0.107177734,0.1373291,-0.01739502,141.31297,250.12978,227.53435,14
815,-0.14312744,0.16271973,0.015014648,-14.511451,167.96184,189.45038,14
816,-0.107421875,0.125,0.016296387,-86.80153,39.93893,156.98473,14
817,-0.081848145,0.10681152,0.019104004,-120.87786,-34.389313,124.74809,14
818,-0.07281494,0.07165527,-0.012084961,-190.18321,-132.93893,94.496185,14
819,-0.07733154,0.03515625,-0.054626465,-221.12213,-149.07634,59.51145,14
820,-0.1472168,-0.15167236,-0.10583496,-250.1374,-173.40459,55.190838,14
821,-0.26696777,-0.27423096,-0.35681152,-245.12213,-250.1374,88.908394,14
822,-0.18328857,-0.31713867,-0.4161377,-29.404581,-250.1374,-36.305344,14
823,-0.10473633,-0.33081055,-0.3302002,-250.1374,-40.625954,44.87786,14
824,-0.111572266,-0.2409668,-0.10595703,-9.977099,-35.351147,-145.1145,14
825,-0.019348145,-0.15679932,-0.060180664,-130.44275,-196.50381,-61.61832,14
826,0.02520752,-0.1786499,-0.062683105,-57.14504,-81.0458,-44.17557,14
827,0.026611328,-0.12042236,-0.010314941,-32.396946,-121.259544,-91.55725,14
828,0.039978027,-0.08660889,0.020568848,-44.67939,-123.64122,-93.26717,14
829,0.07080078,-0.057678223,0.013854981,3.8244274,-146.03816,-126.28244,14
830,0.1026001,-0.04736328,0.034057617,24.671755,-116.70229,-109,14
831,0.105895996,-0.060913086,0.005126953,36.82443,-39.20611,-108.47328,14
832,0.09625244,-0.054138184,0.023742676,73.503815,18.312977,-110.99236,14
833,0.09283447,-0.07635498,-0.02508545,24.458015,34.9771,-106.740456,14
834,0.061340332,-0.16674805,-0.086120605,-17.656488,149.229,-84.52672,14
835,0.016906738,-0.22991943,-0.12738037,121.40458,231.90076,-123.19084,14
836,0.03967285,-0.30059814,-0.15563965,60.305344,27.664122,-88.91603,14
837,-0.12512207,-0.2746582,-0.28015137,250.12978,250.12978,-69.67175,14
838,-0.13616943,-0.08062744,-0.230896,160.03053,188.51144,-153.35878,14
839,-0.0869751,-0.04522705,-0.095825195,-211.1145,228.75572,-97.37405,14
840,-0.08679199,-0.07092285,-0.08276367,-87.10687,214.8855,3.1374047,14
841,-0.12402344,0.02746582,-0.012512207,110.42748,250.12978,24.603054,14
842,-0.11578369,0.09552002,-0.01171875,-13.702291,240.6565,78.45038,14
843,-0.12286377,0.1182251,-0.006408691,34.007633,199.0687,46.755726,14
844,-0.13232422,0.118774414,-0.00390625,-27.496183,65.98473,50.541985,14
845,-0.1239624,0.09777832,-0.01159668,-78.76336,-51.27481,60.15267,14
846,-0.14331055,0.040100098,-0.03527832,-98.83969,-162.49619,67.48092,14
847,-0.12988281,-0.08898926,-0.029296875,-137.96184,-250.1374,30.87023,14
848,-0.12762451,-0.21087646,-0.14111328,-250.1374,-250.1374,78.900764,14
849,-0.17034912,-0.4642334,-0.42358398,-250.1374,-250.1374,119.770996,14
850,-0.056152344,-0.47198486,-0.23394775,-9.694656,-95.908394,-43.85496,14
851,-0.09710693,-0.2263794,-0.17327881,87.33588,-175.771,-126.96183,14
852,0.02508545,-0.12286377,-0.057495117,-11.732824,-196.32062,-122.69466,14
853,0.071777344,-0.07684326,-0.0859375,-33.755726,-214.29007,-99.33588,14
854,0.09552002,-0.047058105,-0.03765869,2,-90.29771,-79.59542,14
855,0.10595703,-0.030456543,0.004150391,20.06107,-97.67939,-86.69466,14
856,0.13348389,-0.019470215,0.020996094,36.961834,-61.687023,-67.21374,14
857,0.15698242,-0.006408691,-0.007629395,86.32825,-59.67939,-123.91603,14
858,0.16796875,-0.007019043,-0.01348877,23.091602,36.709923,-132.41985,14
859,0.13623047,-0.08984375,-0.009338379,-44.870228,133.12978,-99.23664,14
860,0.082214355,-0.17510986,-0.0513916,-54.64122,164.06107,-94.8855,14
861,0.081970215,-0.2444458,-0.123168945,-6.1984735,158.33588,-120.79389,14
862,0.12976074,-0.3397827,-0.22949219,33.38168,15.122137,-100.221375,14
863,0.080200195,-0.3585205,-0.38708496,79.0687,250.12978,-56.984734,14
864,-0.041381836,-0.29919434,-0.24316406,127.229004,250.12978,-95.0229,14
865,-0.11639404,-0.1473999,-0.21868896,47.709923,250.12978,-111.8855,14
866,-0.0949707,-0.054260254,-0.12243652,-28.732824,239.39694,-86.65649,14
867,-0.08929443,-0.025268555,-0.01977539,-132.00763,250.12978,35.282444,14
868,-0.1619873,0.002990723,-0.002624512,-17.442749,250.12978,108.618324,14
869,-0.15942383,0.061462402,0.039367676,41.007633,241.52672,166.38168,14
870,-0.13922119,0.10406494,0.044677734,127.30534,228.81679,168.23665,14
871,-0.14593506,0.15161133,0.011291504,74.44275,67.10687,143.83969,14
872,-0.120666504,0.1408081,-0.015136719,-70.38931,-115.908394,126.71756,14
873,-0.120910645,0.080078125,-0.05316162,-150.06107,-214.32062,111.29771,14
874,-0.1408081,-0.076049805,-0.06488037,-250.1374,-250.1374,75.381676,14
875,-0.17547607,-0.31445312,-0.21716309,-250.1374,-250.1374,113.12977,14
876,-0.13433838,-0.41204834,-0.4215088,-74.91603,-250.1374,70.38931,14
877,0.007324219,-0.41235352,-0.18237305,-250.1374,22.503817,149.27481,14
878,-0.11773682,-0.34350586,-0.12371826,-43.068703,-29.152672,36.282444,14
879,-0.018920898,-0.20837402,-0.07940674,147.24428,-168.08397,44.572517,14
880,0.029296875,-0.1494751,-0.047058105,16.877863,-112.91603,77.56489,14
881,0.017700195,-0.11291504,-0.038635254,49.954197,-96.061066,70.03817,14
882,0.029541016,-0.064086914,-0.021728516,128.48856,-182.31297,12.709924,14
883,0.1015625,-0.02532959,4.88E-04,37.351147,-185.03816,-50.78626,14
884,0.11645508,-0.050476074,0.014282227,-78.824425,-84.67175,-25.908398,14
885,0.11798096,-0.08026123,0.03186035,-67.41222,-33.10687,-77.45038,14
886,0.12237549,-0.0914917,0.013061523,-79.36641,-25.671755,-87.64886,14
887,0.109558105,-0.17468262,-0.048034668,-122.908394,66.38931,-72.061066,14
888,0.03326416,-0.33068848,-0.15637207,-80.44275,226.92366,-86.259544,14
889,-0.021606445,-0.3218994,-0.12652588,111.55725,250.12978,-164.63359,14
890,-0.0211792,-0.37121582,-0.27996826,-105.96947,126.03053,-95.0229,14
891,-0.051879883,-0.32958984,-0.348938,250.12978,235.05344,-152.54962,14
892,-0.10662842,-0.14624023,-0.215271,250.12978,218.78625,-189.9542,14
893,-0.13677979,-0.059753418,-0.1482544,150.18321,250.12978,-118.1145,14
894,-0.08795166,0.013183594,-0.09301758,22.23664,67.29008,-204.16031,14
895,0.005981445,0.036621094,-0.087402344,-244.35115,143.62596,-154.01527,14
896,-0.055114746,-0.02947998,-0.11401367,-250.1374,250.12978,-37.748093,14
897,-0.18835449,0.020446777,-0.06866455,20.877863,143.35115,7.0916033,14
898,-0.14190674,0.13079834,0.04486084,39.25954,102.48855,30.244274,14
899,-0.12042236,0.1260376,0.027160645,15.175572,76.76336,117.75572,14
900,-0.11090088,0.14318848,0.028198242,-26.091602,-1.4885496,162.46565,14
901,-0.13031006,0.109313965,0.008056641,-204.16794,-59.190838,207.42747,14
902,-0.15557861,0.006103516,-0.015930176,-250.1374,-108.175575,167.24428,14
903,-0.23797607,-0.32421875,-0.1586914,-250.1374,-250.1374,81.55725,14
904,-0.21673584,-0.6142578,-0.48944092,64.79389,-250.1374,33.49618,14
905,0.02154541,-0.4440918,-0.2921753,181.85497,-14.183207,-21.06107,14
906,-0.09313965,-0.31817627,-0.09887695,-71.35878,-200.59541,-97.770996,14
907,0.016601562,-0.22528076,-0.05517578,48.59542,-114.42748,-56.190838,14
908,0.06262207,-0.12359619,-0.012207031,59.541985,-110.229004,-51.76336,14
909,0.034240723,-0.09313965,0.015686035,-11.641221,-75.8855,6.038168,14
910,0.0357666,-0.050598145,0.009399414,-37.053436,-114.03053,0.83206105,14
911,0.047729492,-0.002258301,0.020629883,-95.854965,-77.9542,-3.0076337,14
912,0.050720215,4.27E-04,-0.004882813,-100.29771,-89.16031,-60.16794,14
913,0.097351074,-0.024230957,-0.008666992,-111.66412,-45.969467,-95.70229,14
914,0.13549805,-0.057128906,0.013366699,-158.00763,-23.526718,-116.12977,14
915,0.15197754,-0.09661865,-0.019958496,-165.41985,169.74046,-39.59542,14
916,0.090270996,-0.14959717,-0.015258789,-91.48855,242.55725,1.9160305,14
917,0.08502197,-0.19116211,-0.09136963,22.816793,162.52672,8.389313,14
918,0.13677979,-0.2578125,-0.16815186,121.26717,12.709924,-76.824425,14
919,0.088256836,-0.3232422,-0.4661255,62.091602,9.832061,-25.969465,14
920,-0.012329102,-0.31500244,-0.40551758,179.68703,250.12978,-10.541985,14
921,-0.121032715,-0.1564331,-0.24212646,157.69466,250.12978,-246.73282,14
922,-0.11425781,-0.052734375,-0.18560791,-187.74046,179.54962,-81.67175,14
923,0.018188477,-0.12591553,-0.058532715,-130.59541,249.64885,30.877863,14
924,-0.07714844,-7.93E-04,-0.07476807,182.9542,250.12978,71.1145,14
925,-0.13140869,0.13812256,0.003417969,118.25191,250.12978,151.80153,14
926,-0.18988037,0.15917969,-0.018920898,159.15266,183.57253,158.72519,14
927,-0.123413086,0.25164795,-0.04119873,182.69466,52.198475,74.70229,14
928,-0.1038208,0.24584961,-0.03765869,-179.92366,-125.29771,86.21374,14
929,-0.13641357,0.09106445,-0.07897949,-250.1374,-173.08397,149.84734,14
930,-0.17687988,-0.010498047,-0.050476074,-250.1374,-250.1374,112.73283,14
931,-0.15441895,-0.21783447,-0.14263916,-250.1374,-250.1374,154.38168,14
932,-0.2659912,-0.4315796,-0.5097656,-216.41222,-250.1374,154.72519,14
933,-0.077941895,-0.3968506,-0.38635254,-33.427483,-250.1374,-8.458015,14
934,-0.113708496,-0.37890625,-0.26171875,-250.1374,0.8167939,84.20611,14
935,-0.043640137,-0.26861572,-0.13098145,63.427483,-86.87786,-109.76336,14
936,0.033081055,-0.13342285,-0.09338379,15.862596,-138.7481,-79.87786,14
937,0.047973633,-0.09777832,-0.0357666,-26.557251,-79.55725,-62.068703,14
938,0.028564453,-0.068603516,-0.004333496,6.587786,-76.229004,-70.03053,14
939,0.050842285,-0.025024414,0.017150879,-3.0839694,-157.9542,-124.48855,14
940,0.078125,-0.019348145,0.027709961,-78.94656,-148.50381,-71.37405,14
941,0.12231445,-0.057250977,0.024108887,-74.99236,-141.8626,-67.51908,14
942,0.14990234,-0.06402588,0.012023926,-13.687023,-47.251907,-80.67939,14
943,0.13555908,-0.06402588,0.002258301,-27.045801,36.984734,-82.10687,14
944,0.0925293,-0.10620117,-0.0501709,-34.480915,109.96947,-84.35114,14
945,0.06854248,-0.17321777,-0.10797119,-5.9694657,150.17557,-104.03817,14
946,0.067993164,-0.2649536,-0.18640137,-0.45801526,134.62596,-91.94656,14
947,0.027038574,-0.3710327,-0.38360596,61.21374,89.0687,-30.671755,14
948,-0.007446289,-0.3945923,-0.35858154,180.29007,250.12978,-40.79389,14
949,-0.1963501,-0.35821533,-0.36413574,243.25954,250.12978,-120.96183,14
950,-0.15216064,-0.06976318,-0.230896,250.12978,151.17557,-189.0458,14
951,-0.059631348,0.1281128,-0.15118408,-120.52672,169.21375,-211.06107,14
952,-0.11553955,0.010742188,-0.06549072,-250.1374,250.12978,-69,14
953,-0.15447998,-0.03137207,-0.014282227,-46.87786,250.12978,44.47328,14
954,-0.19659424,0.12890625,0.046203613,221.46565,219.59541,123.68702,14
955,-0.15789795,0.20147705,0.03479004,67.83206,133.0229,157.1145,14
956,-0.1350708,0.1743164,0.002502441,-51.664124,58.89313,176.06107,14
957,-0.1317749,0.12573242,-0.010192871,-208.1374,-62.374046,191.27481,14
958,-0.14178467,0.034179688,-0.008728027,-250.1374,-111.39695,179.51909,14
959,-0.16973877,-0.16448975,-0.12213135,-250.1374,-250.1374,104.45038,14
960,-0.1954956,-0.3597412,-0.40789795,-144.01527,-250.1374,21.412214,14
961,-0.0803833,-0.35107422,-0.39782715,32.27481,-250.1374,-7.2442746,14
962,-0.08111572,-0.39678955,-0.2906494,-250.1374,20.91603,93.87786,14
963,-0.06750488,-0.25842285,-0.111694336,189.42747,-106.46565,-153.21375,14
964,0.015808105,-0.10430908,-0.07739258,82.00764,-187.2519,-76.496185,14
965,0.06707764,-0.08892822,-0.06781006,-73.87786,-154.24428,-32.671757,14
966,0.04711914,-0.08691406,-0.047607422,-18.656488,-77.76336,-55.190838,14
967,0.050598145,-0.024108887,-0.01776123,-12.893129,-137.61832,-75.61069,14
968,0.0826416,-0.011352539,-0.022949219,-84.70229,-132.80916,-69.9771,14
969,0.1338501,-0.042663574,-0.002441406,-89.27481,-127.19847,-69.32825,14
970,0.15612793,-0.045837402,1.83E-04,-79.59542,2.8549619,-63.0229,14
971,0.13519287,-0.0791626,0.022766113,-84.20611,112,-32.015266,14
972,0.107788086,-0.16101074,0.012023926,-33.435116,199.3435,16.76336,14
973,0.025146484,-0.27514648,-0.11340332,206.6565,172.67175,0.6870229,14
974,0.08105469,-0.25421143,-0.16149902,250.12978,-25.160305,-147.98473,14
975,0.042175293,-0.42285156,-0.46862793,-90.28244,87.25191,113.83969,14
976,-0.14007568,-0.43200684,-0.40319824,250.12978,250.12978,0.86259544,14
977,-0.21160889,-0.11633301,-0.30706787,250.12978,250.12978,-104.73283,14
978,-0.11669922,0.026794434,-0.14282227,22.954199,177.54199,-171.29007,14
979,-0.019897461,-0.023010254,-0.075805664,-181.0687,110.96947,-98.71756,14
980,-0.041748047,-0.012329102,-0.091552734,-32.923664,250.12978,-36.809162,14
981,-0.12506104,0.045654297,-0.05041504,22.23664,250.12978,21.641222,14
982,-0.15386963,0.091918945,-0.02947998,11.320611,206.85497,65.45038,14
983,-0.13604736,0.11206055,0.006408691,-12.145039,114,58.49618,14
984,-0.11456299,0.09454346,0.023864746,-55.961834,14.931297,61.72519,14
985,-0.10290527,0.07080078,-0.011108398,-104.71756,-85.900764,89.03053,14
986,-0.105407715,0.009216309,-0.04034424,-127.54962,-157.70229,99.23664,14
987,-0.15557861,-0.19525146,-0.049926758,-229.54962,-227.80153,82.52672,14
988,-0.17895508,-0.38641357,-0.269104,-190.22137,-250.1374,149.40459,14
989,-0.097839355,-0.45562744,-0.27850342,-6.0458016,-250.1374,66.503815,14
990,-0.10461426,-0.36602783,-0.15509033,-49.435116,-47.87786,101.938934,14
991,-0.090026855,-0.18017578,-0.089782715,165.03816,-91.32825,-55.0229,14
992,-0.003723145,-0.12261963,-0.005310059,-128.16794,-250.1374,-30.587786,14
993,0.061523438,-0.15795898,-0.044677734,-104.0687,-154.6565,2.9923663,14
994,0.010925293,-0.07507324,0.06738281,-52.450382,-134.49619,-96.94656,14
995,0.04626465,-0.1194458,0.004638672,-93.24428,-165.0687,-31.274809,14
996,0.082336426,-0.07519531,0.04925537,147.70993,-139.78625,-122.00764,14
997,0.11291504,-0.009033203,0.032287598,109.66412,-111.16794,-61.72519,14
998,0.12347412,-0.027282715,0.024475098,46,-54.12214,-52.862595,14
999,0.13348389,-0.032165527,-0.008728027,70.48092,2.3206108,-63.862595,14
1000,0.109436035,-0.072021484,-0.010070801,42.21374,110.19084,-53.587788,14
1001,0.053466797,-0.37921143,-0.12097168,-92.44275,112.03817,19.76336,14
1002,-0.09313965,-0.5439453,-0.28271484,180.1145,214.90076,103.740456,14
1003,-0.11602783,-0.32885742,-0.24682617,250.12978,184.68703,-77.15267,14
1004,-0.1204834,-0.043518066,-0.12884521,250.12978,250.12978,-174.40459,14
1005,-0.10070801,-0.006408691,0.007141113,-250.1374,152.12978,-161.99237,14
1006,-0.07891846,-0.093688965,-0.12548828,-250.1374,53.12214,-186.98473,14
1007,-0.02532959,-0.07446289,-0.014953613,-56.335876,144.49619,-168.0916,14
1008,-0.111328125,0.016662598,0.023864746,16.603054,171.22137,-94.83206,14
1009,-0.107788086,0.054504395,0.005554199,-39.198475,48.84733,-79.19084,14
1010,-0.092163086,0.051635742,0.014709473,7.1679387,60.862595,-19.51145,14
1011,-0.10797119,0.051574707,0.010070801,29,16.25191,39.89313,14
1012,-0.12591553,-0.008850098,0.013549805,-58.198475,-51.48855,109.00764,14
1013,-0.14819336,-0.18634033,-0.021240234,-190.38168,-166.99237,151.70229,14
1014,-0.16229248,-0.3661499,-0.1694336,-145.09924,-250.1374,148.96947,14
1015,-0.14343262,-0.33746338,-0.16833496,53.53435,-250.1374,51.198475,14
1016,-0.076660156,-0.27093506,-0.07940674,-164.16794,-250.1374,27.473282,14
1017,-0.029541016,-0.24389648,-0.08135986,-199.96184,-250.1374,-9.175572,14
1018,0.043029785,-0.17340088,-0.071777344,-124.37405,-250.1374,-6.0916033,14
1019,0.08532715,-0.1295166,-0.03338623,-83.72519,-208.87787,-2.1755726,14
1020,0.09844971,-0.10040283,-0.008605957,-32.70229,-149.8626,-3.778626,14
1021,0.12133789,-0.06262207,0.021057129,-14.167939,-107.03053,-6.7480917,14
1022,0.14611816,-0.05316162,0.04260254,-7.4656487,-76.96947,-7.6030536,14
1023,0.1663208,-0.0579834,0.020141602,15.267176,-46.801525,-38.610687,14
1024,0.15393066,-0.032958984,0.020935059,39.931297,64.00764,-55.717556,14
1025,0.12445068,-0.034301758,0.011230469,29.206106,129.85497,-58.114502,14
1026,0.091430664,-0.10217285,-0.003601074,14.312977,146.771,-31.48855,14
1027,0.09515381,-0.20788574,-0.047729492,37.221375,137.64885,-29.267176,14
1028,0.073913574,-0.41864014,-0.19165039,-21.030535,111.40458,30.358778,14
1029,-0.09051514,-0.47686768,-0.30560303,217.51909,250.12978,-30.93893,14
1030,-0.0947876,-0.2736206,-0.22784424,250.12978,218.71756,-113.503815,14
1031,-0.12005615,-0.107666016,-0.1862793,52.67939,250.12978,-139.19084,14
1032,-0.110961914,-0.06970215,-0.030883789,-119.89313,130.53435,-107.28244,14
1033,-0.080078125,-0.05505371,-0.019042969,-59.335876,163.77863,-16.099237,14
1034,-0.096191406,0.015563965,-0.004211426,81.29771,191.91603,24.068703,14
1035,-0.10345459,0.082214355,-0.008544922,74.64122,161.9313,70.38931,14
1036,-0.11999512,0.11791992,7.93E-04,33.961834,98.19847,84.94656,14
1037,-0.116882324,0.09851074,-0.007568359,-26.374046,7.5725193,91.44275,14
1038,-0.12060547,0.04144287,-0.022521973,-84.92367,-67.67939,116.61069,14
1039,-0.13067627,-0.058654785,-0.045043945,-173,-145.75572,112.061066,14
1040,-0.14050293,-0.22735596,-0.06970215,-218.83206,-250.1374,65.29008,14
1041,-0.12902832,-0.34539795,-0.19598389,-125.541985,-250.1374,92.19084,14
1042,-0.09869385,-0.3289795,-0.18395996,-128.54962,-197.31297,18.305344,14
1043,-0.06390381,-0.2518921,-0.10058594,-124.87023,-224.67938,-28.343512,14
1044,0.001525879,-0.20843506,-0.062561035,-174.76335,-189.84734,-41.08397,14
1045,0.023742676,-0.1829834,-0.07244873,-75.96183,-180.70993,-38.312977,14
1046,0.054016113,-0.1274414,-0.007019043,-5.4274807,-128.92366,-30.213741,14
1047,0.056396484,-0.08984375,0.031188965,-10.305344,-117.862595,-18.42748,14
1048,0.08203125,-0.07067871,0.04144287,25.099237,-94.45038,-22.557251,14
1049,0.11529541,-0.041625977,0.036987305,44.908398,-66.20611,-21.145039,14
1050,0.115478516,-0.032592773,0.040161133,-14.656488,-3.1374047,-2.8931298,14
1051,0.09527588,-0.06329346,0.041015625,-66.75572,71.96183,9.19084,14
1052,0.0881958,-0.10638428,0.027954102,-41.633587,85.740456,-3.687023,14
1053,0.07543945,-0.18096924,-0.059692383,0.66412216,68.25191,-6.847328,14
1054,0.070739746,-0.33258057,-0.16998291,53.946564,55.984734,1.4503816,14
1055,-0.051513672,-0.45532227,-0.26367188,250.12978,204.7939,47.51145,14
1056,-0.117492676,-0.32330322,-0.21838379,250.12978,163.1145,-75.03053,14
1057,-0.10473633,-0.14868164,-0.22473145,250.12978,230.0458,-118.618324,14
1058,-0.11767578,-0.04925537,-0.111694336,2.908397,250.12978,-164.0458,14
1059,-0.10369873,-0.043395996,-0.085998535,-240.74046,107.34351,-138.78625,14
1060,-0.07751465,-0.06866455,-0.052246094,-81.92367,159.62596,-71,14
1061,-0.09686279,0.033935547,-0.009155273,128.19847,217.93893,-17.51145,14
1062,-0.115478516,0.11627197,0.015319824,83.68702,152.64122,3.1450381,14
1063,-0.10406494,0.13323975,0.001953125,36.045803,45.931297,24.274809,14
1064,-0.079711914,0.14434814,-0.009765625,-15.687023,-30.564886,58.198475,14
1065,-0.1281128,0.09057617,-0.025146484,-134.08397,-80.41222,131.54199,14
1066,-0.15405273,-0.020507812,-0.06286621,-187.229,-186.73282,112.091606,14
1067,-0.1986084,-0.2592163,-0.13464355,-250.1374,-250.1374,104.28244,14
1068,-0.23791504,-0.3949585,-0.32873535,-182.43512,-250.1374,120.61069,14
1069,-0.13012695,-0.30773926,-0.2619629,-162.21375,-239.2061,-32.74046,14
1070,-0.068237305,-0.27215576,-0.16644287,-250.1374,-192.85497,1.1526718,14
1071,0.006225586,-0.24401855,-0.11621094,-249.99237,-133.64122,-61.984734,14
1072,0.037902832,-0.15356445,-0.048706055,-152.14503,-90.87023,-68.46565,14
1073,0.05505371,-0.12878418,-0.036071777,-164.87787,-102.12214,-49.870228,14
1074,0.080566406,-0.124572754,2.44E-04,-124.27481,-77.39695,-84.52672,14
1075,0.08258057,-0.13140869,0.023498535,4.076336,-41.55725,-73.8855,14
1076,0.10241699,-0.083496094,0.041259766,98.29771,-73.84733,-84.381676,14
1077,0.12841797,-0.048034668,0.036010742,98.83206,-44.610687,-52.221375,14
1078,0.13739014,-0.02508545,0.00958252,63.687023,26.534351,-60.572517,14
1079,0.11242676,-0.04095459,-0.018249512,-1.8625954,143.76335,-43.816795,14
1080,0.066711426,-0.11657715,-0.06048584,-14.511451,163.7481,-43.038166,14
1081,0.037963867,-0.19555664,-0.111328125,81.78626,169.41222,-65.29008,14
1082,0.08001709,-0.31341553,-0.20428467,113.67939,-115.64122,-62.29771,14
1083,-0.055847168,-0.40686035,-0.64697266,11.61832,239.09924,123.84733,14
1084,-0.16778564,-0.256958,-0.35845947,250.12978,250.12978,-128.27481,14
1085,-0.21539307,-0.044067383,-0.2600708,31.625954,250.12978,-126.15267,14
1086,-0.06274414,-0.08502197,-0.05255127,-197.56488,177.39694,-57.87786,14
1087,-0.05908203,-0.055358887,-0.11706543,34.79389,250.12978,34.20611,14
1088,-0.12988281,0.022766113,-0.029174805,186.37404,250.12978,84.57252,14
1089,-0.13372803,0.10412598,-0.016540527,155.19847,228.32825,100.65649,14
1090,-0.13763428,0.15240479,-0.018066406,127.816795,149.83969,95.35114,14
1091,-0.15893555,0.17596436,0.013854981,37.709923,27.931297,70.78626,14
1092,-0.14746094,0.13952637,-0.015197754,-79.84733,-83.38931,59.84733,14
1093,-0.16436768,0.06713867,-0.02709961,-156.54962,-180.1145,71.73283,14
1094,-0.16369629,-0.10870361,-0.057128906,-250.1374,-250.1374,73.48855,14
1095,-0.18585205,-0.3067627,-0.26831055,-250.1374,-250.1374,151.38931,14
1096,-0.15222168,-0.37823486,-0.42089844,-78.38931,-250.1374,51.801525,14
1097,-0.049194336,-0.3944702,-0.21740723,-250.1374,-82.60305,83.67939,14
1098,-0.04864502,-0.32714844,-0.1408081,-78.26717,-100.854965,-101.48855,14
1099,0.015441895,-0.16809082,-0.07366943,58.839695,-160.44275,-77.259544,14
1100,0.031555176,-0.11639404,-0.031555176,8.335877,-90.37405,-27.183207,14
1101,0.00567627,-0.07714844,-0.009277344,78.8855,-148.26718,-41.48855,14
1102,0.055114746,-0.034057617,0.001342773,75.29008,-171.62596,-30.931297,14
1103,0.08477783,-0.03314209,0.010009766,36.46565,-113.541985,-12.2595415,14
1104,0.12225342,-0.048706055,0.034240723,25.885496,-91.30534,-27.465649,14
1105,0.15856934,-0.043029785,0.006713867,16.76336,-57.17557,-48.20611,14
1106,0.12792969,-0.09210205,0.001647949,0.26717559,135.01527,-15.916031,14
1107,0.07775879,-0.14416504,-0.017028809,65.00764,161.93893,-15.679389,14
1108,0.054504395,-0.1593628,-0.08557129,145.56488,89.52672,-62.55725,14
1109,0.091430664,-0.22698975,-0.15692139,45.396946,39.46565,-34.244274,14
1110,0.029296875,-0.41741943,-0.36157227,-28.06107,219.94656,76.20611,14
1111,-0.13708496,-0.4175415,-0.25201416,250.12978,250.12978,-134.32825,14
1112,-0.14819336,-0.23352051,-0.26361084,250.12978,171.2519,-132,14
1113,-0.13146973,-0.02758789,-0.06866455,-82.66412,250.12978,-126.76336,14
1114,-0.13671875,-0.027526855,0.006591797,-55.40458,144.66412,-39.709923,14
1115,-0.10437012,0.036987305,-0.006835938,142.66412,200.51144,8.389313,14
1116,-0.1303711,0.13116455,0.013427734,145.81679,187.6565,32.809162,14
1117,-0.113098145,0.1619873,2.44E-04,40.969467,81.854965,50.17557,14
1118,-0.1026001,0.12207031,-0.024108887,-41.267174,-11.946565,71,14
1119,-0.13458252,0.04547119,-0.05206299,-145.96184,-98.63359,116.83969,14
1120,-0.1572876,-0.12414551,-0.08862305,-250.1374,-187.03053,103.27481,14
1121,-0.14990234,-0.28533936,-0.1383667,-227.81679,-228.39694,72.54962,14
1122,-0.14709473,-0.3343506,-0.21673584,-86.54962,-231.60306,65.62595,14
1123,-0.10272217,-0.34503174,-0.14215088,-162.58015,-164.77863,52.480915,14
1124,-0.08026123,-0.29058838,-0.081726074,-102.40458,-188.38931,-16.122137,14
1125,-0.028564453,-0.22009277,-0.053710938,-96.03053,-195.42747,-5.9847326,14
1126,0.024536133,-0.16540527,-0.014343262,-94.580154,-196.30534,-3.0076337,14
1127,0.039489746,-0.14459229,0.02758789,-112.68702,-168.2519,-13.748092,14
1128,0.03314209,-0.1350708,0.030944824,-62.79389,-165.36641,-35.923664,14
1129,0.042785645,-0.10949707,0.005493164,31.694656,-150.70993,-55.10687,14
1130,0.07147217,-0.051818848,0.018432617,65.419846,-123.099236,-83.259544,14
1131,0.10015869,-0.030883789,0.001647949,-16.80916,-60.748093,-82.938934,14
1132,0.11816406,-0.054504395,0.005554199,47.305344,-13.763359,-114.08397,14
1133,0.121398926,-0.027526855,0.007751465,90.66412,54.648853,-118.48092,14
1134,0.10913086,-0.055908203,0.006896973,60.76336,129.03053,-92.87023,14
1135,0.13726807,-0.11425781,-0.004211426,48.664124,97.29008,-84.908394,14
1136,0.14831543,-0.3109131,-0.15197754,-103.27481,79.32825,37.625954,14
1137,-0.049621582,-0.52368164,-0.3538208,94.91603,250.12978,126.618324,14
1138,-0.11004639,-0.3369751,-0.20147705,250.12978,228.10687,-151.41985,14
1139,-0.1338501,-0.14361572,-0.22747803,148.1374,250.12978,-141.9313,14
1140,-0.14398193,-0.10192871,9.16E-04,-64.40458,183.63359,-123.19084,14
1141,-0.11651611,-0.08892822,-0.036315918,9.671756,202.7939,-42.0229,14
1142,-0.097839355,0.022216797,-0.007446289,158.67938,210.59541,-0.7557252,14
1143,-0.118652344,0.111328125,-0.01763916,104.69466,196.71756,49.74046,14
1144,-0.121276855,0.14324951,-0.008911133,42.67939,100.419846,48.946564,14
1145,-0.0970459,0.111206055,-0.00970459,-35.51145,4.9847326,73.10687,14
1146,-0.12786865,0.038085938,-0.022827148,-80.35114,-34.79389,140.67938,14
1147,-0.1515503,-0.032104492,-0.06896973,-137.71756,-113.08397,169.00763,14
1148,-0.16357422,-0.14355469,-0.08282471,-176.56488,-173.32825,105.15267,14
1149,-0.18566895,-0.2781372,-0.13269043,-250.1374,-182.84734,103.70992,14
1150,-0.17797852,-0.3713379,-0.18774414,-250.1374,-226.26718,86.29771,14
1151,-0.09552002,-0.3168335,-0.0927124,-117.83206,-215.93893,-12.854961,14
1152,-0.050476074,-0.26483154,-0.049438477,-214.60306,-199.48856,12.4198475,14
1153,-0.016662598,-0.24182129,-0.045532227,-128.47328,-185.8855,6.4274807,14
1154,0.04144287,-0.18347168,0.019348145,-63.099236,-141.78625,8.305344,14
1155,0.039916992,-0.14538574,0.035217285,-17.87023,-134.40459,2.4732823,14
1156,0.075927734,-0.099365234,0.049194336,52.06107,-101.44275,-20.587786,14
1157,0.09680176,-0.05230713,0.04559326,55.85496,-87.70229,-36.809162,14
1158,0.12750244,-0.02368164,0.03552246,24.213741,-47.38168,-52.427483,14
1159,0.13470459,-0.041870117,0.0423584,23.053434,30.67939,-52.839695,14
1160,0.113342285,-0.047729492,0.035705566,57.49618,45.23664,-76.45038,14
1161,0.08935547,-0.101135254,0.003967285,31.450382,110.63359,-64.01527,14
1162,0.05633545,-0.1932373,-0.03515625,6.3511453,134.96184,-74.76336,14
1163,0.06213379,-0.3413086,-0.1081543,0.2519084,88.51145,-40.732826,14
1164,-0.09442139,-0.4973755,-0.31384277,86.71756,250.12978,15.030535,14
1165,-0.14666748,-0.30639648,-0.18878174,250.12978,250.12978,-128.32062,14
1166,-0.16418457,-0.17211914,-0.16778564,59.160305,250.12978,-124.87023,14
1167,-0.13934326,-0.15582275,-0.08691406,5.9847326,140.30534,-117.9542,14
1168,-0.07348633,-0.08392334,-0.023925781,89.68702,214.15266,-69.9542,14
1169,-0.078552246,0.005004883,-0.022827148,119.145035,211.73282,-39.053436,14
1170,-0.091308594,0.076171875,-0.03729248,99.32825,208.30534,-4.076336,14
1171,-0.111206055,0.13067627,-0.029541016,65.35114,151.63359,0.07633588,14
1172,-0.07269287,0.15307617,-0.024597168,1.3053435,8.427481,-13.847328,14
1173,-0.057434082,0.121032715,-0.028808594,-61.46565,-30.48855,30.76336,14
1174,-0.10119629,0.051879883,-0.03930664,-121.53435,-47.709923,108.80916,14
1175,-0.12921143,-0.023010254,-0.060546875,-177.44275,-123.62595,113.66412,14
1176,-0.17407227,-0.22247314,-0.08087158,-250.1374,-163.49619,83.26717,14
1177,-0.230896,-0.38537598,-0.22027588,-160.61069,-146.80916,128.28244,14
1178,-0.20428467,-0.37127686,-0.15600586,-82.458015,-192.29771,43.587788,14
1179,-0.1182251,-0.27825928,-0.051635742,-155.45801,-187.58778,29.274809,14
1180,-0.05682373,-0.23187256,-0.02734375,-184.49619,-211.47328,-0.8015267,14
1181,0.046020508,-0.21887207,0.041137695,-245.26718,-198.12213,12.992367,14
1182,0.0211792,-0.22290039,0.049438477,-70.89313,-153.39694,-31.213741,14
1183,0.05206299,-0.12042236,0.027832031,60.480915,-171.48856,-40.946564,14
1184,0.099731445,-0.05303955,0.037719727,74.61069,-159.44275,-31.335878,14
1185,0.13201904,-0.035217285,0.009216309,39.48855,-79.27481,-40.038166,14
1186,0.13134766,-0.05328369,0.020263672,49.40458,12.198473,-51.748093,14
1187,0.11273193,-0.056396484,0.024108887,69.854965,40.091602,-72.580154,14
1188,0.093566895,-0.099487305,-0.002319336,60.870228,122.28244,-58.396946,14
1189,0.053588867,-0.17071533,-0.014099121,81.55725,139.87022,-61.030533,14
1190,0.053710938,-0.27233887,-0.07507324,80.87023,99.63359,-56.549618,14
1191,-0.06964111,-0.49267578,-0.22381592,5.5648856,239.68703,64.496185,14
1192,-0.14941406,-0.37664795,-0.19683838,250.12978,200.55725,-107.29008,14
1193,-0.15118408,-0.18157959,-0.13922119,245.23665,250.12978,-124.36641,14
1194,-0.17907715,-0.13623047,-0.08239746,-25.900763,90.9313,-135.09924,14
1195,-0.08660889,-0.08782959,-0.06427002,62.160305,92.39695,-112.67939,14
1196,-0.07324219,3.66E-04,-0.03955078,108.52672,158.99237,-59.74046,14
1197,-0.07928467,0.072143555,-0.04071045,69.63359,138.46565,-18.755726,14
1198,-0.07501221,0.10797119,-0.03668213,30.832062,145.93893,11.832061,14
1199,-0.10015869,0.12445068,-0.039794922,12.458015,113.854965,29.343512,14
1200,-0.10028076,0.1317749,-0.04296875,-38.52672,14.4198475,47.229008,14
1201,-0.113464355,0.08300781,-0.070007324,-126.23664,-16.587786,97.92367,14
1202,-0.16583252,-0.007202148,-0.07537842,-229.83206,-78.79389,103.1145,14
1203,-0.18756104,-0.15093994,-0.083862305,-250.1374,-170.3435,54.984734,14
1204,-0.25628662,-0.30004883,-0.20306396,-250.1374,-187.49619,115.0458,14
1205,-0.20440674,-0.35632324,-0.23565674,-250.1374,-250.1374,17.595419,14
1206,0.05432129,-0.1463623,0.02709961,-37.74046,-127.41222,-0.45801526,14
1207,0.06567383,-0.13580322,0.029724121,-28.213741,-103.12214,-8.702291,14
1208,0.088134766,-0.09094238,0.059753418,-0.16793893,-95.78626,-51.603054,14
1209,0.11450195,-0.10205078,0.05090332,0.64122134,-66.99236,-52.374046,14
1210,0.13378906,-0.092041016,0.03137207,75.259544,-1.4351145,-66.900764,14
1211,0.101501465,-0.07196045,0.026489258,21.198473,117.80916,-75.618324,14
1212,0.06488037,-0.12689209,-0.021972656,27.419847,126.0458,-71.47328,14
1213,0.054870605,-0.20495605,-0.08068848,30.580153,108.99236,-63.053436,14
1214,-0.001403809,-0.39019775,-0.270813,-44.923664,93.1145,20.946566,14
1215,-0.14404297,-0.4130249,-0.35681152,250.12978,250.12978,-31.61832,14
1216,-0.15826416,-0.22167969,-0.22753906,250.12978,213.19084,-139.03816,14
1217,-0.14172363,-0.16101074,-0.19012451,-66.70992,234.19084,-103.37405,14
1218,-0.11352539,-0.11236572,-0.11706543,102.9313,160.36641,-90.0229,14
1219,-0.10455322,-0.014282227,-0.029785156,152.22137,221.84734,-29.29771,14
1220,-0.117614746,0.15527344,0.008056641,8.801527,76.908394,20.274809,14
1221,-0.107299805,0.12133789,-0.014160156,-17.641222,-11.702291,30.801527,14
1222,-0.1317749,0.07946777,-0.023742676,-71.19084,-60.29771,75.80153,14
1223,-0.15844727,6.10E-04,-0.05303955,-131.41222,-147.27481,79.55725,14
1224,-0.16790771,-0.16381836,-0.10168457,-250.1374,-232.70993,61.93893,14
1225,-0.20471191,-0.3110962,-0.25457764,-238.74046,-250.1374,90.79389,14
1226,-0.14135742,-0.29748535,-0.21655273,-137.8855,-250.1374,-14.343512,14
1227,-0.05987549,-0.2857666,-0.13671875,-250.1374,-245.44275,13.7786255,14
1228,-6.10E-05,-0.28625488,-0.11907959,-158.1374,-198.51144,-15.946565,14
1229,0.012084961,-0.21582031,-0.0758667,-44.34351,-189.67175,3.9770992,14
1230,0.04925537,-0.1786499,-0.033447266,-15.251908,-169.1374,29.885496,14
1231,0.061950684,-0.13458252,-0.008789063,11.801527,-122.0229,7.59542,14
1232,0.095336914,-0.085998535,0.021362305,5.3969464,-106.66412,-23.854961,14
1233,0.11608887,-0.07299805,0.039001465,-47.72519,-84.740456,-37.160305,14
1234,0.14434814,-0.08154297,0.03643799,17.396946,-41.549618,-46.251907,14
1235,0.1328125,-0.040100098,0.042663574,76.145035,17.206106,-58.900764,14
1236,0.12841797,-0.028930664,0.019836426,33.82443,76.503815,-52.931297,14
1237,0.06964111,-0.106933594,7.32E-04,-14.801527,146.64122,-19.587786,14
1238,0.0715332,-0.22491455,-0.05041504,17.832062,117.79389,-5.0916033,14
1239,0.016845703,-0.41918945,-0.19012451,65.43511,164.55725,36.030533,14
1240,-0.12677002,-0.45593262,-0.2703247,250.12978,238.03053,-17.961832,14
1241,-0.152771,-0.26745605,-0.21447754,250.12978,250.12978,-77.31298,14
1242,-0.1930542,-0.14202881,-0.17626953,108.36641,250.12978,-121.28244,14
1243,-0.111206055,-0.0927124,-0.09887695,-68.16794,107.99236,-122.503815,14
1244,-0.06817627,-0.06500244,-0.079589844,65.05344,165.37404,-49.549618,14
1245,-0.083740234,0.03479004,-0.020019531,181.1374,204.29771,-29.030535,14
1246,-0.07385254,0.1083374,-0.036621094,78.1145,173.87787,9.656488,14
1247,-0.074035645,0.13726807,-0.045776367,58.08397,104.137405,-4.4961834,14
1248,-0.05682373,0.14099121,-0.022827148,4.557252,27.648855,-3.351145,14
1249,-0.08911133,0.062438965,-0.03112793,-75.229004,-21.51145,58.755726,14
1250,-0.1338501,-0.010986328,-0.069885254,-122.27481,-56.435116,104.53435,14
1251,-0.15893555,-0.1652832,-0.05847168,-212.38168,-120.67175,55.335876,14
1252,-0.19073486,-0.28918457,-0.14996338,-151.32062,-152.18321,53.267174,14
1253,-0.20751953,-0.3201294,-0.13861084,-132.25954,-180.59541,58.251907,14
1254,-0.16479492,-0.2925415,-0.10858154,-218.70993,-206.0916,-0.6259542,14
1255,-0.07019043,-0.24914551,-0.03186035,-218.52672,-238.25954,-38.114502,14
1256,0.008422852,-0.2142334,0.001098633,-189.64885,-209.48856,-17.419847,14
1257,0.015563965,-0.22576904,0.007141113,-106.1145,-185.07634,-23.717558,14
1258,0.01373291,-0.1550293,-0.004943848,94.061066,-198.07634,-24.832062,14
1259,0.0637207,-0.041931152,0.006835938,128.17557,-184.49619,-12.427481,14
1260,0.11907959,-0.006713867,-0.005126953,-4.9770994,-156.3435,-22,14
1261,0.15167236,-0.038085938,-0.032470703,-10.282443,-49.10687,-42.21374,14
1262,0.17474365,-0.037475586,0.002441406,25.091602,33.38168,-60.14504,14
1263,0.1663208,-0.045715332,0.002197266,29.61832,103.46565,-44.328243,14
1264,0.12957764,-0.09484863,-0.005371094,17.656488,188.7939,-33.687023,14
1265,0.09112549,-0.17443848,-0.054260254,-13.083969,202.12213,-33.305344,14
1266,0.044006348,-0.34246826,-0.15753174,-36.633587,184.22137,11.885496,14
1267,-0.11077881,-0.45031738,-0.28546143,186.62596,250.12978,32.427483,14
1268,-0.13781738,-0.29418945,-0.20733643,250.12978,250.12978,-67.52672,14
1269,-0.15979004,-0.18048096,-0.21722412,36.25954,245.35115,-81.32061,14
1270,-0.1126709,-0.12841797,-0.07897949,24.10687,178.46565,-94.73283,14
1271,-0.07824707,-0.041503906,-0.06695557,61.671757,170.69466,-39.267174,14
1272,-0.085632324,0.028015137,-0.03845215,84.38931,160.31297,6.4885497,14
1273,-0.07989502,0.07623291,-0.032958984,69.48855,148.09924,59.068703,14
1274,-0.07171631,0.12036133,-0.001708984,35.72519,125.05344,77.76336,14
1275,-0.079956055,0.120666504,-0.011474609,-7.9083967,57.32061,75.20611,14
1276,-0.078063965,0.09387207,-0.035705566,-52.15267,-5.6870227,65.32825,14
1277,-0.113464355,0.04095459,-0.060180664,-106.84733,-54.580154,69.29008,14
1278,-0.16192627,-0.07434082,-0.08691406,-161.32062,-130.17557,27.259542,14
1279,-0.2078247,-0.24456787,-0.12963867,-250.1374,-212.41222,26.374046,14
1280,-0.2053833,-0.35876465,-0.22973633,-227.7939,-220.26718,34.007633,14
1281,-0.14013672,-0.303833,-0.095214844,-103.48855,-188.0916,-44.290077,14
1282,-0.09454346,-0.2612915,-0.05517578,-229.77863,-163.96947,-17.015266,14
1283,-0.03930664,-0.23956299,-0.07611084,-138.01527,-215.9313,-22.022902,14
1284,0.026550293,-0.19342041,-0.05303955,-58.282444,-204.30534,-14.603053,14
1285,0.06311035,-0.13494873,0.003723145,-56.87786,-145.35115,-37.717556,14
1286,0.053588867,-0.1060791,0.03765869,-94.770996,-102.580154,-50.778625,14
1287,0.08154297,-0.09674072,0.018127441,-17.007633,-118.74809,-61.78626,14
1288,0.114868164,-0.06604004,0.01727295,95.03053,-94.94656,-74.83206,14
1289,0.13000488,-0.029541016,0.013427734,74.30534,-33.770992,-66.47328,14
1290,0.1385498,-0.035583496,0.002075195,54.87786,52.809162,-52.76336,14
1291,0.101623535,-0.08843994,-0.019958496,54.961834,136.35878,-39.923664,14
1292,0.06506348,-0.15985107,-0.032714844,59.15267,201.03053,-27.786259,14
1293,0.047180176,-0.28881836,-0.07116699,82.60305,141.84734,-25.832062,14
1294,-0.037841797,-0.4473877,-0.2654419,67.16031,209.63359,45.12214,14
1295,-0.1506958,-0.37475586,-0.27331543,250.12978,250.12978,5.9389315,14
1296,-0.15240479,-0.16955566,-0.20703125,250.12978,250.12978,-94.740456,14
1297,-0.14691162,-0.074035645,-0.099243164,-5.961832,227.9542,-164.03053,14
1298,-0.10211182,-0.09326172,-0.11468506,-179.93893,89.229004,-105.96183,14
1299,-0.09698486,-0.059020996,-0.047912598,105.94656,158.89313,-79.42748,14
1300,-0.093444824,0.06781006,-0.020568848,117.57252,184.71756,-29.389313,14
1301,-0.09674072,0.11260986,-0.04852295,47.82443,113.98473,-20.664122,14
1302,-0.07122803,0.13354492,-0.017822266,4.068702,37.435116,-29.282442,14
1303,-0.07879639,0.086242676,-0.027954102,-65.76336,-26.67939,13.137404,14
1304,-0.09777832,0.04510498,-0.03479004,-109.66412,-54.0229,67.67175,14
1305,-0.12011719,-0.047973633,-0.04498291,-191.83969,-107.56489,72.9771,14
1306,-0.14691162,-0.22259521,-0.06866455,-250.1374,-171.84734,24.89313,14
1307,-0.1739502,-0.30969238,-0.1963501,-128.85497,-194.64122,84.36641,14
1308,-0.1394043,-0.29418945,-0.12658691,-156.82443,-217.90076,7.2671757,14
1309,-0.09051514,-0.2892456,-0.13409424,-250.1374,-250.1374,0.129771,14
1310,-0.025878906,-0.26104736,-0.07525635,-173.50381,-216.54199,-51.21374,14
1311,0.020568848,-0.21429443,-0.059814453,-165.62596,-197.55725,-32.21374,14
1312,0.044677734,-0.16674805,-0.026428223,-11.488549,-168.74046,-38.305344,14
1313,0.06390381,-0.09210205,-0.00177002,36.35878,-173.26718,-37.114502,14
1314,0.08337402,-0.060546875,0.00567627,14.083969,-134.42747,-15.946565,14
1315,0.11407471,-0.056274414,-0.002136231,61.335876,-92.381676,-28.419847,14
1316,0.13598633,-0.031799316,0.00592041,94.19847,-25.389313,-46.52672,14
1317,0.12249756,-0.029052734,0.014282227,35.78626,66.58778,-43.610687,14
1318,0.10479736,-0.05871582,0.003295898,15.938931,99.1145,-54.12214,14
1319,0.07940674,-0.12530518,-0.01373291,5.9007635,152.96184,-49.08397,14
1320,0.07647705,-0.19659424,-0.05340576,26.08397,139.78625,-52.885498,14
1321,0.026489258,-0.40283203,-0.1850586,-60.709923,163.69466,36.648853,14
1322,-0.11779785,-0.44995117,-0.2805786,250.12978,239.12978,34.64122,14
1323,-0.12402344,-0.24768066,-0.18920898,250.12978,213.70229,-99.89313,14
1324,-0.13702393,-0.11779785,-0.14422607,46.65649,250.12978,-131.77863,14
1325,-0.107421875,-0.11584473,-0.10058594,-73.63359,63.480915,-104.9542,14
1326,-0.035461426,-0.06274414,-0.048217773,83.16031,146.67175,-50.20611,14
1327,-0.046325684,0.039978027,-0.016540527,118.824425,195.58778,-1.0229008,14
1328,-0.0647583,0.08453369,-0.017150879,13.343512,159.47328,42.267174,14
1329,-0.08074951,0.095947266,-0.010986328,10.022901,136.37404,45.51145,14
1330,-0.09057617,0.10180664,0.014770508,5.923664,69.66412,43.61832,14
1331,-0.082092285,0.07385254,1.83E-04,-29.366413,-18.145039,56.34351,14
1332,-0.12579346,0.02368164,-0.02130127,-76.01527,-52.549618,104.099236,14
1333,-0.16278076,-0.10803223,-0.049865723,-192.47328,-150.08397,104.98473,14
1334,-0.20959473,-0.2819214,-0.18511963,-250.1374,-247.75572,94.40458,14
1335,-0.18981934,-0.35455322,-0.21539307,-112.854965,-250.1374,45.49618,14
1336,-0.11206055,-0.32409668,-0.1453247,-244.14503,-217.9771,5.8778625,14
1337,-0.060424805,-0.24957275,-0.09075928,-167.8855,-202.49619,-62.351147,14
1338,0.023071289,-0.17462158,-0.032836914,-159.59541,-203.73282,-48.27481,14
1339,0.050598145,-0.15960693,5.49E-04,-138.3435,-135.30534,-36.335876,14
1340,0.036499023,-0.123168945,0.003723145,-53.671757,-154.43512,-53.519085,14
1341,0.059814453,-0.07324219,0.01953125,-31.610687,-141.38931,-56.801525,14
1342,0.075927734,-0.057861328,0.024047852,-40.091602,-103.80916,-49.587788,14
1343,0.08502197,-0.06304932,0.009643555,78.68702,-77.65649,-56.587788,14
1344,0.11932373,-0.01977539,0.02520752,74.54962,-7.335878,-57.221375,14
1345,0.09674072,-0.074157715,0.004150391,15.7786255,120.00764,-44.40458,14
1346,0.08685303,-0.13848877,-0.024291992,31.29771,122.33588,-24.42748,14
1347,0.094177246,-0.29510498,-0.1295166,-17.900763,52.671757,55.251907,14
1348,-0.047058105,-0.47253418,-0.38342285,76.183205,198.41985,129.83206,14
1349,-0.12060547,-0.31610107,-0.2574463,250.12978,250.12978,-78.145035,14
1350,-0.13861084,-0.17633057,-0.2144165,21.068703,250.12978,-103.16794,14
1351,-0.099609375,-0.1552124,-0.054626465,-17.114504,227.03816,-55.755726,14
1352,-0.06744385,-0.074279785,-0.09674072,110.70229,250.12978,-12.160305,14
1353,-0.080566406,0.010009766,-0.04107666,161.6565,210.70229,24.358778,14
1354,-0.079833984,0.070617676,-0.010131836,126.05344,191.87787,32.0229,14
1355,-0.09039307,0.089660645,0.008911133,79.31298,147.16031,36.16794,14
1356,-0.107543945,0.080566406,0.00402832,72.44275,69.0458,36.87786,14
1357,-0.11999512,0.09765625,-0.026367188,44.572517,-31.900763,34.099236,14
1358,-0.12677002,0.06317139,-0.055236816,-63.007633,-148,28.847328,14
1359,-0.1315918,-0.053100586,-0.06500244,-165.18321,-204.0458,28.06107,14
1360,-0.14654541,-0.20281982,-0.15057373,-237.9313,-236.67938,37.335876,14
1361,-0.13830566,-0.33374023,-0.20440674,-190.67938,-250.1374,40.664124,14
1362,-0.066101074,-0.3470459,-0.16326904,-114.46565,-150.18321,24.862595,14
1363,-0.06677246,-0.2644043,-0.10491943,-60.633587,-150.54199,-11.503817,14
1364,-0.018005371,-0.21435547,-0.050964355,-115.503815,-217.12978,6.8625956,14
1365,0.044677734,-0.17242432,-0.025878906,-67.33588,-187.21375,-4.4198475,14
1366,0.054992676,-0.12908936,0.055603027,-85.9542,-137.67175,-8.801527,14
1367,0.07434082,-0.109436035,0.0524292,-114.45038,-145.09924,-29.816793,14
1368,0.08453369,-0.10437012,0.024597168,25.160305,-133,-38.137405,14
1369,0.09710693,-0.044128418,0.022766113,143.49619,-120.854965,-54.038166,14
1370,0.13293457,0.015930176,0,90.46565,-68.900764,-51.961834,14
1371,0.12017822,0.005249023,0.014648438,-15.824428,58.46565,-32.20611,14
1372,0.0949707,-0.05706787,0.006408691,-23.366413,80.824425,-25.274809,14
1373,0.074279785,-0.13024902,-0.021484375,16.610687,135.26718,-0.24427481,14
1374,0.07318115,-0.26489258,-0.06530762,38.290077,130.35115,33.34351,14
1375,-0.01928711,-0.44763184,-0.21606445,68.26717,204.67175,91.29008,14
1376,-0.14813232,-0.42138672,-0.253479,250.12978,245.32825,38.53435,14
1377,-0.13568115,-0.23535156,-0.16699219,250.12978,250.12978,-38.229008,14
1378,-0.15570068,-0.12005615,-0.032287598,113.45038,246.9771,-125.091606,14
1379,-0.11071777,-0.09741211,-0.04901123,-46.65649,110.9771,-99.98473,14
1380,-0.08557129,-0.056274414,-0.039367676,102.137405,135.2519,-73.541985,14
1381,-0.07476807,0.05255127,-0.016967773,144.24428,156.63359,-45.801525,14
1382,-0.070373535,0.1005249,-0.025390625,8.045801,98.33588,-23.053434,14
1383,-0.06933594,0.09820557,-0.032470703,6.3053436,57.9771,-21.801527,14
1384,-0.07574463,0.10192871,-0.01940918,-13,16.541985,9.343512,14
1385,-0.10662842,0.05718994,-0.024353027,-82.71756,-38.74046,48.603054,14
1386,-0.13134766,-0.032470703,-0.04144287,-147.74046,-95.183205,67.23664,14
1387,-0.15093994,-0.16278076,-0.066711426,-198.59541,-157.2061,44.12214,14
1388,-0.15777588,-0.28771973,-0.11236572,-173.83206,-200.1145,74.01527,14
1389,-0.15325928,-0.3149414,-0.15222168,-141.89313,-237.44275,52.603054,14
1390,-0.09869385,-0.2808838,-0.076538086,-170.1145,-232.82443,6.221374,14
1391,-0.04937744,-0.2612915,-0.057617188,-184.22137,-214.96947,-1.8167939,14
1392,-0.004943848,-0.21600342,-0.036743164,-68.618324,-186.9313,0.8244275,14
1393,0.04840088,-0.1473999,0.015136719,-70.29771,-144.29771,13.916031,14
1394,0.060546875,-0.12512207,0.047424316,-55.74046,-126.496185,4.0916033,14
1395,0.08337402,-0.10455322,0.044433594,-21.854961,-113.96183,-16.221375,14
1396,0.103515625,-0.09680176,0.0256958,80.618324,-119.07633,-19.93893,14
1397,0.14221191,-0.020446777,0.007324219,167.37404,-55.83206,-43.14504,14
1398,0.12731934,0.017333984,0.017578125,52.923664,78.10687,-28.885496,14
1399,0.09124756,-0.04949951,0.023925781,-21.137405,116.03817,-27.801527,14
1400,0.0703125,-0.12261963,-0.01159668,15.931297,148.9084,-35.931297,14
1401,0.05682373,-0.1842041,-0.037719727,65.98473,151.82443,-35.55725,14
1402,0.004150391,-0.34014893,-0.1352539,-19.19084,185.24428,40.14504,14
1403,-0.116882324,-0.40020752,-0.22027588,237.56488,246.09924,39.778625,14
1404,-0.12384033,-0.24505615,-0.14849854,250.12978,236.12978,-89.76336,14
1405,-0.15289307,-0.18127441,-0.092163086,11.587787,250.12978,-54.34351,14
1406,-0.114990234,-0.11755371,-0.09490967,49.954197,130.80153,-92.175575,14
1407,-0.091552734,-0.046203613,-0.03717041,33.17557,148.27481,-50.282444,14
1408,-0.08477783,0.022705078,-0.040893555,69.48855,140.55725,-25.93893,14
1409,-0.08868408,0.08795166,-0.004943848,75.62595,123.824425,-31.496183,14
1410,-0.09423828,0.10961914,0.002685547,-21.89313,80.79389,-9.137404,14
1411,-0.0803833,0.11218262,-7.32E-04,-20.206106,-10.351145,5.0305343,14
1412,-0.10290527,0.08483887,-0.035949707,-77.503815,-52.84733,51.55725,14
1413,-0.14880371,0.015014648,-0.04144287,-151.61069,-138.14503,72.57252,14
1414,-0.15612793,-0.13665771,-0.09539795,-250.1374,-216.12978,55.816795,14
1415,-0.20526123,-0.30944824,-0.23529053,-250.1374,-250.1374,68.10687,14
1416,-0.16918945,-0.36871338,-0.26586914,-178.7481,-250.1374,-6.1755724,14
1417,-0.052612305,-0.30737305,-0.125,-250.1374,-136.26718,-43.52672,14
1418,-0.033203125,-0.26934814,-0.0881958,-208.46565,-124.68702,-65.68702,14
1419,0.014648438,-0.19445801,-0.034423828,-63.870228,-104.229004,-50.198475,14
1420,0.03729248,-0.14892578,-0.007141113,-7.5725193,-112.908394,-25.038168,14
1421,0.05102539,-0.09454346,0.004760742,39.17557,-99.70229,-54.229008,14
1422,0.07702637,-0.029418945,0.036743164,-73.259544,-94.54962,-59.46565,14
1423,0.09301758,-0.038269043,0.007629395,-159.76335,-97.503815,-76.25191,14
1424,0.12335205,-0.06329346,0.001403809,-79.51908,-40.17557,-68.1145,14
1425,0.12957764,-0.049194336,0.02709961,-22.068703,16.175573,-82.87023,14
1426,0.12298584,-0.06488037,0.030761719,-45.282444,128.45038,-35.969467,14
1427,0.076416016,-0.1362915,0.015014648,0.41221374,180.6565,-3.9312978,14
1428,0.02520752,-0.18688965,-0.07244873,91,89.76336,-53.32061,14
1429,0.10083008,-0.25,-0.17663574,89.48855,-40.50382,-114.10687,14
1430,0.041748047,-0.40795898,-0.5270996,-133.7939,52.70229,36.79389,14
1431,-0.10858154,-0.44696045,-0.4272461,236.26718,250.12978,28.91603,14
1432,-0.15533447,-0.11090088,-0.3248291,250.12978,250.12978,-126.92367,14
1433,-0.11669922,0.041259766,-0.15374756,37.229008,250.12978,-155.87787,14
1434,-0.07977295,0.003173828,-0.061706543,-171.17557,176.61832,-7.4961834,14
1435,-0.08538818,0.053100586,-0.050720215,81.52672,250.12978,34.709923,14
1436,-0.1572876,0.16040039,1.83E-04,64.381676,250.12978,97.47328,14
1437,-0.16992188,0.16052246,0.02130127,-79.62595,95.8855,124.45038,14
1438,-0.12652588,0.12988281,0.035888672,-97.19084,-43.51145,164.18321,14
1439,-0.12542725,0.09136963,-0.041870117,-158.26718,-129.9084,179.58015,14
1440,-0.16345215,0.006774902,-0.066589355,-198.10687,-182.21375,147.15266,14
1441,-0.23699951,-0.22705078,-0.22283936,-250.1374,-250.1374,76.091606,14
1442,-0.27178955,-0.37890625,-0.43798828,-200.41985,-250.1374,45.954197,14
1443,-0.13104248,-0.38763428,-0.41833496,-250.1374,-167.80153,-62.038166,14
1444,-0.13189697,-0.4015503,-0.24060059,-207.48856,-25.282442,24.641222,14
1445,-0.049743652,-0.17755127,-0.11352539,250.12978,-47.366413,-148.08397,14
1446,0.012512207,-0.060668945,-0.023925781,23.175573,-126.51908,-60.587788,14
1447,0.055480957,-0.04949951,-0.060668945,-47.67939,-159.98473,-68.938934,14
1448,0.0869751,-0.037963867,-0.015930176,-107.71756,-69.83969,-104.1145,14
1449,0.075805664,-0.057373047,0.029174805,-100.03053,-84.03817,-97.0229,14
1450,0.10253906,-0.071777344,0.027282715,-90.259544,-77.74809,-85.69466,14
1451,0.14526367,-0.11480713,0.0635376,-39.17557,-65.16794,-66.503815,14
1452,0.16778564,-0.137146,0.053344727,47.633587,36.328243,-59.06107,14
1453,0.08898926,-0.19189453,0.016540527,132.29007,197.71756,-40.129772,14
1454,-0.015563965,-0.22387695,-0.06506348,215.38931,43.76336,-126.900764,14
1455,0.037902832,-0.17480469,-0.17797852,250.12978,-15.511451,-229.2519,14
1456,0.07080078,-0.30029297,-0.24890137,-113.39695,-24.770992,-96.03817,14
1457,-0.020080566,-0.43896484,-0.49871826,-53.671757,250.12978,-52.687023,14
1458,-0.1506958,-0.2765503,-0.3947754,250.12978,250.12978,-148.9542,14
1459,-0.16192627,-0.049926758,-0.24658203,151.229,250.12978,-156.85497,14
1460,-0.09881592,-0.02355957,-0.06530762,-135.29007,250.12978,-65.99236,14
1461,-0.070617676,-0.046081543,-0.057861328,30.954199,226.77863,23.465649,14
1462,-0.105041504,-0.043945312,0.043762207,145.57253,250.12978,131.45038,14
1463,-0.12158203,0.068603516,0.04345703,250.12978,250.12978,189.39694,14
1464,-0.14025879,0.25030518,0.013671875,250.12978,250.12978,170.62596,14
1465,-0.11352539,0.2781372,-0.045776367,-116.43511,-29.374046,59.129772,14
1466,-0.11016846,0.13781738,-0.11810303,-250.1374,-170.0458,79.62595,14
1467,-0.1574707,0.023010254,-0.109191895,-237.61832,-165.05344,-8.465649,14
1468,-0.16070557,-0.13568115,-0.10668945,-250.1374,-250.1374,7.6412215,14
1469,-0.17297363,-0.29937744,-0.25317383,-250.1374,-250.1374,125.37405,14
1470,-0.18133545,-0.32598877,-0.3508911,-34.931297,-250.1374,78.229004,14
1471,-0.08526611,-0.43499756,-0.23358154,-250.1374,-99.03817,204.76335,14
1472,-0.09869385,-0.32800293,-0.17547607,218.62596,-34.732826,56.625954,14
1473,-0.043945312,-0.11065674,-0.0569458,188.50381,-83.96183,50.091602,14
1474,0.014587402,-0.08123779,-0.022644043,-238.22137,-156.16031,116.61069,14
1475,0.024047852,-0.15307617,-0.07989502,-209.56488,-65.70992,83.62595,14
1476,0.024230957,-0.070251465,-0.003601074,-61.114502,-52.10687,-25.389313,14
1477,0.008056641,-0.11816406,0.08465576,-250.1374,-126.24428,-120.59542,14
1478,0.07147217,-0.20703125,-0.018676758,-82.45038,-136.60306,-81.145035,14
1479,0.12854004,-0.08312988,0.040222168,97.64122,-109.75572,-149.01527,14
1480,0.16888428,-0.056640625,0.016052246,-3.648855,-132.42747,-68.75572,14
1481,0.17565918,-0.09448242,-0.06585693,-19.931297,16.587786,-106.96947,14
1482,0.09881592,-0.15563965,-0.09643555,-16.969465,242.67175,-110.778625,14
1483,0.033996582,-0.24255371,-0.12792969,60.50382,250.12978,-166.27481,14
1484,0.056640625,-0.32244873,-0.17803955,142.60306,-68.26717,-138.93893,14
1485,-0.052856445,-0.4661255,-0.5209961,-26.541985,166.03816,60.129772,14
1486,-0.18328857,-0.28936768,-0.29803467,250.12978,250.12978,-113.70992,14
1487,-0.19128418,-0.013061523,-0.25256348,250.12978,174.41985,-217.92366,14
1488,-0.08972168,-0.042175293,-0.0602417,-250.1374,137.37404,-137.96947,14
1489,-0.06921387,-0.06567383,-0.13452148,50.610687,142.38168,-82.64122,14
1490,-0.1359253,0.08062744,0.005615234,250.12978,204.48091,-86.79389,14
1491,-0.14123535,0.12542725,-1.83E-04,36.79389,186.25954,16.854961,14
1492,-0.15386963,0.0982666,-0.026062012,87.83969,203.29007,78.66412,14
1493,-0.15960693,0.13934326,-0.032958984,15.908397,108.01527,160.43512,14
1494,-0.14428711,0.11444092,-0.034729004,-133.58778,27.900763,235.2519,14
1495,-0.17150879,0.038879395,-0.041015625,-228.87022,-42.17557,228.1374,14
1496,-0.18896484,-0.15637207,-0.06640625,-250.1374,-170.54199,131.22137,14
1497,-0.20507812,-0.3444214,-0.21612549,-250.1374,-208.3435,173.96947,14
1498,-0.19799805,-0.4727173,-0.32232666,-188.39694,-250.1374,114.8855,14
1499,-0.071899414,-0.42669678,-0.1217041,-222.07634,-75.83206,65.35878,14
1500,-0.06915283,-0.27038574,-0.140625,-106.9771,-93.03817,-90.21374,14
1501,8.54E-04,-0.16833496,-0.030822754,-88.259544,-161.51144,-81.03817,14
1502,0.045898438,-0.107421875,-0.045654297,-59.137405,-125.137405,-58.610687,14
1503,0.030395508,-0.072387695,-0.001037598,-0.83206105,-119.62595,-67.503815,14
1504,0.053527832,-0.018920898,0.003601074,-37.091602,-135.44275,-85.862595,14
1505,0.079711914,-0.012878418,0.001159668,-83.854965,-111.91603,-78.78626,14
1506,0.10058594,-0.020629883,0.021728516,-46.229008,-69.31298,-82.40458,14
1507,0.097473145,-0.032409668,0.026733398,-4.3893127,-19.145039,-59.48855,14
1508,0.10845947,-0.020812988,0.03668213,32.14504,1.3129771,-65.52672,14
1509,0.10479736,-0.018371582,0.012390137,17.954199,44.34351,-49.70229,14
1510,0.07373047,-0.08068848,-0.023620605,-22.587786,106.71756,-14.763359,14
1511,0.0569458,-0.19470215,-0.059570312,-27.854961,109.32825,7.59542,14
1512,0.036743164,-0.41625977,-0.21759033,-3.610687,32.015266,75.43511,14
1513,-0.1665039,-0.5686035,-0.43347168,250.12978,211.08397,18.145039,14
1514,-0.14990234,-0.3209839,-0.22021484,250.12978,250.12978,-34.580154,14
1515,-0.14068604,-0.083862305,-0.2232666,243.26718,250.12978,-138.91603,14
1516,-0.045776367,-0.01159668,-0.034606934,-88.46565,169.46565,-191.32825,14
1517,-0.036376953,-0.059265137,-0.058288574,-250.1374,169.58778,-66.9313,14
1518,-0.051940918,-0.05407715,-0.00769043,-43.870228,232.71756,-39.068703,14
1519,-0.066711426,-0.009094238,-0.002319336,-6.0305343,167.93893,34.89313,14
1520,-0.066589355,0.053527832,-0.037719727,177.76335,175.14503,26.641222,14
1521,-0.1161499,0.14196777,-0.02911377,145.69466,157.77863,3.0229008,14
1522,-0.15490723,0.15509033,-0.0513916,16.183207,2.9160306,-34.984734,14
1523,-0.15966797,0.13134766,-0.06530762,-69.183205,-99.175575,-34.870228,14
1524,-0.17877197,0.05114746,-0.05065918,-171.72519,-205.8626,0.007633588,14
1525,-0.15319824,-0.13012695,-0.059631348,-250.1374,-250.1374,43.190838,14
1526,-0.15515137,-0.24645996,-0.14715576,-59.55725,-250.1374,86.31298,14
1527,-0.13330078,-0.40008545,-0.23504639,-34.61832,-250.1374,148.48091,14
1528,-0.10131836,-0.45428467,-0.33721924,-250.1374,-206.70993,153.96184,14
1529,-0.06201172,-0.33776855,-0.1828003,4.4503818,-171.58778,-8.167939,14
1530,0.02960205,-0.17840576,-0.08166504,-95.96947,-131.30534,-49.114502,14
1531,0.08483887,-0.14019775,-0.07849121,-206.3435,-171.72519,-26.145039,14
1532,0.07128906,-0.12335205,-0.017822266,-145.01527,-6.5801525,-56.40458,14
1533,0.02319336,-0.11602783,0.029724121,-125.96183,-100.57252,-72,14
1534,0.08526611,-0.111816406,-0.02709961,30.122137,-98.770996,-89.71756,14
1535,0.13220215,-0.05078125,0.01977539,148.2061,-121.31298,-121.30534,14
1536,0.20239258,0.006530762,-0.039123535,56.458015,-114.01527,-170.62596,14
1537,0.18688965,-0.02947998,-0.0513916,-37.47328,244.64122,-98.9313,14
1538,0.080322266,-0.11730957,-0.026672363,-38.15267,250.12978,-96.58778,14
1539,0.111206055,-0.19476318,-0.009887695,36.0229,222.03816,-45.816795,14
1540,0.15368652,-0.3949585,-0.27685547,19.183207,-224.61069,5.7709923,14
1541,0.006591797,-0.33068848,-0.47143555,250.12978,250.12978,24.587786,14
1542,-0.20172119,-0.26556396,-0.21826172,47.82443,250.12978,-59.572517,14
1543,-0.2374878,-0.13580322,-0.2822876,-118.23664,112.32825,-55.816795,14
1544,-0.02923584,-0.10284424,-0.06121826,-47.74046,66.87786,0.66412216,14
1545,-0.07910156,-0.026367188,-0.094055176,5.3816795,250.12978,105.70229,14
1546,-0.116760254,0.056030273,-0.040527344,85.87023,235.54962,107.9313,14
1547,-0.09686279,0.12445068,0.009765625,84.8855,169.94656,89.52672,14
1548,-0.0692749,0.12945557,0.014648438,20.80916,83.08397,36.290077,14
1549,-0.07952881,0.07006836,-0.001647949,-53.51145,-55.328243,64.419846,14
1550,-0.09124756,0.028198242,-0.023071289,-37.580154,-128.99237,67.8855,14
1551,-0.13018799,-0.009094238,-0.028625488,-10.61832,-196.36641,33.885498,14
1552,-0.16326904,-0.17791748,-0.072265625,-133.16794,-250.1374,5.5114503,14
1553,-0.15338135,-0.29205322,-0.11553955,-5.7480917,-227.771,50.580154,14
1554,-0.115722656,-0.3095703,-0.29571533,106.74809,232.90076,-106.07633,14
1555,-0.09234619,-0.13598633,-0.120666504,250.12978,250.12978,-150.52672,14
1556,-0.111083984,-0.018676758,-0.026245117,78.183205,241.32062,-65.10687,14
1557,-0.14575195,-0.04321289,-0.028442383,-119.65649,-182.2519,93.29008,14
1558,-0.12652588,-0.19360352,-0.07067871,-222.8626,-248.80153,120.80916,14
1559,-0.07098389,-0.3955078,-0.20013428,-68.221375,-250.1374,87.12977,14
1560,0.010681152,-0.26940918,-0.06201172,-170.229,-218.0687,88.39695,14
1561,0.032104492,-0.24310303,-0.051574707,-59.267174,-214.48091,101.099236,14
1562,0.07373047,-0.0748291,0.007995606,-161.9084,-143.27481,9.007633,14
1563,0.1251831,-0.09197998,0.012939453,-8.335877,-87.35878,-53.25954,14
1564,0.14477539,-0.03515625,0.014770508,30.885496,-41.931297,-88,14
1565,0.14807129,-0.034179688,0.015686035,-32.35878,58.755726,-59.10687,14
1566,0.07910156,-0.13964844,-0.034606934,-55.93893,163.24428,-42.59542,14
1567,0.07775879,-0.25610352,-0.11248779,-50.9771,137,-42.778625,14
1568,0.103149414,-0.3944702,-0.24902344,-32.198475,55.48855,-84.44275,14
1569,-0.052490234,-0.46002197,-0.36865234,65.99236,250.12978,-39.007633,14
1570,-0.10949707,-0.2949829,-0.24267578,224.41985,142.10687,-181.35878,14
1571,-0.0657959,-0.107666016,-0.25128174,50.091602,233.69466,-188.21375,14
1572,-0.0446167,-0.03326416,-0.09899902,-115.47328,250.12978,-111.503815,14
1573,-0.0892334,-0.0078125,-0.033569336,18.580153,146.21375,-34.412212,14
1574,-0.08935547,0.093688965,-0.011230469,220.76335,216.29007,49.38168,14
1575,-0.14416504,0.1918335,-0.005737305,204.83206,250.12978,136.6565,14
1576,-0.19299316,0.22113037,-0.033996582,80.67939,208.771,197.7939,14
1577,-0.16778564,0.18896484,-0.04486084,-41.25954,73.862595,230.43512,14
1578,-0.19091797,0.103149414,-0.07147217,-202.1374,-13.709924,247.9084,14
1579,-0.23065186,-0.08093262,-0.07922363,-250.1374,-168.0916,175.9542,14
1580,-0.20544434,-0.3217163,-0.12774658,-250.1374,-250.1374,95.44275,14
1581,-0.15246582,-0.3701172,-0.20159912,7.183206,-172.39694,125.12977,14
1582,-0.17669678,-0.39624023,-0.23913574,-250.1374,-250.1374,134.96947,14
1583,-0.109680176,-0.41931152,-0.19891357,-250.1374,-126.61069,146.21375,14
1584,-0.062927246,-0.26257324,-0.10144043,0.66412216,-56.038166,16.23664,14
1585,-0.007629395,-0.14910889,-0.009094238,-68.1145,-120.29008,-33.458015,14
1586,0.02947998,-0.12072754,-0.026611328,-227.69466,-120.145035,-35.748093,14
1587,0.019104004,-0.14007568,0.009155273,-170.83969,-94.12977,-69.60305,14
1588,0.037353516,-0.10662842,-0.005126953,-10.648855,-154.64122,-107.20611,14
1589,0.09552002,-0.048217773,-0.008666992,89.98473,-173.54199,-81.16794,14
1590,0.1437378,-0.037597656,-0.005859375,49.25954,-187.9542,-83.44275,14
1591,0.18493652,-0.04638672,-0.02532959,-0.8549618,13.511451,-63.519085,14
1592,0.13519287,-0.112976074,0.006042481,34.85496,247.48091,-12.473283,14
1593,0.054870605,-0.15136719,0.018920898,96.03817,250.12978,-8.0992365,14
1594,0.028381348,-0.25531006,-0.05419922,76.580154,225.32062,-14.671756,14
1595,0.02911377,-0.3980713,-0.20233154,236.96947,111.816795,-11.389313,14
1596,-0.10998535,-0.48620605,-0.38305664,250.12978,212.07634,-0.77099234,14
1597,-0.1482544,-0.27563477,-0.24255371,250.12978,250.12978,-57.076336,14
1598,-0.16851807,-0.095703125,-0.20367432,164.0458,140.9771,-250.1374,14
1599,-0.08459473,-0.088256836,-0.10736084,-250.1374,45.015266,-207.60306,14
1600,-0.0546875,-0.152771,-0.14807129,-211.19847,129.6565,-167.0916,14
1601,-0.12017822,-0.10296631,0.04864502,12.633588,155.76335,-88.83969,14
1602,-0.0793457,-0.035888672,0.013854981,-11.992367,191.83206,-38.862595,14
1603,-0.11816406,0.00769043,0.002197266,117.740456,216.19084,33.076336,14
1604,-0.11407471,0.11785889,-0.00390625,250.12978,221.74046,7.2748094,14
1605,-0.13726807,0.22198486,-0.08557129,195.92366,80.37405,-53.74046,14
1606,-0.13708496,0.24188232,-0.14477539,-157.61832,-212.90076,-49.87786,14
1607,-0.09893799,0.12036133,-0.003967285,-250.1374,-172.29007,70.05344,14
